File: data/W6776m/XRD_2ThetaOmega/W6776m_absolute_2th-om_10-130deg_PIXscan_17min_9.xy
10.0035 29.0
10.0872 19.0
10.1709 19.0
10.2546 24.0
10.3383 19.0
10.422 18.0
10.5057 14.0
10.5894 23.0
10.6731 24.0
10.7568 24.0
10.8405 28.0
10.9242 24.0
11.0079 24.0
11.0916 38.0
11.1753 25.0
11.259 22.0
11.3428 31.0
11.4265 15.0
11.5102 31.0
11.5939 25.0
11.6776 22.0
11.7613 18.0
11.845 21.0
11.9287 22.0
12.0124 21.0
12.0961 26.0
12.1798 20.0
12.2635 21.0
12.3472 27.0
12.4309 19.0
12.5146 17.0
12.5983 25.0
12.682 20.0
12.7657 15.0
12.8495 15.0
12.9332 16.0
13.0169 23.0
13.1006 26.0
13.1843 22.0
13.268 22.0
13.3517 23.0
13.4354 22.0
13.5191 16.0
13.6028 18.0
13.6865 20.0
13.7702 15.0
13.8539 28.0
13.9376 16.0
14.0213 22.0
14.105 24.0
14.1887 18.0
14.2724 19.0
14.3562 20.0
14.4399 19.0
14.5236 23.0
14.6073 11.0
14.691 19.0
14.7747 20.0
14.8584 16.0
14.9421 17.0
15.0258 17.0
15.1095 14.0
15.1932 23.0
15.2769 26.0
15.3606 20.0
15.4443 11.0
15.528 12.0
15.6117 16.0
15.6954 16.0
15.7791 11.0
15.8629 15.0
15.9466 22.0
16.0303 13.0
16.114 27.0
16.1977 13.0
16.2814 24.0
16.3651 21.0
16.4488 18.0
16.5325 19.0
16.6162 19.0
16.6999 22.0
16.7836 21.0
16.8673 17.0
16.951 13.0
17.0347 16.0
17.1184 20.0
17.2021 20.0
17.2858 23.0
17.3696 10.0
17.4533 21.0
17.537 20.0
17.6207 16.0
17.7044 15.0
17.7881 18.0
17.8718 15.0
17.9555 33.0
18.0392 22.0
18.1229 14.0
18.2066 21.0
18.2903 21.0
18.374 21.0
18.4577 20.0
18.5414 19.0
18.6251 16.0
18.7088 17.0
18.7925 20.0
18.8763 21.0
18.96 19.0
19.0437 16.0
19.1274 17.0
19.2111 12.0
19.2948 25.0
19.3785 15.0
19.4622 19.0
19.5459 23.0
19.6296 17.0
19.7133 12.0
19.797 12.0
19.8807 18.0
19.9644 17.0
20.0481 21.0
20.1318 15.0
20.2155 18.0
20.2992 13.0
20.383 17.0
20.4667 19.0
20.5504 22.0
20.6341 8.0
20.7178 9.0
20.8015 16.0
20.8852 9.0
20.9689 17.0
21.0526 18.0
21.1363 18.0
21.22 13.0
21.3037 10.0
21.3874 14.0
21.4711 14.0
21.5548 13.0
21.6385 14.0
21.7222 12.0
21.8059 18.0
21.8897 13.0
21.9734 15.0
22.0571 16.0
22.1408 18.0
22.2245 11.0
22.3082 16.0
22.3919 14.0
22.4756 12.0
22.5593 17.0
22.643 12.0
22.7267 15.0
22.8104 9.0
22.8941 14.0
22.9778 15.0
23.0615 18.0
23.1452 13.0
23.2289 19.0
23.3126 18.0
23.3964 12.0
23.4801 17.0
23.5638 15.0
23.6475 18.0
23.7312 13.0
23.8149 14.0
23.8986 15.0
23.9823 16.0
24.066 20.0
24.1497 11.0
24.2334 18.0
24.3171 14.0
24.4008 12.0
24.4845 8.0
24.5682 20.0
24.6519 16.0
24.7356 19.0
24.8193 15.0
24.9031 19.0
24.9868 17.0
25.0705 14.0
25.1542 9.0
25.2379 14.0
25.3216 9.0
25.4053 14.0
25.489 19.0
25.5727 21.0
25.6564 18.0
25.7401 13.0
25.8238 16.0
25.9075 16.0
25.9912 10.0
26.0749 20.0
26.1586 11.0
26.2423 18.0
26.326 16.0
26.4098 12.0
26.4935 15.0
26.5772 13.0
26.6609 14.0
26.7446 14.0
26.8283 13.0
26.912 11.0
26.9957 9.0
27.0794 10.0
27.1631 12.0
27.2468 19.0
27.3305 12.0
27.4142 14.0
27.4979 13.0
27.5816 13.0
27.6653 13.0
27.749 18.0
27.8327 17.0
27.9165 15.0
28.0002 11.0
28.0839 17.0
28.1676 12.0
28.2513 19.0
28.335 12.0
28.4187 11.0
28.5024 14.0
28.5861 12.0
28.6698 19.0
28.7535 14.0
28.8372 11.0
28.9209 14.0
29.0046 21.0
29.0883 10.0
29.172 21.0
29.2557 10.0
29.3394 11.0
29.4232 15.0
29.5069 17.0
29.5906 14.0
29.6743 15.0
29.758 19.0
29.8417 15.0
29.9254 10.0
30.0091 15.0
30.0928 15.0
30.1765 11.0
30.2602 12.0
30.3439 14.0
30.4276 13.0
30.5113 12.0
30.595 16.0
30.6787 15.0
30.7624 22.0
30.8461 12.0
30.9298 17.0
31.0136 13.0
31.0973 17.0
31.181 12.0
31.2647 14.0
31.3484 11.0
31.4321 11.0
31.5158 12.0
31.5995 17.0
31.6832 18.0
31.7669 16.0
31.8506 11.0
31.9343 14.0
32.018 11.0
32.1017 9.0
32.1854 20.0
32.2691 14.0
32.3528 23.0
32.4365 13.0
32.5203 21.0
32.604 8.0
32.6877 12.0
32.7714 8.0
32.8551 10.0
32.9388 10.0
33.0225 11.0
33.1062 14.0
33.1899 26.0
33.2736 16.0
33.3573 11.0
33.441 15.0
33.5247 15.0
33.6084 14.0
33.6921 16.0
33.7758 18.0
33.8595 9.0
33.9432 21.0
34.027 15.0
34.1107 13.0
34.1944 14.0
34.2781 20.0
34.3618 16.0
34.4455 18.0
34.5292 9.0
34.6129 17.0
34.6966 14.0
34.7803 14.0
34.864 10.0
34.9477 13.0
35.0314 15.0
35.1151 22.0
35.1988 14.0
35.2825 8.0
35.3662 16.0
35.4499 15.0
35.5337 15.0
35.6174 11.0
35.7011 11.0
35.7848 9.0
35.8685 17.0
35.9522 13.0
36.0359 17.0
36.1196 11.0
36.2033 9.0
36.287 16.0
36.3707 16.0
36.4544 11.0
36.5381 22.0
36.6218 10.0
36.7055 13.0
36.7892 24.0
36.8729 13.0
36.9566 14.0
37.0404 17.0
37.1241 10.0
37.2078 14.0
37.2915 12.0
37.3752 16.0
37.4589 18.0
37.5426 13.0
37.6263 15.0
37.71 13.0
37.7937 20.0
37.8774 12.0
37.9611 11.0
38.0448 10.0
38.1285 16.0
38.2122 6.0
38.2959 11.0
38.3796 14.0
38.4633 13.0
38.5471 20.0
38.6308 16.0
38.7145 12.0
38.7982 13.0
38.8819 19.0
38.9656 17.0
39.0493 13.0
39.133 6.0
39.2167 4.0
39.3004 14.0
39.3841 15.0
39.4678 7.0
39.5515 8.0
39.6352 17.0
39.7189 12.0
39.8026 14.0
39.8863 21.0
39.97 11.0
40.0538 19.0
40.1375 10.0
40.2212 18.0
40.3049 13.0
40.3886 12.0
40.4723 12.0
40.556 19.0
40.6397 15.0
40.7234 14.0
40.8071 6.0
40.8908 13.0
40.9745 13.0
41.0582 11.0
41.1419 21.0
41.2256 12.0
41.3093 10.0
41.393 13.0
41.4767 14.0
41.5605 8.0
41.6442 15.0
41.7279 12.0
41.8116 14.0
41.8953 18.0
41.979 14.0
42.0627 15.0
42.1464 10.0
42.2301 18.0
42.3138 21.0
42.3975 18.0
42.4812 13.0
42.5649 14.0
42.6486 19.0
42.7323 18.0
42.816 9.0
42.8997 12.0
42.9834 15.0
43.0672 19.0
43.1509 13.0
43.2346 16.0
43.3183 14.0
43.402 8.0
43.4857 19.0
43.5694 16.0
43.6531 13.0
43.7368 14.0
43.8205 11.0
43.9042 13.0
43.9879 21.0
44.0716 16.0
44.1553 18.0
44.239 20.0
44.3227 33.0
44.4064 24.0
44.4901 23.0
44.5739 10.0
44.6576 21.0
44.7413 20.0
44.825 16.0
44.9087 12.0
44.9924 15.0
45.0761 18.0
45.1598 17.0
45.2435 13.0
45.3272 17.0
45.4109 13.0
45.4946 14.0
45.5783 17.0
45.662 8.0
45.7457 14.0
45.8294 10.0
45.9131 5.0
45.9968 14.0
46.0806 12.0
46.1643 18.0
46.248 14.0
46.3317 15.0
46.4154 9.0
46.4991 17.0
46.5828 17.0
46.6665 15.0
46.7502 14.0
46.8339 13.0
46.9176 9.0
47.0013 12.0
47.085 13.0
47.1687 8.0
47.2524 15.0
47.3361 14.0
47.4198 12.0
47.5035 15.0
47.5873 18.0
47.671 29.0
47.7547 12.0
47.8384 13.0
47.9221 16.0
48.0058 11.0
48.0895 12.0
48.1732 11.0
48.2569 12.0
48.3406 14.0
48.4243 12.0
48.508 15.0
48.5917 14.0
48.6754 14.0
48.7591 18.0
48.8428 19.0
48.9265 13.0
49.0102 8.0
49.094 9.0
49.1777 14.0
49.2614 14.0
49.3451 15.0
49.4288 9.0
49.5125 15.0
49.5962 14.0
49.6799 14.0
49.7636 6.0
49.8473 15.0
49.931 14.0
50.0147 15.0
50.0984 14.0
50.1821 11.0
50.2658 18.0
50.3495 15.0
50.4332 15.0
50.5169 15.0
50.6007 14.0
50.6844 17.0
50.7681 14.0
50.8518 15.0
50.9355 9.0
51.0192 8.0
51.1029 10.0
51.1866 16.0
51.2703 9.0
51.354 23.0
51.4377 11.0
51.5214 12.0
51.6051 13.0
51.6888 15.0
51.7725 9.0
51.8562 14.0
51.9399 24.0
52.0236 15.0
52.1074 16.0
52.1911 9.0
52.2748 13.0
52.3585 17.0
52.4422 15.0
52.5259 10.0
52.6096 9.0
52.6933 12.0
52.777 11.0
52.8607 11.0
52.9444 16.0
53.0281 15.0
53.1118 15.0
53.1955 18.0
53.2792 13.0
53.3629 11.0
53.4466 13.0
53.5303 16.0
53.6141 9.0
53.6978 12.0
53.7815 16.0
53.8652 20.0
53.9489 14.0
54.0326 8.0
54.1163 18.0
54.2 18.0
54.2837 4.0
54.3674 14.0
54.4511 18.0
54.5348 13.0
54.6185 12.0
54.7022 9.0
54.7859 14.0
54.8696 8.0
54.9533 12.0
55.037 13.0
55.1208 12.0
55.2045 15.0
55.2882 18.0
55.3719 8.0
55.4556 13.0
55.5393 14.0
55.623 28.0
55.7067 15.0
55.7904 17.0
55.8741 13.0
55.9578 17.0
56.0415 6.0
56.1252 20.0
56.2089 17.0
56.2926 13.0
56.3763 12.0
56.46 12.0
56.5437 14.0
56.6275 18.0
56.7112 18.0
56.7949 15.0
56.8786 17.0
56.9623 10.0
57.046 15.0
57.1297 9.0
57.2134 11.0
57.2971 18.0
57.3808 22.0
57.4645 13.0
57.5482 10.0
57.6319 8.0
57.7156 12.0
57.7993 16.0
57.883 16.0
57.9667 14.0
58.0504 13.0
58.1342 13.0
58.2179 21.0
58.3016 13.0
58.3853 20.0
58.469 17.0
58.5527 12.0
58.6364 14.0
58.7201 10.0
58.8038 17.0
58.8875 14.0
58.9712 15.0
59.0549 11.0
59.1386 21.0
59.2223 14.0
59.306 21.0
59.3897 15.0
59.4734 16.0
59.5571 13.0
59.6409 15.0
59.7246 16.0
59.8083 12.0
59.892 12.0
59.9757 13.0
60.0594 16.0
60.1431 9.0
60.2268 18.0
60.3105 9.0
60.3942 25.0
60.4779 14.0
60.5616 15.0
60.6453 15.0
60.729 17.0
60.8127 90.0
60.8964 96.0
60.9801 42.0
61.0638 18.0
61.1476 13.0
61.2313 22.0
61.315 25.0
61.3987 17.0
61.4824 13.0
61.5661 14.0
61.6498 13.0
61.7335 22.0
61.8172 14.0
61.9009 19.0
61.9846 12.0
62.0683 17.0
62.152 17.0
62.2357 12.0
62.3194 14.0
62.4031 21.0
62.4868 19.0
62.5705 15.0
62.6543 10.0
62.738 18.0
62.8217 10.0
62.9054 21.0
62.9891 21.0
63.0728 14.0
63.1565 21.0
63.2402 15.0
63.3239 26.0
63.4076 13.0
63.4913 23.0
63.575 18.0
63.6587 19.0
63.7424 24.0
63.8261 20.0
63.9098 26.0
63.9935 25.0
64.0772 31.0
64.161 33.0
64.2447 43.0
64.3284 47.0
64.4121 65.0
64.4958 97.0
64.5795 136.0
64.6632 189.0
64.7469 232.0
64.8306 228.0
64.9143 260.0
64.998 297.0
65.0817 90.0
65.1654 72.0
65.2491 45.0
65.3328 40.0
65.4165 42.0
65.5002 78.0
65.5839 39.0
65.6677 24.0
65.7514 33.0
65.8351 29.0
65.9188 32.0
66.0025 26.0
66.0862 28.0
66.1699 29.0
66.2536 36.0
66.3373 31.0
66.421 27.0
66.5047 28.0
66.5884 43.0
66.6721 42.0
66.7558 37.0
66.8395 49.0
66.9232 37.0
67.0069 42.0
67.0906 53.0
67.1744 43.0
67.2581 61.0
67.3418 71.0
67.4255 80.0
67.5092 94.0
67.5929 105.0
67.6766 115.0
67.7603 216.0
67.844 405.0
67.9277 407.0
68.0114 692.0
68.0951 2963.0
68.1788 40220.0
68.2625 2521.0
68.3462 18616.0
68.4299 2526.0
68.5136 622.0
68.5973 300.0
68.6811 199.0
68.7648 199.0
68.8485 148.0
68.9322 112.0
69.0159 91.0
69.0996 96.0
69.1833 76.0
69.267 75.0
69.3507 70.0
69.4344 70.0
69.5181 59.0
69.6018 64.0
69.6855 57.0
69.7692 55.0
69.8529 44.0
69.9366 39.0
70.0203 47.0
70.104 39.0
70.1878 37.0
70.2715 29.0
70.3552 36.0
70.4389 28.0
70.5226 21.0
70.6063 28.0
70.69 20.0
70.7737 20.0
70.8574 30.0
70.9411 16.0
71.0248 15.0
71.1085 16.0
71.1922 26.0
71.2759 21.0
71.3596 18.0
71.4433 21.0
71.527 11.0
71.6107 17.0
71.6945 18.0
71.7782 21.0
71.8619 17.0
71.9456 26.0
72.0293 15.0
72.113 18.0
72.1967 17.0
72.2804 18.0
72.3641 25.0
72.4478 15.0
72.5315 19.0
72.6152 15.0
72.6989 16.0
72.7826 17.0
72.8663 13.0
72.95 20.0
73.0337 14.0
73.1174 21.0
73.2012 14.0
73.2849 16.0
73.3686 13.0
73.4523 7.0
73.536 17.0
73.6197 13.0
73.7034 14.0
73.7871 18.0
73.8708 20.0
73.9545 21.0
74.0382 17.0
74.1219 16.0
74.2056 14.0
74.2893 8.0
74.373 15.0
74.4567 20.0
74.5404 14.0
74.6241 19.0
74.7079 21.0
74.7916 17.0
74.8753 15.0
74.959 17.0
75.0427 14.0
75.1264 19.0
75.2101 19.0
75.2938 20.0
75.3775 11.0
75.4612 20.0
75.5449 15.0
75.6286 20.0
75.7123 19.0
75.796 14.0
75.8797 17.0
75.9634 10.0
76.0471 14.0
76.1308 21.0
76.2146 16.0
76.2983 13.0
76.382 22.0
76.4657 10.0
76.5494 12.0
76.6331 21.0
76.7168 21.0
76.8005 17.0
76.8842 12.0
76.9679 23.0
77.0516 11.0
77.1353 6.0
77.219 17.0
77.3027 17.0
77.3864 11.0
77.4701 14.0
77.5538 14.0
77.6375 24.0
77.7213 7.0
77.805 19.0
77.8887 20.0
77.9724 10.0
78.0561 20.0
78.1398 19.0
78.2235 8.0
78.3072 12.0
78.3909 11.0
78.4746 17.0
78.5583 18.0
78.642 11.0
78.7257 15.0
78.8094 15.0
78.8931 16.0
78.9768 14.0
79.0605 13.0
79.1442 14.0
79.228 11.0
79.3117 16.0
79.3954 20.0
79.4791 12.0
79.5628 20.0
79.6465 14.0
79.7302 16.0
79.8139 14.0
79.8976 20.0
79.9813 14.0
80.065 17.0
80.1487 12.0
80.2324 15.0
80.3161 11.0
80.3998 17.0
80.4835 15.0
80.5672 13.0
80.6509 11.0
80.7347 14.0
80.8184 13.0
80.9021 14.0
80.9858 12.0
81.0695 14.0
81.1532 11.0
81.2369 18.0
81.3206 16.0
81.4043 17.0
81.488 11.0
81.5717 18.0
81.6554 12.0
81.7391 17.0
81.8228 14.0
81.9065 12.0
81.9902 13.0
82.0739 11.0
82.1576 13.0
82.2414 21.0
82.3251 20.0
82.4088 11.0
82.4925 12.0
82.5762 21.0
82.6599 14.0
82.7436 20.0
82.8273 23.0
82.911 13.0
82.9947 16.0
83.0784 15.0
83.1621 10.0
83.2458 16.0
83.3295 12.0
83.4132 16.0
83.4969 15.0
83.5806 20.0
83.6643 10.0
83.7481 15.0
83.8318 12.0
83.9155 12.0
83.9992 10.0
84.0829 24.0
84.1666 18.0
84.2503 12.0
84.334 19.0
84.4177 10.0
84.5014 14.0
84.5851 12.0
84.6688 18.0
84.7525 16.0
84.8362 7.0
84.9199 18.0
85.0036 12.0
85.0873 15.0
85.171 13.0
85.2548 13.0
85.3385 11.0
85.4222 9.0
85.5059 14.0
85.5896 13.0
85.6733 16.0
85.757 11.0
85.8407 11.0
85.9244 13.0
86.0081 9.0
86.0918 14.0
86.1755 11.0
86.2592 13.0
86.3429 17.0
86.4266 15.0
86.5103 14.0
86.594 20.0
86.6777 13.0
86.7615 13.0
86.8452 12.0
86.9289 12.0
87.0126 14.0
87.0963 10.0
87.18 12.0
87.2637 9.0
87.3474 17.0
87.4311 13.0
87.5148 16.0
87.5985 13.0
87.6822 15.0
87.7659 12.0
87.8496 17.0
87.9333 9.0
88.017 13.0
88.1007 13.0
88.1844 9.0
88.2682 10.0
88.3519 20.0
88.4356 22.0
88.5193 11.0
88.603 13.0
88.6867 16.0
88.7704 14.0
88.8541 14.0
88.9378 20.0
89.0215 17.0
89.1052 12.0
89.1889 13.0
89.2726 17.0
89.3563 8.0
89.44 17.0
89.5237 17.0
89.6074 8.0
89.6911 16.0
89.7749 18.0
89.8586 11.0
89.9423 14.0
90.026 17.0
90.1097 10.0
90.1934 14.0
90.2771 21.0
90.3608 18.0
90.4445 15.0
90.5282 12.0
90.6119 15.0
90.6956 17.0
90.7793 11.0
90.863 15.0
90.9467 18.0
91.0304 13.0
91.1141 10.0
91.1978 15.0
91.2816 11.0
91.3653 11.0
91.449 15.0
91.5327 8.0
91.6164 9.0
91.7001 9.0
91.7838 8.0
91.8675 14.0
91.9512 11.0
92.0349 15.0
92.1186 18.0
92.2023 16.0
92.286 12.0
92.3697 16.0
92.4534 14.0
92.5371 14.0
92.6208 10.0
92.7045 10.0
92.7883 9.0
92.872 10.0
92.9557 14.0
93.0394 9.0
93.1231 19.0
93.2068 18.0
93.2905 15.0
93.3742 18.0
93.4579 19.0
93.5416 15.0
93.6253 16.0
93.709 15.0
93.7927 15.0
93.8764 8.0
93.9601 20.0
94.0438 15.0
94.1275 16.0
94.2112 17.0
94.295 14.0
94.3787 12.0
94.4624 14.0
94.5461 11.0
94.6298 19.0
94.7135 10.0
94.7972 14.0
94.8809 17.0
94.9646 16.0
95.0483 6.0
95.132 19.0
95.2157 20.0
95.2994 10.0
95.3831 10.0
95.4668 8.0
95.5505 15.0
95.6342 15.0
95.7179 17.0
95.8017 11.0
95.8854 18.0
95.9691 10.0
96.0528 14.0
96.1365 14.0
96.2202 20.0
96.3039 10.0
96.3876 11.0
96.4713 12.0
96.555 10.0
96.6387 17.0
96.7224 22.0
96.8061 16.0
96.8898 15.0
96.9735 15.0
97.0572 17.0
97.1409 10.0
97.2246 17.0
97.3084 16.0
97.3921 15.0
97.4758 15.0
97.5595 8.0
97.6432 8.0
97.7269 7.0
97.8106 12.0
97.8943 12.0
97.978 18.0
98.0617 14.0
98.1454 19.0
98.2291 14.0
98.3128 10.0
98.3965 15.0
98.4802 24.0
98.5639 15.0
98.6476 13.0
98.7313 13.0
98.8151 16.0
98.8988 19.0
98.9825 16.0
99.0662 17.0
99.1499 18.0
99.2336 10.0
99.3173 19.0
99.401 17.0
99.4847 17.0
99.5684 12.0
99.6521 23.0
99.7358 14.0
99.8195 19.0
99.9032 22.0
99.9869 16.0
100.071 18.0
100.154 17.0
100.238 12.0
100.322 16.0
100.405 15.0
100.489 14.0
100.573 8.0
100.657 17.0
100.74 23.0
100.824 13.0
100.908 11.0
100.991 17.0
101.075 13.0
101.159 26.0
101.243 8.0
101.326 12.0
101.41 18.0
101.494 9.0
101.577 18.0
101.661 10.0
101.745 15.0
101.828 11.0
101.912 12.0
101.996 18.0
102.08 6.0
102.163 8.0
102.247 14.0
102.331 13.0
102.414 21.0
102.498 19.0
102.582 14.0
102.666 20.0
102.749 18.0
102.833 16.0
102.917 14.0
103 12.0
103.084 17.0
103.168 12.0
103.251 22.0
103.335 15.0
103.419 9.0
103.503 17.0
103.586 11.0
103.67 8.0
103.754 11.0
103.837 11.0
103.921 12.0
104.005 17.0
104.089 12.0
104.172 19.0
104.256 16.0
104.34 18.0
104.423 13.0
104.507 14.0
104.591 24.0
104.674 4.0
104.758 17.0
104.842 18.0
104.926 8.0
105.009 20.0
105.093 15.0
105.177 16.0
105.26 20.0
105.344 12.0
105.428 13.0
105.511 17.0
105.595 10.0
105.679 7.0
105.763 22.0
105.846 13.0
105.93 16.0
106.014 10.0
106.097 15.0
106.181 9.0
106.265 12.0
106.349 15.0
106.432 10.0
106.516 16.0
106.6 16.0
106.683 10.0
106.767 19.0
106.851 17.0
106.934 10.0
107.018 16.0
107.102 16.0
107.186 16.0
107.269 16.0
107.353 20.0
107.437 17.0
107.52 11.0
107.604 19.0
107.688 15.0
107.772 12.0
107.855 20.0
107.939 9.0
108.023 14.0
108.106 17.0
108.19 17.0
108.274 10.0
108.357 20.0
108.441 19.0
108.525 13.0
108.609 21.0
108.692 17.0
108.776 11.0
108.86 13.0
108.943 15.0
109.027 20.0
109.111 16.0
109.195 13.0
109.278 19.0
109.362 11.0
109.446 9.0
109.529 12.0
109.613 16.0
109.697 14.0
109.78 13.0
109.864 14.0
109.948 9.0
110.032 10.0
110.115 14.0
110.199 18.0
110.283 12.0
110.366 10.0
110.45 20.0
110.534 14.0
110.618 14.0
110.701 17.0
110.785 22.0
110.869 18.0
110.952 15.0
111.036 16.0
111.12 14.0
111.203 10.0
111.287 10.0
111.371 16.0
111.455 19.0
111.538 17.0
111.622 9.0
111.706 23.0
111.789 16.0
111.873 19.0
111.957 15.0
112.041 15.0
112.124 16.0
112.208 17.0
112.292 16.0
112.375 13.0
112.459 12.0
112.543 15.0
112.626 12.0
112.71 11.0
112.794 17.0
112.878 12.0
112.961 8.0
113.045 15.0
113.129 12.0
113.212 17.0
113.296 29.0
113.38 14.0
113.464 13.0
113.547 19.0
113.631 21.0
113.715 16.0
113.798 13.0
113.882 15.0
113.966 12.0
114.049 13.0
114.133 13.0
114.217 16.0
114.301 10.0
114.384 18.0
114.468 16.0
114.552 12.0
114.635 16.0
114.719 7.0
114.803 14.0
114.887 17.0
114.97 22.0
115.054 25.0
115.138 12.0
115.221 16.0
115.305 15.0
115.389 15.0
115.472 9.0
115.556 14.0
115.64 16.0
115.724 12.0
115.807 16.0
115.891 14.0
115.975 10.0
116.058 21.0
116.142 16.0
116.226 20.0
116.31 14.0
116.393 22.0
116.477 12.0
116.561 16.0
116.644 17.0
116.728 11.0
116.812 17.0
116.895 9.0
116.979 14.0
117.063 17.0
117.147 16.0
117.23 16.0
117.314 26.0
117.398 9.0
117.481 18.0
117.565 12.0
117.649 17.0
117.733 12.0
117.816 16.0
117.9 13.0
117.984 12.0
118.067 9.0
118.151 16.0
118.235 10.0
118.318 22.0
118.402 14.0
118.486 21.0
118.57 12.0
118.653 14.0
118.737 11.0
118.821 9.0
118.904 20.0
118.988 17.0
119.072 13.0
119.156 21.0
119.239 18.0
119.323 17.0
119.407 13.0
119.49 13.0
119.574 7.0
119.658 17.0
119.741 20.0
119.825 11.0
119.909 15.0
119.993 14.0
120.076 16.0
120.16 16.0
120.244 11.0
120.327 21.0
120.411 13.0
120.495 11.0
120.578 16.0
120.662 14.0
120.746 18.0
120.83 9.0
120.913 15.0
120.997 7.0
121.081 19.0
121.164 12.0
121.248 8.0
121.332 9.0
121.416 12.0
121.499 15.0
121.583 14.0
121.667 13.0
121.75 27.0
121.834 14.0
121.918 17.0
122.001 11.0
122.085 11.0
122.169 9.0
122.253 20.0
122.336 18.0
122.42 13.0
122.504 17.0
122.587 15.0
122.671 20.0
122.755 19.0
122.839 6.0
122.922 10.0
123.006 12.0
123.09 16.0
123.173 13.0
123.257 17.0
123.341 13.0
123.424 20.0
123.508 8.0
123.592 11.0
123.676 20.0
123.759 7.0
123.843 19.0
123.927 19.0
124.01 17.0
124.094 10.0
124.178 12.0
124.262 15.0
124.345 20.0
124.429 12.0
124.513 18.0
124.596 12.0
124.68 11.0
124.764 18.0
124.847 10.0
124.931 19.0
125.015 18.0
125.099 12.0
125.182 11.0
125.266 21.0
125.35 15.0
125.433 13.0
125.517 12.0
125.601 16.0
125.685 11.0
125.768 12.0
125.852 15.0
125.936 14.0
126.019 22.0
126.103 17.0
126.187 24.0
126.27 12.0
126.354 10.0
126.438 15.0
126.522 11.0
126.605 16.0
126.689 13.0
126.773 10.0
126.856 19.0
126.94 11.0
127.024 21.0
127.108 14.0
127.191 17.0
127.275 14.0
127.359 10.0
127.442 17.0
127.526 12.0
127.61 17.0
127.693 21.0
127.777 16.0
127.861 18.0
127.945 14.0
128.028 19.0
128.112 16.0
128.196 15.0
128.279 14.0
128.363 10.0
128.447 15.0
128.531 10.0
128.614 17.0
128.698 11.0
128.782 14.0
128.865 11.0
128.949 12.0
129.033 12.0
129.116 16.0
129.2 11.0
129.284 13.0
129.368 23.0
129.451 15.0
129.535 16.0
129.619 11.0
129.702 19.0
129.786 17.0
129.87 14.0
129.954 22.0
129.998 12.0