File: data/W6904a/XRD_2ThetaOmega/scan_2th-om_a_Cr2O3_30-40deg_PIXscan_4min_5.xy
30.0025 115.0
30.0123 115.0
30.0222 107.0
30.032 113.0
30.0419 108.0
30.0517 137.0
30.0615 142.0
30.0714 111.0
30.0812 114.0
30.0911 116.0
30.1009 122.0
30.1108 113.0
30.1206 146.0
30.1305 128.0
30.1403 114.0
30.1502 126.0
30.16 141.0
30.1699 124.0
30.1797 113.0
30.1896 130.0
30.1994 102.0
30.2093 115.0
30.2191 126.0
30.229 118.0
30.2388 130.0
30.2487 127.0
30.2585 116.0
30.2684 123.0
30.2782 99.0
30.288 112.0
30.2979 116.0
30.3077 100.0
30.3176 93.0
30.3274 120.0
30.3373 136.0
30.3471 135.0
30.357 135.0
30.3668 121.0
30.3767 127.0
30.3865 100.0
30.3964 116.0
30.4062 119.0
30.4161 124.0
30.4259 116.0
30.4358 108.0
30.4456 123.0
30.4555 121.0
30.4653 121.0
30.4752 139.0
30.485 138.0
30.4948 128.0
30.5047 93.0
30.5145 109.0
30.5244 118.0
30.5342 124.0
30.5441 125.0
30.5539 116.0
30.5638 118.0
30.5736 110.0
30.5835 123.0
30.5933 120.0
30.6032 130.0
30.613 111.0
30.6229 128.0
30.6327 122.0
30.6426 126.0
30.6524 112.0
30.6623 99.0
30.6721 124.0
30.682 123.0
30.6918 124.0
30.7016 115.0
30.7115 133.0
30.7213 130.0
30.7312 133.0
30.741 116.0
30.7509 133.0
30.7607 104.0
30.7706 120.0
30.7804 129.0
30.7903 123.0
30.8001 136.0
30.81 119.0
30.8198 140.0
30.8297 119.0
30.8395 113.0
30.8494 121.0
30.8592 119.0
30.8691 121.0
30.8789 120.0
30.8888 94.0
30.8986 109.0
30.9085 117.0
30.9183 124.0
30.9281 152.0
30.938 131.0
30.9478 132.0
30.9577 116.0
30.9675 123.0
30.9774 110.0
30.9872 121.0
30.9971 124.0
31.0069 107.0
31.0168 101.0
31.0266 112.0
31.0365 116.0
31.0463 124.0
31.0562 134.0
31.066 127.0
31.0759 120.0
31.0857 124.0
31.0956 131.0
31.1054 117.0
31.1153 114.0
31.1251 125.0
31.1349 122.0
31.1448 112.0
31.1546 120.0
31.1645 115.0
31.1743 141.0
31.1842 101.0
31.194 126.0
31.2039 125.0
31.2137 142.0
31.2236 110.0
31.2334 136.0
31.2433 124.0
31.2531 132.0
31.263 139.0
31.2728 127.0
31.2827 118.0
31.2925 130.0
31.3024 119.0
31.3122 122.0
31.3221 132.0
31.3319 125.0
31.3418 117.0
31.3516 97.0
31.3614 111.0
31.3713 124.0
31.3811 136.0
31.391 110.0
31.4008 113.0
31.4107 126.0
31.4205 126.0
31.4304 117.0
31.4402 116.0
31.4501 123.0
31.4599 114.0
31.4698 127.0
31.4796 134.0
31.4895 108.0
31.4993 137.0
31.5092 141.0
31.519 131.0
31.5289 120.0
31.5387 119.0
31.5486 110.0
31.5584 126.0
31.5682 129.0
31.5781 112.0
31.5879 125.0
31.5978 132.0
31.6076 135.0
31.6175 115.0
31.6273 123.0
31.6372 123.0
31.647 125.0
31.6569 111.0
31.6667 121.0
31.6766 115.0
31.6864 118.0
31.6963 118.0
31.7061 108.0
31.716 104.0
31.7258 121.0
31.7357 111.0
31.7455 124.0
31.7554 103.0
31.7652 128.0
31.7751 120.0
31.7849 113.0
31.7947 113.0
31.8046 137.0
31.8144 155.0
31.8243 118.0
31.8341 118.0
31.844 122.0
31.8538 131.0
31.8637 133.0
31.8735 108.0
31.8834 111.0
31.8932 117.0
31.9031 97.0
31.9129 117.0
31.9228 134.0
31.9326 117.0
31.9425 121.0
31.9523 127.0
31.9622 125.0
31.972 111.0
31.9819 125.0
31.9917 124.0
32.0015 105.0
32.0114 130.0
32.0212 99.0
32.0311 102.0
32.0409 110.0
32.0508 108.0
32.0606 127.0
32.0705 127.0
32.0803 139.0
32.0902 143.0
32.1 121.0
32.1099 107.0
32.1197 103.0
32.1296 120.0
32.1394 106.0
32.1493 113.0
32.1591 115.0
32.169 140.0
32.1788 123.0
32.1887 111.0
32.1985 112.0
32.2083 116.0
32.2182 131.0
32.228 109.0
32.2379 131.0
32.2477 116.0
32.2576 126.0
32.2674 132.0
32.2773 137.0
32.2871 133.0
32.297 132.0
32.3068 124.0
32.3167 125.0
32.3265 120.0
32.3364 99.0
32.3462 123.0
32.3561 140.0
32.3659 121.0
32.3758 144.0
32.3856 129.0
32.3955 133.0
32.4053 113.0
32.4152 122.0
32.425 144.0
32.4348 126.0
32.4447 111.0
32.4545 130.0
32.4644 122.0
32.4742 147.0
32.4841 128.0
32.4939 131.0
32.5038 132.0
32.5136 137.0
32.5235 116.0
32.5333 126.0
32.5432 138.0
32.553 126.0
32.5629 121.0
32.5727 118.0
32.5826 127.0
32.5924 119.0
32.6023 122.0
32.6121 129.0
32.622 110.0
32.6318 117.0
32.6416 106.0
32.6515 122.0
32.6613 117.0
32.6712 127.0
32.681 113.0
32.6909 125.0
32.7007 126.0
32.7106 141.0
32.7204 116.0
32.7303 113.0
32.7401 135.0
32.75 115.0
32.7598 122.0
32.7697 121.0
32.7795 100.0
32.7894 121.0
32.7992 117.0
32.8091 126.0
32.8189 128.0
32.8288 119.0
32.8386 115.0
32.8485 150.0
32.8583 114.0
32.8681 113.0
32.878 131.0
32.8878 119.0
32.8977 132.0
32.9075 117.0
32.9174 110.0
32.9272 119.0
32.9371 114.0
32.9469 110.0
32.9568 148.0
32.9666 121.0
32.9765 105.0
32.9863 132.0
32.9962 108.0
33.006 122.0
33.0159 125.0
33.0257 132.0
33.0356 104.0
33.0454 119.0
33.0553 89.0
33.0651 135.0
33.0749 114.0
33.0848 139.0
33.0946 126.0
33.1045 119.0
33.1143 144.0
33.1242 127.0
33.134 111.0
33.1439 134.0
33.1537 130.0
33.1636 117.0
33.1734 147.0
33.1833 117.0
33.1931 102.0
33.203 116.0
33.2128 128.0
33.2227 121.0
33.2325 128.0
33.2424 117.0
33.2522 132.0
33.2621 137.0
33.2719 124.0
33.2818 114.0
33.2916 128.0
33.3014 114.0
33.3113 119.0
33.3211 150.0
33.331 138.0
33.3408 129.0
33.3507 117.0
33.3605 121.0
33.3704 116.0
33.3802 118.0
33.3901 137.0
33.3999 131.0
33.4098 148.0
33.4196 106.0
33.4295 130.0
33.4393 123.0
33.4492 133.0
33.459 112.0
33.4689 108.0
33.4787 111.0
33.4886 130.0
33.4984 122.0
33.5082 114.0
33.5181 117.0
33.5279 115.0
33.5378 126.0
33.5476 115.0
33.5575 116.0
33.5673 132.0
33.5772 114.0
33.587 140.0
33.5969 136.0
33.6067 140.0
33.6166 128.0
33.6264 128.0
33.6363 134.0
33.6461 148.0
33.656 149.0
33.6658 169.0
33.6757 130.0
33.6855 146.0
33.6954 129.0
33.7052 141.0
33.715 119.0
33.7249 127.0
33.7347 137.0
33.7446 126.0
33.7544 130.0
33.7643 150.0
33.7741 143.0
33.784 154.0
33.7938 151.0
33.8037 128.0
33.8135 140.0
33.8234 146.0
33.8332 146.0
33.8431 183.0
33.8529 215.0
33.8628 287.0
33.8726 372.0
33.8825 570.0
33.8923 936.0
33.9022 1240.0
33.912 1376.0
33.9219 1404.0
33.9317 1231.0
33.9415 918.0
33.9514 567.0
33.9612 413.0
33.9711 318.0
33.9809 256.0
33.9908 175.0
34.0006 197.0
34.0105 184.0
34.0203 172.0
34.0302 185.0
34.04 158.0
34.0499 171.0
34.0597 145.0
34.0696 164.0
34.0794 149.0
34.0893 155.0
34.0991 131.0
34.109 144.0
34.1188 144.0
34.1287 145.0
34.1385 163.0
34.1483 142.0
34.1582 134.0
34.168 160.0
34.1779 149.0
34.1877 166.0
34.1976 160.0
34.2074 140.0
34.2173 146.0
34.2271 149.0
34.237 161.0
34.2468 135.0
34.2567 125.0
34.2665 126.0
34.2764 132.0
34.2862 144.0
34.2961 164.0
34.3059 133.0
34.3158 144.0
34.3256 139.0
34.3355 156.0
34.3453 149.0
34.3552 134.0
34.365 149.0
34.3748 141.0
34.3847 153.0
34.3945 155.0
34.4044 135.0
34.4142 168.0
34.4241 161.0
34.4339 146.0
34.4438 141.0
34.4536 150.0
34.4635 130.0
34.4733 158.0
34.4832 158.0
34.493 152.0
34.5029 146.0
34.5127 152.0
34.5226 137.0
34.5324 140.0
34.5423 169.0
34.5521 161.0
34.562 157.0
34.5718 156.0
34.5816 149.0
34.5915 148.0
34.6013 126.0
34.6112 136.0
34.621 140.0
34.6309 140.0
34.6407 140.0
34.6506 158.0
34.6604 148.0
34.6703 158.0
34.6801 179.0
34.69 144.0
34.6998 133.0
34.7097 154.0
34.7195 155.0
34.7294 157.0
34.7392 174.0
34.7491 171.0
34.7589 146.0
34.7688 159.0
34.7786 144.0
34.7884 147.0
34.7983 165.0
34.8081 137.0
34.818 136.0
34.8278 148.0
34.8377 154.0
34.8475 133.0
34.8574 149.0
34.8672 142.0
34.8771 120.0
34.8869 161.0
34.8968 172.0
34.9066 185.0
34.9165 141.0
34.9263 172.0
34.9362 166.0
34.946 143.0
34.9559 146.0
34.9657 188.0
34.9756 176.0
34.9854 173.0
34.9953 162.0
35.0051 171.0
35.0149 189.0
35.0248 174.0
35.0346 151.0
35.0445 176.0
35.0543 178.0
35.0642 163.0
35.074 172.0
35.0839 139.0
35.0937 163.0
35.1036 149.0
35.1134 174.0
35.1233 174.0
35.1331 197.0
35.143 184.0
35.1528 179.0
35.1627 181.0
35.1725 183.0
35.1824 167.0
35.1922 200.0
35.2021 173.0
35.2119 175.0
35.2217 188.0
35.2316 195.0
35.2414 184.0
35.2513 222.0
35.2611 197.0
35.271 208.0
35.2808 255.0
35.2907 230.0
35.3005 215.0
35.3104 211.0
35.3202 213.0
35.3301 215.0
35.3399 206.0
35.3498 229.0
35.3596 211.0
35.3695 221.0
35.3793 196.0
35.3892 225.0
35.399 259.0
35.4089 235.0
35.4187 215.0
35.4286 227.0
35.4384 245.0
35.4482 229.0
35.4581 272.0
35.4679 295.0
35.4778 297.0
35.4876 291.0
35.4975 314.0
35.5073 346.0
35.5172 347.0
35.527 318.0
35.5369 353.0
35.5467 361.0
35.5566 350.0
35.5664 390.0
35.5763 392.0
35.5861 378.0
35.596 423.0
35.6058 410.0
35.6157 409.0
35.6255 446.0
35.6354 412.0
35.6452 423.0
35.655 481.0
35.6649 441.0
35.6747 538.0
35.6846 533.0
35.6944 569.0
35.7043 653.0
35.7141 667.0
35.724 817.0
35.7338 892.0
35.7437 972.0
35.7535 1094.0
35.7634 1279.0
35.7732 1384.0
35.7831 1541.0
35.7929 1744.0
35.8028 1900.0
35.8126 2079.0
35.8225 2307.0
35.8323 2410.0
35.8422 2688.0
35.852 2924.0
35.8619 3181.0
35.8717 3305.0
35.8815 3525.0
35.8914 3608.0
35.9012 3868.0
35.9111 3979.0
35.9209 3963.0
35.9308 4260.0
35.9406 4309.0
35.9505 4293.0
35.9603 4332.0
35.9702 4369.0
35.98 4289.0
35.9899 4410.0
35.9997 4340.0
36.0096 4180.0
36.0194 4191.0
36.0293 3913.0
36.0391 3865.0
36.049 3714.0
36.0588 3630.0
36.0687 3378.0
36.0785 3160.0
36.0883 2965.0
36.0982 2755.0
36.108 2601.0
36.1179 2365.0
36.1277 2210.0
36.1376 1937.0
36.1474 1690.0
36.1573 1615.0
36.1671 1466.0
36.177 1299.0
36.1868 1207.0
36.1967 1061.0
36.2065 976.0
36.2164 892.0
36.2262 845.0
36.2361 788.0
36.2459 678.0
36.2558 619.0
36.2656 651.0
36.2755 553.0
36.2853 565.0
36.2951 531.0
36.305 545.0
36.3148 498.0
36.3247 471.0
36.3345 483.0
36.3444 498.0
36.3542 435.0
36.3641 429.0
36.3739 446.0
36.3838 438.0
36.3936 407.0
36.4035 430.0
36.4133 363.0
36.4232 382.0
36.433 387.0
36.4429 398.0
36.4527 389.0
36.4626 366.0
36.4724 352.0
36.4823 360.0
36.4921 335.0
36.502 305.0
36.5118 298.0
36.5216 316.0
36.5315 320.0
36.5413 347.0
36.5512 304.0
36.561 307.0
36.5709 321.0
36.5807 352.0
36.5906 317.0
36.6004 324.0
36.6103 313.0
36.6201 346.0
36.63 346.0
36.6398 310.0
36.6497 329.0
36.6595 346.0
36.6694 324.0
36.6792 324.0
36.6891 319.0
36.6989 334.0
36.7088 356.0
36.7186 325.0
36.7284 354.0
36.7383 321.0
36.7481 323.0
36.758 370.0
36.7678 342.0
36.7777 375.0
36.7875 361.0
36.7974 377.0
36.8072 375.0
36.8171 370.0
36.8269 371.0
36.8368 369.0
36.8466 413.0
36.8565 415.0
36.8663 414.0
36.8762 410.0
36.886 417.0
36.8959 412.0
36.9057 431.0
36.9156 435.0
36.9254 457.0
36.9353 498.0
36.9451 454.0
36.9549 429.0
36.9648 453.0
36.9746 465.0
36.9845 477.0
36.9943 467.0
37.0042 424.0
37.014 476.0
37.0239 459.0
37.0337 490.0
37.0436 518.0
37.0534 512.0
37.0633 549.0
37.0731 489.0
37.083 530.0
37.0928 495.0
37.1027 531.0
37.1125 559.0
37.1224 580.0
37.1322 532.0
37.1421 584.0
37.1519 574.0
37.1617 573.0
37.1716 588.0
37.1814 628.0
37.1913 670.0
37.2011 683.0
37.211 710.0
37.2208 723.0
37.2307 731.0
37.2405 707.0
37.2504 715.0
37.2602 752.0
37.2701 728.0
37.2799 787.0
37.2898 815.0
37.2996 838.0
37.3095 868.0
37.3193 957.0
37.3292 944.0
37.339 940.0
37.3489 996.0
37.3587 1064.0
37.3686 1128.0
37.3784 1124.0
37.3882 1149.0
37.3981 1207.0
37.4079 1304.0
37.4178 1305.0
37.4276 1399.0
37.4375 1536.0
37.4473 1759.0
37.4572 2058.0
37.467 2502.0
37.4769 3000.0
37.4867 3552.0
37.4966 4030.0
37.5064 4236.0
37.5163 4480.0
37.5261 4473.0
37.536 4485.0
37.5458 4622.0
37.5557 4633.0
37.5655 5015.0
37.5754 5804.0
37.5852 7029.0
37.595 9009.0
37.6049 11986.0
37.6147 17743.0
37.6246 29736.0
37.6344 63056.0
37.6443 157406.0
37.6541 255900.0
37.664 301511.0
37.6738 307639.0
37.6837 295122.0
37.6935 226299.0
37.7034 118178.0
37.7132 57002.0
37.7231 39252.0
37.7329 50965.0
37.7428 97542.0
37.7526 141569.0
37.7625 159579.0
37.7723 160551.0
37.7822 149740.0
37.792 106897.0
37.8018 52651.0
37.8117 24923.0
37.8215 14030.0
37.8314 9537.0
37.8412 7259.0
37.8511 5763.0
37.8609 4946.0
37.8708 4383.0
37.8806 3742.0
37.8905 3383.0
37.9003 2912.0
37.9102 2750.0
37.92 2557.0
37.9299 2367.0
37.9397 2139.0
37.9496 1995.0
37.9594 2004.0
37.9693 1871.0
37.9791 1698.0
37.989 1611.0
37.9988 1549.0
38.0087 1489.0
38.0185 1408.0
38.0283 1329.0
38.0382 1328.0
38.048 1233.0
38.0579 1273.0
38.0677 1259.0
38.0776 1079.0
38.0874 1084.0
38.0973 1034.0
38.1071 1013.0
38.117 980.0
38.1268 913.0
38.1367 923.0
38.1465 895.0
38.1564 897.0
38.1662 856.0
38.1761 843.0
38.1859 817.0
38.1958 797.0
38.2056 781.0
38.2155 737.0
38.2253 704.0
38.2351 716.0
38.245 720.0
38.2548 676.0
38.2647 686.0
38.2745 603.0
38.2844 614.0
38.2942 587.0
38.3041 545.0
38.3139 538.0
38.3238 532.0
38.3336 511.0
38.3435 525.0
38.3533 458.0
38.3632 482.0
38.373 513.0
38.3829 476.0
38.3927 482.0
38.4026 502.0
38.4124 455.0
38.4223 441.0
38.4321 424.0
38.442 428.0
38.4518 410.0
38.4616 398.0
38.4715 399.0
38.4813 396.0
38.4912 356.0
38.501 346.0
38.5109 376.0
38.5207 340.0
38.5306 356.0
38.5404 339.0
38.5503 289.0
38.5601 339.0
38.57 323.0
38.5798 296.0
38.5897 326.0
38.5995 299.0
38.6094 279.0
38.6192 288.0
38.6291 268.0
38.6389 281.0
38.6488 270.0
38.6586 269.0
38.6684 274.0
38.6783 274.0
38.6881 274.0
38.698 231.0
38.7078 256.0
38.7177 221.0
38.7275 215.0
38.7374 225.0
38.7472 272.0
38.7571 185.0
38.7669 181.0
38.7768 210.0
38.7866 194.0
38.7965 196.0
38.8063 197.0
38.8162 170.0
38.826 163.0
38.8359 199.0
38.8457 187.0
38.8556 191.0
38.8654 176.0
38.8753 180.0
38.8851 170.0
38.8949 163.0
38.9048 161.0
38.9146 159.0
38.9245 173.0
38.9343 176.0
38.9442 183.0
38.954 174.0
38.9639 186.0
38.9737 169.0
38.9836 180.0
38.9934 167.0
39.0033 185.0
39.0131 160.0
39.023 175.0
39.0328 166.0
39.0427 187.0
39.0525 162.0
39.0624 166.0
39.0722 142.0
39.0821 159.0
39.0919 153.0
39.1017 123.0
39.1116 156.0
39.1214 142.0
39.1313 147.0
39.1411 131.0
39.151 145.0
39.1608 177.0
39.1707 140.0
39.1805 162.0
39.1904 154.0
39.2002 155.0
39.2101 151.0
39.2199 151.0
39.2298 145.0
39.2396 153.0
39.2495 144.0
39.2593 145.0
39.2692 148.0
39.279 163.0
39.2889 147.0
39.2987 158.0
39.3085 145.0
39.3184 128.0
39.3282 150.0
39.3381 149.0
39.3479 148.0
39.3578 142.0
39.3676 138.0
39.3775 136.0
39.3873 164.0
39.3972 131.0
39.407 129.0
39.4169 141.0
39.4267 148.0
39.4366 169.0
39.4464 164.0
39.4563 135.0
39.4661 138.0
39.476 159.0
39.4858 144.0
39.4957 149.0
39.5055 138.0
39.5154 132.0
39.5252 153.0
39.535 127.0
39.5449 141.0
39.5547 155.0
39.5646 157.0
39.5744 155.0
39.5843 134.0
39.5941 141.0
39.604 159.0
39.6138 153.0
39.6237 128.0
39.6335 159.0
39.6434 143.0
39.6532 144.0
39.6631 151.0
39.6729 148.0
39.6828 143.0
39.6926 151.0
39.7025 125.0
39.7123 133.0
39.7222 120.0
39.732 139.0
39.7418 110.0
39.7517 144.0
39.7615 120.0
39.7714 147.0
39.7812 137.0
39.7911 137.0
39.8009 124.0
39.8108 137.0
39.8206 147.0
39.8305 132.0
39.8403 139.0
39.8502 138.0
39.86 156.0
39.8699 123.0
39.8797 134.0
39.8896 151.0
39.8994 131.0
39.9093 118.0
39.9191 123.0
39.929 121.0
39.9388 133.0
39.9487 126.0
39.9585 122.0
39.9683 140.0
39.9782 134.0
39.988 136.0
39.9979 150.0