File: data/W6900c/XRD_Omega/scan_omega_4deg_step_0.005deg0_C1_3.xy
17.53140 99.0
17.53640 118.0
17.54140 80.0
17.54640 103.0
17.55140 110.0
17.55640 85.0
17.56140 94.0
17.56640 104.0
17.57140 110.0
17.57640 92.0
17.58140 116.0
17.58640 84.0
17.59140 98.0
17.59640 103.0
17.60140 117.0
17.60640 107.0
17.61140 91.0
17.61640 108.0
17.62140 99.0
17.62640 95.0
17.63140 108.0
17.63640 97.0
17.64140 93.0
17.64640 108.0
17.65140 110.0
17.65640 99.0
17.66140 89.0
17.66640 103.0
17.67140 104.0
17.67640 106.0
17.68140 96.0
17.68640 80.0
17.69140 102.0
17.69640 117.0
17.70140 97.0
17.70640 108.0
17.71140 103.0
17.71640 103.0
17.72140 108.0
17.72640 85.0
17.73140 104.0
17.73640 87.0
17.74140 103.0
17.74640 104.0
17.75140 92.0
17.75640 109.0
17.76140 116.0
17.76640 118.0
17.77140 99.0
17.77640 81.0
17.78140 89.0
17.78640 111.0
17.79140 94.0
17.79640 111.0
17.80140 86.0
17.80640 96.0
17.81140 94.0
17.81640 113.0
17.82140 98.0
17.82640 110.0
17.83140 96.0
17.83640 116.0
17.84140 140.0
17.84640 102.0
17.85140 112.0
17.85640 94.0
17.86140 109.0
17.86640 102.0
17.87140 98.0
17.87640 97.0
17.88140 101.0
17.88640 108.0
17.89140 100.0
17.89640 106.0
17.90140 100.0
17.90640 94.0
17.91140 111.0
17.91640 99.0
17.92140 123.0
17.92640 110.0
17.93140 106.0
17.93640 101.0
17.94140 114.0
17.94640 116.0
17.95140 108.0
17.95640 105.0
17.96140 94.0
17.96640 113.0
17.97140 111.0
17.97640 100.0
17.98140 115.0
17.98640 103.0
17.99140 109.0
17.99640 93.0
18.00140 107.0
18.00640 114.0
18.01140 114.0
18.01640 107.0
18.02140 114.0
18.02640 113.0
18.03140 102.0
18.03640 106.0
18.04140 108.0
18.04640 92.0
18.05140 119.0
18.05640 110.0
18.06140 99.0
18.06640 112.0
18.07140 113.0
18.07640 84.0
18.08140 89.0
18.08640 115.0
18.09140 83.0
18.09640 103.0
18.10140 125.0
18.10640 113.0
18.11140 113.0
18.11640 89.0
18.12140 106.0
18.12640 107.0
18.13140 97.0
18.13640 99.0
18.14140 102.0
18.14640 115.0
18.15140 118.0
18.15640 128.0
18.16140 125.0
18.16640 125.0
18.17140 125.0
18.17640 122.0
18.18140 92.0
18.18640 117.0
18.19140 110.0
18.19640 113.0
18.20140 101.0
18.20640 113.0
18.21140 92.0
18.21640 106.0
18.22140 109.0
18.22640 111.0
18.23140 109.0
18.23640 118.0
18.24140 108.0
18.24640 112.0
18.25140 116.0
18.25640 121.0
18.26140 128.0
18.26640 98.0
18.27140 136.0
18.27640 127.0
18.28140 103.0
18.28640 122.0
18.29140 127.0
18.29640 116.0
18.30140 120.0
18.30640 120.0
18.31140 118.0
18.31640 117.0
18.32140 120.0
18.32640 105.0
18.33140 106.0
18.33640 127.0
18.34140 121.0
18.34640 126.0
18.35140 113.0
18.35640 131.0
18.36140 132.0
18.36640 104.0
18.37140 132.0
18.37640 134.0
18.38140 113.0
18.38640 110.0
18.39140 143.0
18.39640 111.0
18.40140 121.0
18.40640 129.0
18.41140 122.0
18.41640 132.0
18.42140 116.0
18.42640 125.0
18.43140 124.0
18.43640 134.0
18.44140 139.0
18.44640 121.0
18.45140 119.0
18.45640 123.0
18.46140 120.0
18.46640 159.0
18.47140 117.0
18.47640 137.0
18.48140 132.0
18.48640 114.0
18.49140 128.0
18.49640 149.0
18.50140 133.0
18.50640 132.0
18.51140 127.0
18.51640 121.0
18.52140 135.0
18.52640 118.0
18.53140 120.0
18.53640 129.0
18.54140 144.0
18.54640 132.0
18.55140 131.0
18.55640 162.0
18.56140 112.0
18.56640 140.0
18.57140 146.0
18.57640 128.0
18.58140 150.0
18.58640 145.0
18.59140 145.0
18.59640 154.0
18.60140 135.0
18.60640 146.0
18.61140 131.0
18.61640 138.0
18.62140 155.0
18.62640 133.0
18.63140 144.0
18.63640 142.0
18.64140 142.0
18.64640 146.0
18.65140 164.0
18.65640 144.0
18.66140 148.0
18.66640 173.0
18.67140 135.0
18.67640 150.0
18.68140 135.0
18.68640 147.0
18.69140 153.0
18.69640 153.0
18.70140 152.0
18.70640 148.0
18.71140 129.0
18.71640 168.0
18.72140 157.0
18.72640 175.0
18.73140 152.0
18.73640 174.0
18.74140 182.0
18.74640 141.0
18.75140 156.0
18.75640 147.0
18.76140 162.0
18.76640 132.0
18.77140 174.0
18.77640 174.0
18.78140 164.0
18.78640 158.0
18.79140 150.0
18.79640 156.0
18.80140 174.0
18.80640 158.0
18.81140 166.0
18.81640 159.0
18.82140 144.0
18.82640 159.0
18.83140 153.0
18.83640 150.0
18.84140 172.0
18.84640 147.0
18.85140 155.0
18.85640 163.0
18.86140 180.0
18.86640 157.0
18.87140 164.0
18.87640 154.0
18.88140 165.0
18.88640 191.0
18.89140 164.0
18.89640 180.0
18.90140 186.0
18.90640 149.0
18.91140 187.0
18.91640 176.0
18.92140 172.0
18.92640 168.0
18.93140 173.0
18.93640 167.0
18.94140 185.0
18.94640 170.0
18.95140 179.0
18.95640 181.0
18.96140 166.0
18.96640 166.0
18.97140 173.0
18.97640 188.0
18.98140 173.0
18.98640 197.0
18.99140 188.0
18.99640 187.0
19.00140 183.0
19.00640 162.0
19.01140 189.0
19.01640 175.0
19.02140 162.0
19.02640 167.0
19.03140 183.0
19.03640 188.0
19.04140 222.0
19.04640 181.0
19.05140 191.0
19.05640 187.0
19.06140 166.0
19.06640 182.0
19.07140 197.0
19.07640 201.0
19.08140 199.0
19.08640 192.0
19.09140 205.0
19.09640 174.0
19.10140 228.0
19.10640 206.0
19.11140 190.0
19.11640 196.0
19.12140 180.0
19.12640 200.0
19.13140 221.0
19.13640 215.0
19.14140 158.0
19.14640 201.0
19.15140 213.0
19.15640 198.0
19.16140 202.0
19.16640 211.0
19.17140 181.0
19.17640 196.0
19.18140 205.0
19.18640 185.0
19.19140 222.0
19.19640 234.0
19.20140 189.0
19.20640 217.0
19.21140 198.0
19.21640 227.0
19.22140 234.0
19.22640 195.0
19.23140 205.0
19.23640 201.0
19.24140 196.0
19.24640 214.0
19.25140 207.0
19.25640 224.0
19.26140 218.0
19.26640 224.0
19.27140 211.0
19.27640 203.0
19.28140 204.0
19.28640 220.0
19.29140 207.0
19.29640 189.0
19.30140 217.0
19.30640 203.0
19.31140 205.0
19.31640 199.0
19.32140 232.0
19.32640 222.0
19.33140 195.0
19.33640 216.0
19.34140 190.0
19.34640 186.0
19.35140 201.0
19.35640 218.0
19.36140 219.0
19.36640 225.0
19.37140 214.0
19.37640 238.0
19.38140 201.0
19.38640 229.0
19.39140 221.0
19.39640 201.0
19.40140 225.0
19.40640 230.0
19.41140 209.0
19.41640 219.0
19.42140 222.0
19.42640 221.0
19.43140 202.0
19.43640 223.0
19.44140 220.0
19.44640 194.0
19.45140 213.0
19.45640 240.0
19.46140 233.0
19.46640 214.0
19.47140 207.0
19.47640 247.0
19.48140 253.0
19.48640 231.0
19.49140 202.0
19.49640 226.0
19.50140 230.0
19.50640 213.0
19.51140 218.0
19.51640 250.0
19.52140 218.0
19.52640 216.0
19.53140 238.0
19.53640 241.0
19.54140 239.0
19.54640 260.0
19.55140 243.0
19.55640 230.0
19.56140 242.0
19.56640 240.0
19.57140 206.0
19.57640 233.0
19.58140 232.0
19.58640 236.0
19.59140 258.0
19.59640 224.0
19.60140 244.0
19.60640 236.0
19.61140 241.0
19.61640 217.0
19.62140 237.0
19.62640 227.0
19.63140 218.0
19.63640 236.0
19.64140 226.0
19.64640 244.0
19.65140 215.0
19.65640 226.0
19.66140 238.0
19.66640 258.0
19.67140 244.0
19.67640 253.0
19.68140 251.0
19.68640 244.0
19.69140 247.0
19.69640 219.0
19.70140 244.0
19.70640 225.0
19.71140 215.0
19.71640 210.0
19.72140 215.0
19.72640 230.0
19.73140 215.0
19.73640 199.0
19.74140 222.0
19.74640 228.0
19.75140 215.0
19.75640 204.0
19.76140 190.0
19.76640 233.0
19.77140 219.0
19.77640 191.0
19.78140 208.0
19.78640 218.0
19.79140 223.0
19.79640 191.0
19.80140 190.0
19.80640 236.0
19.81140 202.0
19.81640 208.0
19.82140 233.0
19.82640 197.0
19.83140 194.0
19.83640 203.0
19.84140 207.0
19.84640 222.0
19.85140 198.0
19.85640 216.0
19.86140 193.0
19.86640 203.0
19.87140 192.0
19.87640 216.0
19.88140 211.0
19.88640 208.0
19.89140 202.0
19.89640 218.0
19.90140 220.0
19.90640 211.0
19.91140 183.0
19.91640 179.0
19.92140 218.0
19.92640 183.0
19.93140 214.0
19.93640 186.0
19.94140 186.0
19.94640 166.0
19.95140 232.0
19.95640 182.0
19.96140 191.0
19.96640 197.0
19.97140 198.0
19.97640 180.0
19.98140 188.0
19.98640 201.0
19.99140 208.0
19.99640 183.0
20.00140 208.0
20.00640 199.0
20.01140 182.0
20.01640 217.0
20.02140 175.0
20.02640 177.0
20.03140 195.0
20.03640 187.0
20.04140 161.0
20.04640 184.0
20.05140 163.0
20.05640 175.0
20.06140 187.0
20.06640 190.0
20.07140 203.0
20.07640 198.0
20.08140 193.0
20.08640 190.0
20.09140 173.0
20.09640 187.0
20.10140 175.0
20.10640 186.0
20.11140 189.0
20.11640 161.0
20.12140 186.0
20.12640 185.0
20.13140 167.0
20.13640 191.0
20.14140 185.0
20.14640 190.0
20.15140 171.0
20.15640 184.0
20.16140 185.0
20.16640 163.0
20.17140 173.0
20.17640 175.0
20.18140 156.0
20.18640 174.0
20.19140 173.0
20.19640 161.0
20.20140 148.0
20.20640 163.0
20.21140 157.0
20.21640 184.0
20.22140 169.0
20.22640 197.0
20.23140 155.0
20.23640 176.0
20.24140 159.0
20.24640 158.0
20.25140 127.0
20.25640 161.0
20.26140 170.0
20.26640 190.0
20.27140 164.0
20.27640 162.0
20.28140 140.0
20.28640 162.0
20.29140 179.0
20.29640 169.0
20.30140 136.0
20.30640 170.0
20.31140 155.0
20.31640 179.0
20.32140 170.0
20.32640 150.0
20.33140 143.0
20.33640 131.0
20.34140 166.0
20.34640 151.0
20.35140 170.0
20.35640 138.0
20.36140 145.0
20.36640 162.0
20.37140 154.0
20.37640 143.0
20.38140 185.0
20.38640 142.0
20.39140 140.0
20.39640 165.0
20.40140 123.0
20.40640 155.0
20.41140 134.0
20.41640 150.0
20.42140 137.0
20.42640 139.0
20.43140 135.0
20.43640 141.0
20.44140 154.0
20.44640 144.0
20.45140 142.0
20.45640 126.0
20.46140 132.0
20.46640 141.0
20.47140 139.0
20.47640 132.0
20.48140 136.0
20.48640 143.0
20.49140 134.0
20.49640 164.0
20.50140 130.0
20.50640 136.0
20.51140 140.0
20.51640 128.0
20.52140 131.0
20.52640 116.0
20.53140 120.0
20.53640 148.0
20.54140 129.0
20.54640 134.0
20.55140 142.0
20.55640 136.0
20.56140 136.0
20.56640 130.0
20.57140 130.0
20.57640 122.0
20.58140 140.0
20.58640 118.0
20.59140 136.0
20.59640 121.0
20.60140 120.0
20.60640 114.0
20.61140 129.0
20.61640 119.0
20.62140 137.0
20.62640 149.0
20.63140 112.0
20.63640 109.0
20.64140 121.0
20.64640 108.0
20.65140 116.0
20.65640 106.0
20.66140 108.0
20.66640 129.0
20.67140 114.0
20.67640 126.0
20.68140 113.0
20.68640 123.0
20.69140 109.0
20.69640 103.0
20.70140 111.0
20.70640 107.0
20.71140 128.0
20.71640 127.0
20.72140 125.0
20.72640 110.0
20.73140 101.0
20.73640 120.0
20.74140 123.0
20.74640 110.0
20.75140 101.0
20.75640 110.0
20.76140 95.0
20.76640 109.0
20.77140 125.0
20.77640 115.0
20.78140 119.0
20.78640 98.0
20.79140 98.0
20.79640 116.0
20.80140 118.0
20.80640 118.0
20.81140 113.0
20.81640 101.0
20.82140 103.0
20.82640 98.0
20.83140 107.0
20.83640 109.0
20.84140 110.0
20.84640 112.0
20.85140 114.0
20.85640 110.0
20.86140 88.0
20.86640 112.0
20.87140 119.0
20.87640 94.0
20.88140 113.0
20.88640 117.0
20.89140 118.0
20.89640 104.0
20.90140 104.0
20.90640 104.0
20.91140 109.0
20.91640 116.0
20.92140 100.0
20.92640 104.0
20.93140 89.0
20.93640 105.0
20.94140 116.0
20.94640 105.0
20.95140 105.0
20.95640 98.0
20.96140 99.0
20.96640 120.0
20.97140 102.0
20.97640 99.0
20.98140 93.0
20.98640 82.0
20.99140 94.0
20.99640 106.0
21.00140 98.0
21.00640 109.0
21.01140 86.0
21.01640 79.0
21.02140 87.0
21.02640 83.0
21.03140 101.0
21.03640 101.0
21.04140 108.0
21.04640 110.0
21.05140 86.0
21.05640 103.0
21.06140 109.0
21.06640 114.0
21.07140 98.0
21.07640 71.0
21.08140 104.0
21.08640 89.0
21.09140 86.0
21.09640 88.0
21.10140 99.0
21.10640 102.0
21.11140 100.0
21.11640 73.0
21.12140 95.0
21.12640 76.0
21.13140 90.0
21.13640 100.0
21.14140 95.0
21.14640 88.0
21.15140 107.0
21.15640 109.0
21.16140 86.0
21.16640 95.0
21.17140 89.0
21.17640 109.0
21.18140 82.0
21.18640 97.0
21.19140 92.0
21.19640 98.0
21.20140 95.0
21.20640 101.0
21.21140 76.0
21.21640 94.0
21.22140 84.0
21.22640 88.0
21.23140 83.0
21.23640 98.0
21.24140 112.0
21.24640 92.0
21.25140 84.0
21.25640 85.0
21.26140 79.0
21.26640 65.0
21.27140 89.0
21.27640 85.0
21.28140 80.0
21.28640 70.0
21.29140 91.0
21.29640 92.0
21.30140 94.0
21.30640 84.0
21.31140 89.0
21.31640 87.0
21.32140 79.0
21.32640 85.0
21.33140 79.0
21.33640 101.0
21.34140 87.0
21.34640 83.0
21.35140 88.0
21.35640 90.0
21.36140 95.0
21.36640 84.0
21.37140 83.0
21.37640 72.0
21.38140 96.0
21.38640 85.0
21.39140 80.0
21.39640 89.0
21.40140 71.0
21.40640 100.0
21.41140 85.0
21.41640 80.0
21.42140 78.0
21.42640 86.0
21.43140 72.0
21.43640 71.0
21.44140 80.0
21.44640 78.0
21.45140 80.0
21.45640 78.0
21.46140 75.0
21.46640 81.0
21.47140 96.0
21.47640 66.0
21.48140 80.0
21.48640 85.0
21.49140 82.0