File: data/W6817r/XRD_Omega/w6817r_scan_omega.xy
23.67630 37.0
23.68130 33.0
23.68630 33.0
23.69130 47.0
23.69630 41.0
23.70130 31.0
23.70630 38.0
23.71130 50.0
23.71630 38.0
23.72130 43.0
23.72630 42.0
23.73130 38.0
23.73630 31.0
23.74130 43.0
23.74630 36.0
23.75130 36.0
23.75630 37.0
23.76130 42.0
23.76630 39.0
23.77130 39.0
23.77630 36.0
23.78130 35.0
23.78630 39.0
23.79130 42.0
23.79630 44.0
23.80130 36.0
23.80630 36.0
23.81130 39.0
23.81630 41.0
23.82130 43.0
23.82630 60.0
23.83130 35.0
23.83630 44.0
23.84130 49.0
23.84630 45.0
23.85130 33.0
23.85630 58.0
23.86130 44.0
23.86630 42.0
23.87130 49.0
23.87630 41.0
23.88130 43.0
23.88630 42.0
23.89130 51.0
23.89630 49.0
23.90130 33.0
23.90630 38.0
23.91130 32.0
23.91630 32.0
23.92130 41.0
23.92630 49.0
23.93130 45.0
23.93630 30.0
23.94130 44.0
23.94630 48.0
23.95130 55.0
23.95630 39.0
23.96130 54.0
23.96630 37.0
23.97130 47.0
23.97630 42.0
23.98130 37.0
23.98630 40.0
23.99130 37.0
23.99630 60.0
24.00130 41.0
24.00630 51.0
24.01130 37.0
24.01630 49.0
24.02130 57.0
24.02630 37.0
24.03130 51.0
24.03630 49.0
24.04130 42.0
24.04630 63.0
24.05130 43.0
24.05630 49.0
24.06130 46.0
24.06630 52.0
24.07130 68.0
24.07630 38.0
24.08130 62.0
24.08630 51.0
24.09130 53.0
24.09630 41.0
24.10130 43.0
24.10630 46.0
24.11130 60.0
24.11630 45.0
24.12130 50.0
24.12630 49.0
24.13130 51.0
24.13630 47.0
24.14130 51.0
24.14630 56.0
24.15130 48.0
24.15630 53.0
24.16130 36.0
24.16630 55.0
24.17130 46.0
24.17630 42.0
24.18130 57.0
24.18630 58.0
24.19130 51.0
24.19630 51.0
24.20130 57.0
24.20630 71.0
24.21130 54.0
24.21630 65.0
24.22130 59.0
24.22630 52.0
24.23130 59.0
24.23630 55.0
24.24130 64.0
24.24630 51.0
24.25130 65.0
24.25630 58.0
24.26130 61.0
24.26630 64.0
24.27130 59.0
24.27630 59.0
24.28130 60.0
24.28630 77.0
24.29130 78.0
24.29630 63.0
24.30130 59.0
24.30630 59.0
24.31130 62.0
24.31630 64.0
24.32130 59.0
24.32630 56.0
24.33130 67.0
24.33630 55.0
24.34130 58.0
24.34630 74.0
24.35130 68.0
24.35630 75.0
24.36130 71.0
24.36630 47.0
24.37130 57.0
24.37630 46.0
24.38130 90.0
24.38630 51.0
24.39130 89.0
24.39630 72.0
24.40130 71.0
24.40630 62.0
24.41130 69.0
24.41630 79.0
24.42130 86.0
24.42630 64.0
24.43130 72.0
24.43630 69.0
24.44130 58.0
24.44630 76.0
24.45130 78.0
24.45630 87.0
24.46130 81.0
24.46630 79.0
24.47130 74.0
24.47630 73.0
24.48130 80.0
24.48630 90.0
24.49130 87.0
24.49630 89.0
24.50130 80.0
24.50630 83.0
24.51130 87.0
24.51630 104.0
24.52130 87.0
24.52630 93.0
24.53130 99.0
24.53630 98.0
24.54130 91.0
24.54630 91.0
24.55130 100.0
24.55630 105.0
24.56130 116.0
24.56630 102.0
24.57130 95.0
24.57630 104.0
24.58130 134.0
24.58630 112.0
24.59130 117.0
24.59630 112.0
24.60130 106.0
24.60630 122.0
24.61130 117.0
24.61630 107.0
24.62130 129.0
24.62630 114.0
24.63130 130.0
24.63630 135.0
24.64130 107.0
24.64630 135.0
24.65130 137.0
24.65630 139.0
24.66130 126.0
24.66630 147.0
24.67130 181.0
24.67630 164.0
24.68130 163.0
24.68630 170.0
24.69130 185.0
24.69630 183.0
24.70130 167.0
24.70630 167.0
24.71130 199.0
24.71630 198.0
24.72130 192.0
24.72630 181.0
24.73130 174.0
24.73630 193.0
24.74130 181.0
24.74630 205.0
24.75130 226.0
24.75630 197.0
24.76130 185.0
24.76630 203.0
24.77130 238.0
24.77630 204.0
24.78130 185.0
24.78630 194.0
24.79130 204.0
24.79630 204.0
24.80130 218.0
24.80630 210.0
24.81130 234.0
24.81630 214.0
24.82130 252.0
24.82630 210.0
24.83130 250.0
24.83630 243.0
24.84130 234.0
24.84630 254.0
24.85130 239.0
24.85630 254.0
24.86130 242.0
24.86630 230.0
24.87130 257.0
24.87630 249.0
24.88130 245.0
24.88630 261.0
24.89130 287.0
24.89630 284.0
24.90130 269.0
24.90630 242.0
24.91130 268.0
24.91630 291.0
24.92130 274.0
24.92630 265.0
24.93130 269.0
24.93630 244.0
24.94130 255.0
24.94630 239.0
24.95130 254.0
24.95630 250.0
24.96130 231.0
24.96630 230.0
24.97130 269.0
24.97630 274.0
24.98130 249.0
24.98630 256.0
24.99130 266.0
24.99630 282.0
25.00130 289.0
25.00630 266.0
25.01130 267.0
25.01630 275.0
25.02130 278.0
25.02630 272.0
25.03130 264.0
25.03630 284.0
25.04130 279.0
25.04630 291.0
25.05130 298.0
25.05630 317.0
25.06130 316.0
25.06630 319.0
25.07130 318.0
25.07630 307.0
25.08130 301.0
25.08630 338.0
25.09130 282.0
25.09630 333.0
25.10130 316.0
25.10630 313.0
25.11130 333.0
25.11630 330.0
25.12130 330.0
25.12630 344.0
25.13130 339.0
25.13630 317.0
25.14130 349.0
25.14630 348.0
25.15130 372.0
25.15630 336.0
25.16130 362.0
25.16630 344.0
25.17130 368.0
25.17630 355.0
25.18130 316.0
25.18630 371.0
25.19130 368.0
25.19630 373.0
25.20130 358.0
25.20630 413.0
25.21130 365.0
25.21630 415.0
25.22130 383.0
25.22630 363.0
25.23130 374.0
25.23630 363.0
25.24130 373.0
25.24630 404.0
25.25130 408.0
25.25630 476.0
25.26130 393.0
25.26630 416.0
25.27130 433.0
25.27630 422.0
25.28130 420.0
25.28630 442.0
25.29130 416.0
25.29630 416.0
25.30130 450.0
25.30630 432.0
25.31130 448.0
25.31630 462.0
25.32130 403.0
25.32630 447.0
25.33130 441.0
25.33630 424.0
25.34130 437.0
25.34630 448.0
25.35130 430.0
25.35630 439.0
25.36130 412.0
25.36630 441.0
25.37130 429.0
25.37630 444.0
25.38130 468.0
25.38630 475.0
25.39130 475.0
25.39630 450.0
25.40130 474.0
25.40630 461.0
25.41130 461.0
25.41630 499.0
25.42130 484.0
25.42630 478.0
25.43130 461.0
25.43630 490.0
25.44130 475.0
25.44630 445.0
25.45130 515.0
25.45630 475.0
25.46130 475.0
25.46630 493.0
25.47130 503.0
25.47630 525.0
25.48130 491.0
25.48630 547.0
25.49130 442.0
25.49630 541.0
25.50130 506.0
25.50630 516.0
25.51130 487.0
25.51630 475.0
25.52130 515.0
25.52630 484.0
25.53130 498.0
25.53630 506.0
25.54130 516.0
25.54630 494.0
25.55130 546.0
25.55630 505.0
25.56130 551.0
25.56630 503.0
25.57130 488.0
25.57630 541.0
25.58130 522.0
25.58630 506.0
25.59130 508.0
25.59630 529.0
25.60130 488.0
25.60630 514.0
25.61130 498.0
25.61630 535.0
25.62130 473.0
25.62630 522.0
25.63130 561.0
25.63630 509.0
25.64130 510.0
25.64630 497.0
25.65130 481.0
25.65630 511.0
25.66130 510.0
25.66630 532.0
25.67130 479.0
25.67630 498.0
25.68130 534.0
25.68630 545.0
25.69130 519.0
25.69630 543.0
25.70130 550.0
25.70630 500.0
25.71130 475.0
25.71630 516.0
25.72130 479.0
25.72630 490.0
25.73130 510.0
25.73630 532.0
25.74130 503.0
25.74630 533.0
25.75130 499.0
25.75630 489.0
25.76130 512.0
25.76630 500.0
25.77130 524.0
25.77630 472.0
25.78130 496.0
25.78630 523.0
25.79130 465.0
25.79630 463.0
25.80130 515.0
25.80630 475.0
25.81130 507.0
25.81630 495.0
25.82130 507.0
25.82630 460.0
25.83130 456.0
25.83630 502.0
25.84130 483.0
25.84630 485.0
25.85130 499.0
25.85630 481.0
25.86130 479.0
25.86630 454.0
25.87130 446.0
25.87630 443.0
25.88130 475.0
25.88630 465.0
25.89130 462.0
25.89630 466.0
25.90130 470.0
25.90630 450.0
25.91130 442.0
25.91630 446.0
25.92130 420.0
25.92630 421.0
25.93130 449.0
25.93630 434.0
25.94130 420.0
25.94630 402.0
25.95130 403.0
25.95630 406.0
25.96130 450.0
25.96630 430.0
25.97130 411.0
25.97630 391.0
25.98130 407.0
25.98630 390.0
25.99130 389.0
25.99630 395.0
26.00130 417.0
26.00630 374.0
26.01130 454.0
26.01630 365.0
26.02130 370.0
26.02630 416.0
26.03130 346.0
26.03630 407.0
26.04130 348.0
26.04630 345.0
26.05130 370.0
26.05630 348.0
26.06130 405.0
26.06630 354.0
26.07130 370.0
26.07630 353.0
26.08130 356.0
26.08630 324.0
26.09130 317.0
26.09630 344.0
26.10130 346.0
26.10630 335.0
26.11130 345.0
26.11630 333.0
26.12130 364.0
26.12630 316.0
26.13130 318.0
26.13630 319.0
26.14130 276.0
26.14630 331.0
26.15130 335.0
26.15630 311.0
26.16130 275.0
26.16630 269.0
26.17130 293.0
26.17630 276.0
26.18130 298.0
26.18630 268.0
26.19130 285.0
26.19630 306.0
26.20130 259.0
26.20630 293.0
26.21130 277.0
26.21630 267.0
26.22130 241.0
26.22630 240.0
26.23130 240.0
26.23630 238.0
26.24130 248.0
26.24630 257.0
26.25130 255.0
26.25630 279.0
26.26130 243.0
26.26630 253.0
26.27130 263.0
26.27630 259.0
26.28130 244.0
26.28630 217.0
26.29130 229.0
26.29630 245.0
26.30130 209.0
26.30630 260.0
26.31130 225.0
26.31630 225.0
26.32130 208.0
26.32630 224.0
26.33130 243.0
26.33630 213.0
26.34130 220.0
26.34630 197.0
26.35130 192.0
26.35630 184.0
26.36130 205.0
26.36630 192.0
26.37130 181.0
26.37630 183.0
26.38130 191.0
26.38630 185.0
26.39130 175.0
26.39630 154.0
26.40130 196.0
26.40630 171.0
26.41130 161.0
26.41630 160.0
26.42130 152.0
26.42630 176.0
26.43130 169.0
26.43630 179.0
26.44130 144.0
26.44630 161.0
26.45130 134.0
26.45630 152.0
26.46130 167.0
26.46630 151.0
26.47130 145.0
26.47630 153.0
26.48130 142.0
26.48630 139.0
26.49130 134.0
26.49630 147.0
26.50130 155.0
26.50630 143.0
26.51130 141.0
26.51630 143.0
26.52130 144.0
26.52630 120.0
26.53130 126.0
26.53630 150.0
26.54130 137.0
26.54630 136.0
26.55130 131.0
26.55630 135.0
26.56130 122.0
26.56630 110.0
26.57130 133.0
26.57630 114.0
26.58130 115.0
26.58630 127.0
26.59130 106.0
26.59630 107.0
26.60130 108.0
26.60630 113.0
26.61130 123.0
26.61630 105.0
26.62130 98.0
26.62630 104.0
26.63130 110.0
26.63630 99.0
26.64130 101.0
26.64630 95.0
26.65130 102.0
26.65630 92.0
26.66130 90.0
26.66630 90.0
26.67130 89.0
26.67630 86.0
26.68130 94.0
26.68630 97.0
26.69130 91.0
26.69630 89.0
26.70130 81.0
26.70630 98.0
26.71130 88.0
26.71630 74.0
26.72130 73.0
26.72630 90.0
26.73130 69.0
26.73630 86.0
26.74130 90.0
26.74630 63.0
26.75130 80.0
26.75630 79.0
26.76130 72.0
26.76630 70.0
26.77130 59.0
26.77630 80.0
26.78130 71.0
26.78630 61.0
26.79130 82.0
26.79630 76.0
26.80130 64.0
26.80630 66.0
26.81130 66.0
26.81630 67.0
26.82130 66.0
26.82630 55.0
26.83130 60.0
26.83630 54.0
26.84130 61.0
26.84630 58.0
26.85130 63.0
26.85630 75.0
26.86130 51.0
26.86630 46.0
26.87130 56.0
26.87630 69.0
26.88130 62.0
26.88630 60.0
26.89130 48.0
26.89630 61.0
26.90130 58.0
26.90630 55.0
26.91130 55.0
26.91630 54.0
26.92130 59.0
26.92630 69.0
26.93130 51.0
26.93630 54.0
26.94130 51.0
26.94630 52.0
26.95130 57.0
26.95630 47.0
26.96130 48.0
26.96630 47.0
26.97130 51.0
26.97630 59.0
26.98130 50.0
26.98630 53.0
26.99130 47.0
26.99630 49.0
27.00130 47.0
27.00630 51.0
27.01130 43.0
27.01630 39.0
27.02130 48.0
27.02630 58.0
27.03130 53.0
27.03630 54.0
27.04130 44.0
27.04630 47.0
27.05130 63.0
27.05630 36.0
27.06130 41.0
27.06630 36.0
27.07130 61.0
27.07630 43.0
27.08130 57.0
27.08630 44.0
27.09130 47.0
27.09630 38.0
27.10130 54.0
27.10630 55.0
27.11130 52.0
27.11630 43.0
27.12130 42.0
27.12630 53.0
27.13130 38.0
27.13630 30.0
27.14130 44.0
27.14630 43.0
27.15130 41.0
27.15630 48.0
27.16130 38.0
27.16630 48.0
27.17130 32.0
27.17630 40.0
27.18130 37.0
27.18630 35.0
27.19130 35.0
27.19630 32.0
27.20130 36.0
27.20630 38.0
27.21130 46.0
27.21630 42.0
27.22130 45.0
27.22630 40.0
27.23130 40.0
27.23630 46.0
27.24130 42.0
27.24630 41.0
27.25130 35.0
27.25630 42.0
27.26130 42.0
27.26630 41.0
27.27130 41.0
27.27630 40.0
27.28130 37.0
27.28630 36.0
27.29130 41.0
27.29630 36.0
27.30130 38.0
27.30630 40.0
27.31130 39.0
27.31630 51.0
27.32130 40.0
27.32630 41.0
27.33130 37.0
27.33630 41.0
27.34130 40.0
27.34630 38.0
27.35130 45.0
27.35630 41.0
27.36130 50.0
27.36630 35.0
27.37130 33.0
27.37630 41.0
27.38130 45.0
27.38630 35.0
27.39130 36.0
27.39630 35.0
27.40130 36.0
27.40630 38.0
27.41130 36.0
27.41630 37.0
27.42130 31.0
27.42630 29.0
27.43130 38.0
27.43630 38.0
27.44130 46.0
27.44630 39.0
27.45130 33.0
27.45630 25.0
27.46130 34.0
27.46630 32.0
27.47130 30.0
27.47630 38.0
27.48130 27.0
27.48630 49.0
27.49130 37.0
27.49630 35.0
27.50130 44.0
27.50630 32.0
27.51130 35.0
27.51630 36.0
27.52130 39.0
27.52630 47.0
27.53130 31.0
27.53630 34.0
27.54130 34.0
27.54630 36.0
27.55130 29.0
27.55630 36.0
27.56130 32.0
27.56630 45.0
27.57130 36.0
27.57630 44.0
27.58130 40.0
27.58630 39.0
27.59130 39.0
27.59630 40.0
27.60130 37.0
27.60630 35.0
27.61130 29.0
27.61630 23.0
27.62130 33.0
27.62630 41.0
27.63130 30.0
27.63630 33.0
27.64130 41.0
27.64630 31.0
27.65130 37.0
27.65630 37.0