File: data/W6908a/XRD_Omega/scan_omega_4deg_step_0.005deg0_C9_1.xy
15.87720 50.0
15.88220 59.0
15.88720 53.0
15.89220 52.0
15.89720 56.0
15.90220 51.0
15.90720 49.0
15.91220 43.0
15.91720 59.0
15.92220 51.0
15.92720 51.0
15.93220 52.0
15.93720 47.0
15.94220 35.0
15.94720 56.0
15.95220 54.0
15.95720 59.0
15.96220 47.0
15.96720 67.0
15.97220 55.0
15.97720 60.0
15.98220 69.0
15.98720 46.0
15.99220 46.0
15.99720 42.0
16.00220 46.0
16.00720 43.0
16.01220 36.0
16.01720 54.0
16.02220 56.0
16.02720 48.0
16.03220 66.0
16.03720 58.0
16.04220 39.0
16.04720 60.0
16.05220 50.0
16.05720 54.0
16.06220 53.0
16.06720 61.0
16.07220 47.0
16.07720 60.0
16.08220 47.0
16.08720 52.0
16.09220 54.0
16.09720 50.0
16.10220 46.0
16.10720 45.0
16.11220 54.0
16.11720 53.0
16.12220 58.0
16.12720 54.0
16.13220 68.0
16.13720 41.0
16.14220 53.0
16.14720 52.0
16.15220 52.0
16.15720 54.0
16.16220 50.0
16.16720 45.0
16.17220 53.0
16.17720 40.0
16.18220 42.0
16.18720 49.0
16.19220 58.0
16.19720 54.0
16.20220 55.0
16.20720 64.0
16.21220 55.0
16.21720 57.0
16.22220 41.0
16.22720 54.0
16.23220 66.0
16.23720 53.0
16.24220 44.0
16.24720 58.0
16.25220 56.0
16.25720 53.0
16.26220 62.0
16.26720 65.0
16.27220 48.0
16.27720 57.0
16.28220 57.0
16.28720 37.0
16.29220 48.0
16.29720 54.0
16.30220 53.0
16.30720 60.0
16.31220 45.0
16.31720 56.0
16.32220 49.0
16.32720 48.0
16.33220 55.0
16.33720 60.0
16.34220 43.0
16.34720 47.0
16.35220 58.0
16.35720 51.0
16.36220 52.0
16.36720 57.0
16.37220 51.0
16.37720 57.0
16.38220 63.0
16.38720 41.0
16.39220 54.0
16.39720 47.0
16.40220 59.0
16.40720 53.0
16.41220 55.0
16.41720 56.0
16.42220 57.0
16.42720 46.0
16.43220 57.0
16.43720 46.0
16.44220 53.0
16.44720 60.0
16.45220 64.0
16.45720 53.0
16.46220 46.0
16.46720 47.0
16.47220 44.0
16.47720 53.0
16.48220 57.0
16.48720 46.0
16.49220 56.0
16.49720 54.0
16.50220 39.0
16.50720 48.0
16.51220 61.0
16.51720 47.0
16.52220 60.0
16.52720 60.0
16.53220 63.0
16.53720 59.0
16.54220 66.0
16.54720 46.0
16.55220 55.0
16.55720 62.0
16.56220 59.0
16.56720 56.0
16.57220 47.0
16.57720 59.0
16.58220 57.0
16.58720 66.0
16.59220 55.0
16.59720 56.0
16.60220 54.0
16.60720 55.0
16.61220 61.0
16.61720 55.0
16.62220 59.0
16.62720 45.0
16.63220 62.0
16.63720 66.0
16.64220 51.0
16.64720 66.0
16.65220 53.0
16.65720 44.0
16.66220 59.0
16.66720 54.0
16.67220 55.0
16.67720 64.0
16.68220 59.0
16.68720 61.0
16.69220 59.0
16.69720 70.0
16.70220 41.0
16.70720 57.0
16.71220 58.0
16.71720 67.0
16.72220 57.0
16.72720 58.0
16.73220 67.0
16.73720 49.0
16.74220 55.0
16.74720 54.0
16.75220 61.0
16.75720 59.0
16.76220 53.0
16.76720 60.0
16.77220 70.0
16.77720 65.0
16.78220 66.0
16.78720 56.0
16.79220 60.0
16.79720 56.0
16.80220 62.0
16.80720 63.0
16.81220 57.0
16.81720 60.0
16.82220 56.0
16.82720 48.0
16.83220 44.0
16.83720 48.0
16.84220 70.0
16.84720 59.0
16.85220 53.0
16.85720 47.0
16.86220 58.0
16.86720 70.0
16.87220 54.0
16.87720 61.0
16.88220 66.0
16.88720 64.0
16.89220 64.0
16.89720 60.0
16.90220 60.0
16.90720 53.0
16.91220 52.0
16.91720 66.0
16.92220 59.0
16.92720 65.0
16.93220 72.0
16.93720 59.0
16.94220 55.0
16.94720 66.0
16.95220 70.0
16.95720 70.0
16.96220 59.0
16.96720 69.0
16.97220 60.0
16.97720 74.0
16.98220 55.0
16.98720 58.0
16.99220 58.0
16.99720 66.0
17.00220 48.0
17.00720 63.0
17.01220 52.0
17.01720 65.0
17.02220 67.0
17.02720 64.0
17.03220 77.0
17.03720 73.0
17.04220 82.0
17.04720 56.0
17.05220 67.0
17.05720 50.0
17.06220 60.0
17.06720 83.0
17.07220 77.0
17.07720 81.0
17.08220 54.0
17.08720 74.0
17.09220 63.0
17.09720 76.0
17.10220 81.0
17.10720 72.0
17.11220 70.0
17.11720 66.0
17.12220 56.0
17.12720 84.0
17.13220 88.0
17.13720 66.0
17.14220 56.0
17.14720 74.0
17.15220 67.0
17.15720 78.0
17.16220 74.0
17.16720 61.0
17.17220 74.0
17.17720 64.0
17.18220 75.0
17.18720 81.0
17.19220 83.0
17.19720 75.0
17.20220 76.0
17.20720 76.0
17.21220 74.0
17.21720 58.0
17.22220 71.0
17.22720 89.0
17.23220 73.0
17.23720 93.0
17.24220 75.0
17.24720 101.0
17.25220 94.0
17.25720 93.0
17.26220 89.0
17.26720 107.0
17.27220 79.0
17.27720 83.0
17.28220 76.0
17.28720 74.0
17.29220 107.0
17.29720 96.0
17.30220 104.0
17.30720 85.0
17.31220 80.0
17.31720 102.0
17.32220 79.0
17.32720 91.0
17.33220 89.0
17.33720 85.0
17.34220 101.0
17.34720 102.0
17.35220 89.0
17.35720 91.0
17.36220 91.0
17.36720 116.0
17.37220 99.0
17.37720 98.0
17.38220 111.0
17.38720 89.0
17.39220 106.0
17.39720 115.0
17.40220 108.0
17.40720 102.0
17.41220 106.0
17.41720 120.0
17.42220 94.0
17.42720 96.0
17.43220 120.0
17.43720 108.0
17.44220 121.0
17.44720 128.0
17.45220 125.0
17.45720 99.0
17.46220 123.0
17.46720 125.0
17.47220 143.0
17.47720 119.0
17.48220 125.0
17.48720 118.0
17.49220 123.0
17.49720 121.0
17.50220 124.0
17.50720 138.0
17.51220 146.0
17.51720 133.0
17.52220 143.0
17.52720 138.0
17.53220 169.0
17.53720 138.0
17.54220 130.0
17.54720 130.0
17.55220 142.0
17.55720 131.0
17.56220 120.0
17.56720 145.0
17.57220 145.0
17.57720 175.0
17.58220 166.0
17.58720 158.0
17.59220 165.0
17.59720 150.0
17.60220 175.0
17.60720 193.0
17.61220 183.0
17.61720 174.0
17.62220 171.0
17.62720 187.0
17.63220 168.0
17.63720 172.0
17.64220 201.0
17.64720 170.0
17.65220 183.0
17.65720 196.0
17.66220 189.0
17.66720 204.0
17.67220 201.0
17.67720 199.0
17.68220 202.0
17.68720 205.0
17.69220 204.0
17.69720 213.0
17.70220 232.0
17.70720 257.0
17.71220 240.0
17.71720 305.0
17.72220 295.0
17.72720 347.0
17.73220 333.0
17.73720 362.0
17.74220 372.0
17.74720 369.0
17.75220 435.0
17.75720 417.0
17.76220 386.0
17.76720 393.0
17.77220 429.0
17.77720 451.0
17.78220 436.0
17.78720 450.0
17.79220 428.0
17.79720 418.0
17.80220 445.0
17.80720 458.0
17.81220 464.0
17.81720 440.0
17.82220 404.0
17.82720 438.0
17.83220 440.0
17.83720 427.0
17.84220 429.0
17.84720 455.0
17.85220 453.0
17.85720 457.0
17.86220 486.0
17.86720 437.0
17.87220 474.0
17.87720 457.0
17.88220 480.0
17.88720 480.0
17.89220 448.0
17.89720 457.0
17.90220 462.0
17.90720 462.0
17.91220 442.0
17.91720 455.0
17.92220 454.0
17.92720 478.0
17.93220 456.0
17.93720 451.0
17.94220 445.0
17.94720 451.0
17.95220 458.0
17.95720 462.0
17.96220 413.0
17.96720 430.0
17.97220 411.0
17.97720 373.0
17.98220 398.0
17.98720 326.0
17.99220 319.0
17.99720 311.0
18.00220 271.0
18.00720 271.0
18.01220 257.0
18.01720 239.0
18.02220 245.0
18.02720 223.0
18.03220 259.0
18.03720 217.0
18.04220 224.0
18.04720 191.0
18.05220 200.0
18.05720 230.0
18.06220 225.0
18.06720 216.0
18.07220 218.0
18.07720 201.0
18.08220 209.0
18.08720 186.0
18.09220 191.0
18.09720 203.0
18.10220 172.0
18.10720 189.0
18.11220 182.0
18.11720 175.0
18.12220 173.0
18.12720 202.0
18.13220 181.0
18.13720 152.0
18.14220 155.0
18.14720 184.0
18.15220 183.0
18.15720 174.0
18.16220 181.0
18.16720 165.0
18.17220 147.0
18.17720 174.0
18.18220 146.0
18.18720 160.0
18.19220 159.0
18.19720 155.0
18.20220 128.0
18.20720 153.0
18.21220 141.0
18.21720 142.0
18.22220 153.0
18.22720 145.0
18.23220 136.0
18.23720 126.0
18.24220 162.0
18.24720 150.0
18.25220 120.0
18.25720 117.0
18.26220 152.0
18.26720 131.0
18.27220 118.0
18.27720 113.0
18.28220 128.0
18.28720 112.0
18.29220 130.0
18.29720 102.0
18.30220 118.0
18.30720 98.0
18.31220 129.0
18.31720 118.0
18.32220 129.0
18.32720 121.0
18.33220 107.0
18.33720 115.0
18.34220 113.0
18.34720 109.0
18.35220 99.0
18.35720 97.0
18.36220 122.0
18.36720 88.0
18.37220 105.0
18.37720 87.0
18.38220 88.0
18.38720 102.0
18.39220 82.0
18.39720 96.0
18.40220 116.0
18.40720 94.0
18.41220 96.0
18.41720 92.0
18.42220 90.0
18.42720 83.0
18.43220 108.0
18.43720 82.0
18.44220 91.0
18.44720 78.0
18.45220 86.0
18.45720 77.0
18.46220 68.0
18.46720 79.0
18.47220 82.0
18.47720 77.0
18.48220 89.0
18.48720 60.0
18.49220 85.0
18.49720 83.0
18.50220 80.0
18.50720 80.0
18.51220 79.0
18.51720 85.0
18.52220 75.0
18.52720 72.0
18.53220 75.0
18.53720 74.0
18.54220 85.0
18.54720 74.0
18.55220 92.0
18.55720 66.0
18.56220 87.0
18.56720 85.0
18.57220 99.0
18.57720 108.0
18.58220 127.0
18.58720 114.0
18.59220 126.0
18.59720 142.0
18.60220 142.0
18.60720 125.0
18.61220 135.0
18.61720 125.0
18.62220 100.0
18.62720 82.0
18.63220 110.0
18.63720 84.0
18.64220 68.0
18.64720 81.0
18.65220 69.0
18.65720 65.0
18.66220 64.0
18.66720 71.0
18.67220 61.0
18.67720 61.0
18.68220 67.0
18.68720 72.0
18.69220 65.0
18.69720 67.0
18.70220 64.0
18.70720 60.0
18.71220 59.0
18.71720 57.0
18.72220 57.0
18.72720 79.0
18.73220 75.0
18.73720 55.0
18.74220 46.0
18.74720 61.0
18.75220 54.0
18.75720 82.0
18.76220 59.0
18.76720 57.0
18.77220 72.0
18.77720 74.0
18.78220 59.0
18.78720 65.0
18.79220 59.0
18.79720 58.0
18.80220 72.0
18.80720 50.0
18.81220 64.0
18.81720 64.0
18.82220 45.0
18.82720 69.0
18.83220 66.0
18.83720 51.0
18.84220 74.0
18.84720 55.0
18.85220 69.0
18.85720 62.0
18.86220 53.0
18.86720 46.0
18.87220 63.0
18.87720 67.0
18.88220 53.0
18.88720 65.0
18.89220 49.0
18.89720 54.0
18.90220 63.0
18.90720 48.0
18.91220 56.0
18.91720 62.0
18.92220 57.0
18.92720 63.0
18.93220 72.0
18.93720 50.0
18.94220 45.0
18.94720 49.0
18.95220 50.0
18.95720 60.0
18.96220 53.0
18.96720 66.0
18.97220 45.0
18.97720 48.0
18.98220 47.0
18.98720 53.0
18.99220 68.0
18.99720 49.0
19.00220 46.0
19.00720 45.0
19.01220 43.0
19.01720 51.0
19.02220 48.0
19.02720 57.0
19.03220 57.0
19.03720 40.0
19.04220 53.0
19.04720 49.0
19.05220 52.0
19.05720 47.0
19.06220 56.0
19.06720 55.0
19.07220 50.0
19.07720 42.0
19.08220 53.0
19.08720 52.0
19.09220 59.0
19.09720 56.0
19.10220 35.0
19.10720 47.0
19.11220 60.0
19.11720 41.0
19.12220 57.0
19.12720 46.0
19.13220 52.0
19.13720 59.0
19.14220 51.0
19.14720 57.0
19.15220 50.0
19.15720 53.0
19.16220 51.0
19.16720 44.0
19.17220 46.0
19.17720 53.0
19.18220 58.0
19.18720 52.0
19.19220 42.0
19.19720 49.0
19.20220 55.0
19.20720 56.0
19.21220 55.0
19.21720 55.0
19.22220 40.0
19.22720 58.0
19.23220 37.0
19.23720 45.0
19.24220 40.0
19.24720 41.0
19.25220 56.0
19.25720 43.0
19.26220 61.0
19.26720 46.0
19.27220 48.0
19.27720 43.0
19.28220 51.0
19.28720 42.0
19.29220 58.0
19.29720 52.0
19.30220 51.0
19.30720 50.0
19.31220 45.0
19.31720 37.0
19.32220 46.0
19.32720 39.0
19.33220 47.0
19.33720 62.0
19.34220 51.0
19.34720 39.0
19.35220 55.0
19.35720 55.0
19.36220 51.0
19.36720 55.0
19.37220 44.0
19.37720 57.0
19.38220 45.0
19.38720 53.0
19.39220 52.0
19.39720 39.0
19.40220 49.0
19.40720 51.0
19.41220 53.0
19.41720 35.0
19.42220 51.0
19.42720 53.0
19.43220 44.0
19.43720 63.0
19.44220 43.0
19.44720 53.0
19.45220 44.0
19.45720 44.0
19.46220 61.0
19.46720 44.0
19.47220 46.0
19.47720 56.0
19.48220 48.0
19.48720 50.0
19.49220 46.0
19.49720 37.0
19.50220 53.0
19.50720 46.0
19.51220 36.0
19.51720 54.0
19.52220 53.0
19.52720 50.0
19.53220 35.0
19.53720 38.0
19.54220 47.0
19.54720 43.0
19.55220 49.0
19.55720 43.0
19.56220 41.0
19.56720 56.0
19.57220 37.0
19.57720 45.0
19.58220 48.0
19.58720 45.0
19.59220 42.0
19.59720 61.0
19.60220 60.0
19.60720 40.0
19.61220 45.0
19.61720 33.0
19.62220 43.0
19.62720 33.0
19.63220 43.0
19.63720 48.0
19.64220 49.0
19.64720 48.0
19.65220 46.0
19.65720 32.0
19.66220 58.0
19.66720 59.0
19.67220 44.0
19.67720 43.0
19.68220 50.0
19.68720 44.0
19.69220 32.0
19.69720 39.0
19.70220 44.0
19.70720 35.0
19.71220 43.0
19.71720 39.0
19.72220 42.0
19.72720 39.0
19.73220 41.0
19.73720 40.0
19.74220 42.0
19.74720 44.0
19.75220 58.0
19.75720 58.0
19.76220 47.0
19.76720 38.0
19.77220 38.0
19.77720 44.0
19.78220 43.0
19.78720 47.0
19.79220 42.0
19.79720 53.0
19.80220 33.0
19.80720 56.0
19.81220 39.0
19.81720 49.0
19.82220 41.0
19.82720 53.0
19.83220 46.0
19.83720 45.0