File: data/W6857m/XRD_Omega/W6857m_Cr2O3_scan_omega_2deg_step_0.002deg0_6.xy
30.28910 288.0
30.29110 289.0
30.29310 256.0
30.29510 287.0
30.29710 285.0
30.29910 261.0
30.30110 271.0
30.30310 298.0
30.30510 302.0
30.30710 289.0
30.30910 257.0
30.31110 296.0
30.31310 321.0
30.31510 279.0
30.31710 297.0
30.31910 282.0
30.32110 323.0
30.32310 285.0
30.32510 299.0
30.32710 288.0
30.32910 284.0
30.33110 310.0
30.33310 281.0
30.33510 294.0
30.33710 304.0
30.33910 296.0
30.34110 325.0
30.34310 290.0
30.34510 287.0
30.34710 299.0
30.34910 288.0
30.35110 273.0
30.35310 318.0
30.35510 321.0
30.35710 304.0
30.35910 315.0
30.36110 306.0
30.36310 305.0
30.36510 293.0
30.36710 276.0
30.36910 304.0
30.37110 332.0
30.37310 293.0
30.37510 336.0
30.37710 306.0
30.37910 316.0
30.38110 337.0
30.38310 350.0
30.38510 308.0
30.38710 333.0
30.38910 350.0
30.39110 292.0
30.39310 313.0
30.39510 329.0
30.39710 325.0
30.39910 343.0
30.40110 337.0
30.40310 337.0
30.40510 318.0
30.40710 324.0
30.40910 286.0
30.41110 371.0
30.41310 334.0
30.41510 353.0
30.41710 348.0
30.41910 316.0
30.42110 364.0
30.42310 337.0
30.42510 331.0
30.42710 346.0
30.42910 397.0
30.43110 334.0
30.43310 372.0
30.43510 360.0
30.43710 350.0
30.43910 367.0
30.44110 355.0
30.44310 359.0
30.44510 332.0
30.44710 368.0
30.44910 395.0
30.45110 370.0
30.45310 355.0
30.45510 408.0
30.45710 381.0
30.45910 361.0
30.46110 369.0
30.46310 403.0
30.46510 367.0
30.46710 401.0
30.46910 395.0
30.47110 373.0
30.47310 388.0
30.47510 356.0
30.47710 379.0
30.47910 376.0
30.48110 382.0
30.48310 356.0
30.48510 360.0
30.48710 353.0
30.48910 399.0
30.49110 342.0
30.49310 391.0
30.49510 374.0
30.49710 407.0
30.49910 399.0
30.50110 396.0
30.50310 404.0
30.50510 358.0
30.50710 415.0
30.50910 417.0
30.51110 349.0
30.51310 392.0
30.51510 370.0
30.51710 403.0
30.51910 385.0
30.52110 415.0
30.52310 430.0
30.52510 390.0
30.52710 402.0
30.52910 388.0
30.53110 410.0
30.53310 385.0
30.53510 387.0
30.53710 409.0
30.53910 404.0
30.54110 434.0
30.54310 405.0
30.54510 390.0
30.54710 453.0
30.54910 418.0
30.55110 465.0
30.55310 430.0
30.55510 469.0
30.55710 411.0
30.55910 409.0
30.56110 471.0
30.56310 433.0
30.56510 451.0
30.56710 435.0
30.56910 409.0
30.57110 453.0
30.57310 482.0
30.57510 467.0
30.57710 426.0
30.57910 481.0
30.58110 438.0
30.58310 452.0
30.58510 475.0
30.58710 513.0
30.58910 449.0
30.59110 431.0
30.59310 443.0
30.59510 447.0
30.59710 473.0
30.59910 473.0
30.60110 505.0
30.60310 455.0
30.60510 444.0
30.60710 466.0
30.60910 479.0
30.61110 477.0
30.61310 484.0
30.61510 466.0
30.61710 478.0
30.61910 502.0
30.62110 473.0
30.62310 479.0
30.62510 516.0
30.62710 445.0
30.62910 511.0
30.63110 532.0
30.63310 533.0
30.63510 509.0
30.63710 520.0
30.63910 516.0
30.64110 534.0
30.64310 534.0
30.64510 544.0
30.64710 513.0
30.64910 548.0
30.65110 528.0
30.65310 519.0
30.65510 573.0
30.65710 531.0
30.65910 558.0
30.66110 535.0
30.66310 516.0
30.66510 513.0
30.66710 533.0
30.66910 527.0
30.67110 534.0
30.67310 571.0
30.67510 547.0
30.67710 558.0
30.67910 553.0
30.68110 589.0
30.68310 557.0
30.68510 590.0
30.68710 649.0
30.68910 570.0
30.69110 561.0
30.69310 584.0
30.69510 578.0
30.69710 577.0
30.69910 549.0
30.70110 558.0
30.70310 534.0
30.70510 570.0
30.70710 594.0
30.70910 579.0
30.71110 646.0
30.71310 636.0
30.71510 585.0
30.71710 643.0
30.71910 620.0
30.72110 641.0
30.72310 680.0
30.72510 629.0
30.72710 589.0
30.72910 603.0
30.73110 614.0
30.73310 601.0
30.73510 631.0
30.73710 662.0
30.73910 683.0
30.74110 699.0
30.74310 666.0
30.74510 656.0
30.74710 679.0
30.74910 675.0
30.75110 758.0
30.75310 682.0
30.75510 738.0
30.75710 674.0
30.75910 710.0
30.76110 733.0
30.76310 728.0
30.76510 693.0
30.76710 690.0
30.76910 714.0
30.77110 681.0
30.77310 710.0
30.77510 755.0
30.77710 688.0
30.77910 788.0
30.78110 700.0
30.78310 720.0
30.78510 749.0
30.78710 739.0
30.78910 745.0
30.79110 761.0
30.79310 802.0
30.79510 767.0
30.79710 826.0
30.79910 822.0
30.80110 771.0
30.80310 799.0
30.80510 797.0
30.80710 813.0
30.80910 828.0
30.81110 827.0
30.81310 827.0
30.81510 915.0
30.81710 805.0
30.81910 824.0
30.82110 849.0
30.82310 818.0
30.82510 843.0
30.82710 860.0
30.82910 857.0
30.83110 846.0
30.83310 891.0
30.83510 834.0
30.83710 861.0
30.83910 896.0
30.84110 860.0
30.84310 823.0
30.84510 907.0
30.84710 918.0
30.84910 878.0
30.85110 883.0
30.85310 925.0
30.85510 954.0
30.85710 944.0
30.85910 936.0
30.86110 983.0
30.86310 990.0
30.86510 972.0
30.86710 903.0
30.86910 949.0
30.87110 977.0
30.87310 962.0
30.87510 1051.0
30.87710 989.0
30.87910 1026.0
30.88110 996.0
30.88310 1055.0
30.88510 1017.0
30.88710 1002.0
30.88910 1039.0
30.89110 1018.0
30.89310 1050.0
30.89510 1017.0
30.89710 1022.0
30.89910 1061.0
30.90110 1064.0
30.90310 1067.0
30.90510 1153.0
30.90710 1148.0
30.90910 1083.0
30.91110 1187.0
30.91310 1062.0
30.91510 1191.0
30.91710 1087.0
30.91910 1094.0
30.92110 1131.0
30.92310 1253.0
30.92510 1161.0
30.92710 1186.0
30.92910 1186.0
30.93110 1188.0
30.93310 1147.0
30.93510 1209.0
30.93710 1179.0
30.93910 1228.0
30.94110 1224.0
30.94310 1182.0
30.94510 1259.0
30.94710 1256.0
30.94910 1264.0
30.95110 1279.0
30.95310 1309.0
30.95510 1305.0
30.95710 1263.0
30.95910 1191.0
30.96110 1275.0
30.96310 1353.0
30.96510 1287.0
30.96710 1309.0
30.96910 1314.0
30.97110 1314.0
30.97310 1394.0
30.97510 1344.0
30.97710 1397.0
30.97910 1430.0
30.98110 1406.0
30.98310 1335.0
30.98510 1442.0
30.98710 1411.0
30.98910 1428.0
30.99110 1378.0
30.99310 1437.0
30.99510 1415.0
30.99710 1491.0
30.99910 1418.0
31.00110 1439.0
31.00310 1494.0
31.00510 1439.0
31.00710 1489.0
31.00910 1513.0
31.01110 1571.0
31.01310 1556.0
31.01510 1513.0
31.01710 1449.0
31.01910 1497.0
31.02110 1510.0
31.02310 1591.0
31.02510 1583.0
31.02710 1572.0
31.02910 1563.0
31.03110 1685.0
31.03310 1632.0
31.03510 1614.0
31.03710 1603.0
31.03910 1622.0
31.04110 1659.0
31.04310 1603.0
31.04510 1623.0
31.04710 1664.0
31.04910 1643.0
31.05110 1636.0
31.05310 1672.0
31.05510 1697.0
31.05710 1691.0
31.05910 1668.0
31.06110 1667.0
31.06310 1726.0
31.06510 1743.0
31.06710 1659.0
31.06910 1762.0
31.07110 1751.0
31.07310 1807.0
31.07510 1713.0
31.07710 1751.0
31.07910 1739.0
31.08110 1720.0
31.08310 1814.0
31.08510 1799.0
31.08710 1822.0
31.08910 1791.0
31.09110 1794.0
31.09310 1773.0
31.09510 1770.0
31.09710 1864.0
31.09910 1809.0
31.10110 1805.0
31.10310 1852.0
31.10510 1863.0
31.10710 1818.0
31.10910 1869.0
31.11110 1873.0
31.11310 1891.0
31.11510 1917.0
31.11710 1855.0
31.11910 1971.0
31.12110 1867.0
31.12310 1916.0
31.12510 1905.0
31.12710 1853.0
31.12910 1936.0
31.13110 1886.0
31.13310 1903.0
31.13510 1874.0
31.13710 1929.0
31.13910 1924.0
31.14110 1971.0
31.14310 1982.0
31.14510 1919.0
31.14710 1974.0
31.14910 1980.0
31.15110 1990.0
31.15310 1936.0
31.15510 1981.0
31.15710 1967.0
31.15910 2011.0
31.16110 1950.0
31.16310 1964.0
31.16510 1974.0
31.16710 2012.0
31.16910 1974.0
31.17110 2047.0
31.17310 2008.0
31.17510 2076.0
31.17710 2106.0
31.17910 2057.0
31.18110 2028.0
31.18310 2127.0
31.18510 2100.0
31.18710 2051.0
31.18910 2117.0
31.19110 2050.0
31.19310 1978.0
31.19510 2085.0
31.19710 2021.0
31.19910 2129.0
31.20110 2085.0
31.20310 2043.0
31.20510 2108.0
31.20710 2138.0
31.20910 2022.0
31.21110 2116.0
31.21310 1968.0
31.21510 2130.0
31.21710 2195.0
31.21910 2056.0
31.22110 2108.0
31.22310 2020.0
31.22510 2178.0
31.22710 2055.0
31.22910 2129.0
31.23110 2080.0
31.23310 2119.0
31.23510 2113.0
31.23710 2097.0
31.23910 2144.0
31.24110 2142.0
31.24310 2089.0
31.24510 2059.0
31.24710 2221.0
31.24910 2088.0
31.25110 2197.0
31.25310 2081.0
31.25510 2202.0
31.25710 2103.0
31.25910 2157.0
31.26110 2139.0
31.26310 2097.0
31.26510 2104.0
31.26710 2263.0
31.26910 2194.0
31.27110 2170.0
31.27310 2149.0
31.27510 2167.0
31.27710 2135.0
31.27910 2174.0
31.28110 2156.0
31.28310 2142.0
31.28510 2194.0
31.28710 2104.0
31.28910 2205.0
31.29110 2274.0
31.29310 2246.0
31.29510 2175.0
31.29710 2150.0
31.29910 2138.0
31.30110 2188.0
31.30310 2235.0
31.30510 2144.0
31.30710 2193.0
31.30910 2152.0
31.31110 2185.0
31.31310 2126.0
31.31510 2105.0
31.31710 2199.0
31.31910 2225.0
31.32110 2159.0
31.32310 2134.0
31.32510 2263.0
31.32710 2186.0
31.32910 2193.0
31.33110 2265.0
31.33310 2118.0
31.33510 2256.0
31.33710 2258.0
31.33910 2185.0
31.34110 2109.0
31.34310 2138.0
31.34510 2249.0
31.34710 2159.0
31.34910 2187.0
31.35110 2164.0
31.35310 2196.0
31.35510 2220.0
31.35710 2254.0
31.35910 2153.0
31.36110 2247.0
31.36310 2159.0
31.36510 2157.0
31.36710 2161.0
31.36910 2122.0
31.37110 2143.0
31.37310 2081.0
31.37510 2146.0
31.37710 2105.0
31.37910 2158.0
31.38110 2130.0
31.38310 2140.0
31.38510 2129.0
31.38710 2102.0
31.38910 2095.0
31.39110 2218.0
31.39310 2168.0
31.39510 2217.0
31.39710 2208.0
31.39910 2120.0
31.40110 2140.0
31.40310 2167.0
31.40510 2142.0
31.40710 2127.0
31.40910 2158.0
31.41110 2084.0
31.41310 2171.0
31.41510 2154.0
31.41710 2085.0
31.41910 2211.0
31.42110 2073.0
31.42310 2191.0
31.42510 2030.0
31.42710 2131.0
31.42910 2074.0
31.43110 2103.0
31.43310 2089.0
31.43510 2132.0
31.43710 2108.0
31.43910 2190.0
31.44110 2082.0
31.44310 2126.0
31.44510 2052.0
31.44710 2028.0
31.44910 2130.0
31.45110 2059.0
31.45310 2118.0
31.45510 2030.0
31.45710 2029.0
31.45910 2131.0
31.46110 2066.0
31.46310 2086.0
31.46510 1928.0
31.46710 2108.0
31.46910 2055.0
31.47110 2017.0
31.47310 2081.0
31.47510 1955.0
31.47710 1969.0
31.47910 2021.0
31.48110 1992.0
31.48310 1980.0
31.48510 1887.0
31.48710 1966.0
31.48910 2025.0
31.49110 2043.0
31.49310 1929.0
31.49510 1954.0
31.49710 1985.0
31.49910 2015.0
31.50110 1923.0
31.50310 1920.0
31.50510 1952.0
31.50710 1928.0
31.50910 1954.0
31.51110 2060.0
31.51310 1830.0
31.51510 1938.0
31.51710 1988.0
31.51910 1992.0
31.52110 1964.0
31.52310 1866.0
31.52510 2015.0
31.52710 1904.0
31.52910 1880.0
31.53110 1863.0
31.53310 1934.0
31.53510 1891.0
31.53710 1895.0
31.53910 1803.0
31.54110 1866.0
31.54310 1816.0
31.54510 1874.0
31.54710 1805.0
31.54910 1902.0
31.55110 1835.0
31.55310 1915.0
31.55510 1808.0
31.55710 1842.0
31.55910 1767.0
31.56110 1884.0
31.56310 1785.0
31.56510 1774.0
31.56710 1841.0
31.56910 1811.0
31.57110 1794.0
31.57310 1775.0
31.57510 1786.0
31.57710 1791.0
31.57910 1715.0
31.58110 1785.0
31.58310 1695.0
31.58510 1722.0
31.58710 1700.0
31.58910 1699.0
31.59110 1725.0
31.59310 1674.0
31.59510 1719.0
31.59710 1746.0
31.59910 1739.0
31.60110 1715.0
31.60310 1774.0
31.60510 1704.0
31.60710 1728.0
31.60910 1683.0
31.61110 1702.0
31.61310 1644.0
31.61510 1650.0
31.61710 1685.0
31.61910 1685.0
31.62110 1686.0
31.62310 1652.0
31.62510 1571.0
31.62710 1601.0
31.62910 1619.0
31.63110 1668.0
31.63310 1590.0
31.63510 1570.0
31.63710 1641.0
31.63910 1635.0
31.64110 1647.0
31.64310 1618.0
31.64510 1603.0
31.64710 1574.0
31.64910 1569.0
31.65110 1546.0
31.65310 1538.0
31.65510 1542.0
31.65710 1478.0
31.65910 1562.0
31.66110 1558.0
31.66310 1537.0
31.66510 1577.0
31.66710 1520.0
31.66910 1492.0
31.67110 1478.0
31.67310 1501.0
31.67510 1497.0
31.67710 1500.0
31.67910 1462.0
31.68110 1470.0
31.68310 1517.0
31.68510 1474.0
31.68710 1480.0
31.68910 1384.0
31.69110 1441.0
31.69310 1383.0
31.69510 1485.0
31.69710 1398.0
31.69910 1406.0
31.70110 1393.0
31.70310 1471.0
31.70510 1479.0
31.70710 1447.0
31.70910 1349.0
31.71110 1373.0
31.71310 1402.0
31.71510 1384.0
31.71710 1340.0
31.71910 1410.0
31.72110 1268.0
31.72310 1424.0
31.72510 1327.0
31.72710 1345.0
31.72910 1370.0
31.73110 1350.0
31.73310 1342.0
31.73510 1371.0
31.73710 1389.0
31.73910 1230.0
31.74110 1310.0
31.74310 1320.0
31.74510 1284.0
31.74710 1249.0
31.74910 1329.0
31.75110 1277.0
31.75310 1319.0
31.75510 1242.0
31.75710 1315.0
31.75910 1291.0
31.76110 1229.0
31.76310 1234.0
31.76510 1260.0
31.76710 1284.0
31.76910 1259.0
31.77110 1273.0
31.77310 1225.0
31.77510 1264.0
31.77710 1249.0
31.77910 1240.0
31.78110 1220.0
31.78310 1220.0
31.78510 1252.0
31.78710 1186.0
31.78910 1221.0
31.79110 1205.0
31.79310 1148.0
31.79510 1164.0
31.79710 1212.0
31.79910 1198.0
31.80110 1226.0
31.80310 1213.0
31.80510 1205.0
31.80710 1179.0
31.80910 1195.0
31.81110 1210.0
31.81310 1231.0
31.81510 1147.0
31.81710 1101.0
31.81910 1148.0
31.82110 1142.0
31.82310 1106.0
31.82510 1098.0
31.82710 1136.0
31.82910 1017.0
31.83110 1056.0
31.83310 1106.0
31.83510 1117.0
31.83710 1091.0
31.83910 1087.0
31.84110 1056.0
31.84310 1012.0
31.84510 1058.0
31.84710 1062.0
31.84910 986.0
31.85110 1102.0
31.85310 1005.0
31.85510 1092.0
31.85710 1033.0
31.85910 1006.0
31.86110 1033.0
31.86310 1046.0
31.86510 1007.0
31.86710 1031.0
31.86910 1002.0
31.87110 1052.0
31.87310 1006.0
31.87510 996.0
31.87710 1029.0
31.87910 1030.0
31.88110 1053.0
31.88310 1020.0
31.88510 982.0
31.88710 976.0
31.88910 1016.0
31.89110 949.0
31.89310 977.0
31.89510 949.0
31.89710 955.0
31.89910 941.0
31.90110 950.0
31.90310 972.0
31.90510 905.0
31.90710 972.0
31.90910 913.0
31.91110 974.0
31.91310 959.0
31.91510 957.0
31.91710 940.0
31.91910 904.0
31.92110 949.0
31.92310 861.0
31.92510 921.0
31.92710 913.0
31.92910 886.0
31.93110 908.0
31.93310 917.0
31.93510 925.0
31.93710 971.0
31.93910 850.0
31.94110 869.0
31.94310 868.0
31.94510 906.0
31.94710 842.0
31.94910 914.0
31.95110 873.0
31.95310 886.0
31.95510 842.0
31.95710 874.0
31.95910 867.0
31.96110 805.0
31.96310 880.0
31.96510 814.0
31.96710 826.0
31.96910 887.0
31.97110 892.0
31.97310 816.0
31.97510 826.0
31.97710 862.0
31.97910 819.0
31.98110 804.0
31.98310 822.0
31.98510 749.0
31.98710 829.0
31.98910 806.0
31.99110 845.0
31.99310 827.0
31.99510 860.0
31.99710 840.0
31.99910 794.0
32.00110 813.0
32.00310 799.0
32.00510 814.0
32.00710 781.0
32.00910 734.0
32.01110 808.0
32.01310 842.0
32.01510 811.0
32.01710 787.0
32.01910 835.0
32.02110 790.0
32.02310 743.0
32.02510 811.0
32.02710 781.0
32.02910 796.0
32.03110 810.0
32.03310 792.0
32.03510 778.0
32.03710 788.0
32.03910 770.0
32.04110 827.0
32.04310 836.0
32.04510 827.0
32.04710 833.0
32.04910 814.0
32.05110 800.0
32.05310 852.0
32.05510 796.0
32.05710 852.0
32.05910 857.0
32.06110 844.0
32.06310 873.0
32.06510 840.0
32.06710 869.0
32.06910 873.0
32.07110 984.0
32.07310 902.0
32.07510 900.0
32.07710 1009.0
32.07910 998.0
32.08110 981.0
32.08310 996.0
32.08510 1069.0
32.08710 1122.0
32.08910 1157.0
32.09110 1163.0
32.09310 1283.0
32.09510 1311.0
32.09710 1413.0
32.09910 1505.0
32.10110 1593.0
32.10310 1633.0
32.10510 1678.0
32.10710 1756.0
32.10910 1789.0
32.11110 1877.0
32.11310 1996.0
32.11510 1900.0
32.11710 1886.0
32.11910 1828.0
32.12110 1933.0
32.12310 1913.0
32.12510 1851.0
32.12710 1712.0
32.12910 1732.0
32.13110 1676.0
32.13310 1590.0
32.13510 1564.0
32.13710 1530.0
32.13910 1476.0
32.14110 1413.0
32.14310 1406.0
32.14510 1309.0
32.14710 1306.0
32.14910 1170.0
32.15110 1172.0
32.15310 1182.0
32.15510 1162.0
32.15710 1127.0
32.15910 1157.0
32.16110 1115.0
32.16310 1099.0
32.16510 1180.0
32.16710 1154.0
32.16910 1174.0
32.17110 1069.0
32.17310 1107.0
32.17510 1103.0
32.17710 1069.0
32.17910 1090.0
32.18110 1089.0
32.18310 1053.0
32.18510 1027.0
32.18710 1108.0
32.18910 1126.0
32.19110 1056.0
32.19310 944.0
32.19510 1051.0
32.19710 1020.0
32.19910 1048.0
32.20110 989.0
32.20310 939.0
32.20510 917.0
32.20710 923.0
32.20910 984.0
32.21110 843.0
32.21310 850.0
32.21510 825.0
32.21710 870.0
32.21910 868.0
32.22110 768.0
32.22310 840.0
32.22510 812.0
32.22710 810.0
32.22910 788.0
32.23110 723.0
32.23310 834.0
32.23510 783.0
32.23710 794.0
32.23910 726.0
32.24110 808.0
32.24310 735.0
32.24510 814.0
32.24710 710.0
32.24910 834.0
32.25110 751.0
32.25310 773.0
32.25510 761.0
32.25710 773.0
32.25910 781.0
32.26110 671.0
32.26310 721.0
32.26510 686.0
32.26710 688.0
32.26910 694.0
32.27110 671.0
32.27310 655.0