File: data/W6906c/XRD_Omega/scan_omega_4deg_step_0.005deg0_C7_3.xy
17.46110 65.0
17.46610 65.0
17.47110 71.0
17.47610 63.0
17.48110 62.0
17.48610 74.0
17.49110 53.0
17.49610 57.0
17.50110 50.0
17.50610 73.0
17.51110 63.0
17.51610 59.0
17.52110 73.0
17.52610 55.0
17.53110 73.0
17.53610 61.0
17.54110 71.0
17.54610 74.0
17.55110 59.0
17.55610 53.0
17.56110 76.0
17.56610 71.0
17.57110 69.0
17.57610 69.0
17.58110 67.0
17.58610 70.0
17.59110 64.0
17.59610 59.0
17.60110 58.0
17.60610 59.0
17.61110 69.0
17.61610 66.0
17.62110 83.0
17.62610 73.0
17.63110 62.0
17.63610 71.0
17.64110 55.0
17.64610 72.0
17.65110 66.0
17.65610 70.0
17.66110 68.0
17.66610 60.0
17.67110 59.0
17.67610 79.0
17.68110 75.0
17.68610 82.0
17.69110 61.0
17.69610 65.0
17.70110 55.0
17.70610 76.0
17.71110 77.0
17.71610 67.0
17.72110 74.0
17.72610 58.0
17.73110 54.0
17.73610 65.0
17.74110 80.0
17.74610 55.0
17.75110 68.0
17.75610 50.0
17.76110 77.0
17.76610 82.0
17.77110 60.0
17.77610 86.0
17.78110 71.0
17.78610 67.0
17.79110 69.0
17.79610 53.0
17.80110 72.0
17.80610 81.0
17.81110 66.0
17.81610 66.0
17.82110 72.0
17.82610 48.0
17.83110 74.0
17.83610 59.0
17.84110 65.0
17.84610 64.0
17.85110 79.0
17.85610 76.0
17.86110 60.0
17.86610 61.0
17.87110 74.0
17.87610 67.0
17.88110 63.0
17.88610 74.0
17.89110 61.0
17.89610 58.0
17.90110 74.0
17.90610 79.0
17.91110 70.0
17.91610 69.0
17.92110 82.0
17.92610 75.0
17.93110 61.0
17.93610 73.0
17.94110 74.0
17.94610 55.0
17.95110 65.0
17.95610 57.0
17.96110 65.0
17.96610 81.0
17.97110 57.0
17.97610 68.0
17.98110 72.0
17.98610 74.0
17.99110 79.0
17.99610 64.0
18.00110 63.0
18.00610 89.0
18.01110 69.0
18.01610 73.0
18.02110 72.0
18.02610 70.0
18.03110 82.0
18.03610 71.0
18.04110 68.0
18.04610 68.0
18.05110 61.0
18.05610 73.0
18.06110 61.0
18.06610 71.0
18.07110 67.0
18.07610 63.0
18.08110 67.0
18.08610 69.0
18.09110 69.0
18.09610 67.0
18.10110 64.0
18.10610 80.0
18.11110 63.0
18.11610 72.0
18.12110 59.0
18.12610 62.0
18.13110 72.0
18.13610 75.0
18.14110 76.0
18.14610 62.0
18.15110 72.0
18.15610 60.0
18.16110 61.0
18.16610 66.0
18.17110 87.0
18.17610 69.0
18.18110 77.0
18.18610 63.0
18.19110 62.0
18.19610 69.0
18.20110 77.0
18.20610 76.0
18.21110 54.0
18.21610 62.0
18.22110 66.0
18.22610 59.0
18.23110 57.0
18.23610 55.0
18.24110 72.0
18.24610 61.0
18.25110 72.0
18.25610 76.0
18.26110 65.0
18.26610 58.0
18.27110 68.0
18.27610 74.0
18.28110 61.0
18.28610 65.0
18.29110 77.0
18.29610 71.0
18.30110 80.0
18.30610 72.0
18.31110 74.0
18.31610 77.0
18.32110 70.0
18.32610 72.0
18.33110 75.0
18.33610 61.0
18.34110 67.0
18.34610 69.0
18.35110 68.0
18.35610 84.0
18.36110 60.0
18.36610 69.0
18.37110 68.0
18.37610 60.0
18.38110 78.0
18.38610 67.0
18.39110 73.0
18.39610 79.0
18.40110 63.0
18.40610 61.0
18.41110 74.0
18.41610 63.0
18.42110 59.0
18.42610 61.0
18.43110 74.0
18.43610 64.0
18.44110 84.0
18.44610 79.0
18.45110 78.0
18.45610 78.0
18.46110 75.0
18.46610 69.0
18.47110 79.0
18.47610 71.0
18.48110 70.0
18.48610 68.0
18.49110 63.0
18.49610 74.0
18.50110 61.0
18.50610 82.0
18.51110 74.0
18.51610 69.0
18.52110 66.0
18.52610 67.0
18.53110 70.0
18.53610 64.0
18.54110 64.0
18.54610 68.0
18.55110 77.0
18.55610 64.0
18.56110 64.0
18.56610 55.0
18.57110 72.0
18.57610 76.0
18.58110 74.0
18.58610 74.0
18.59110 64.0
18.59610 78.0
18.60110 83.0
18.60610 67.0
18.61110 74.0
18.61610 75.0
18.62110 66.0
18.62610 78.0
18.63110 69.0
18.63610 60.0
18.64110 60.0
18.64610 73.0
18.65110 73.0
18.65610 89.0
18.66110 76.0
18.66610 92.0
18.67110 78.0
18.67610 65.0
18.68110 65.0
18.68610 76.0
18.69110 67.0
18.69610 77.0
18.70110 69.0
18.70610 87.0
18.71110 67.0
18.71610 68.0
18.72110 88.0
18.72610 76.0
18.73110 69.0
18.73610 66.0
18.74110 58.0
18.74610 81.0
18.75110 84.0
18.75610 88.0
18.76110 60.0
18.76610 69.0
18.77110 74.0
18.77610 75.0
18.78110 75.0
18.78610 76.0
18.79110 81.0
18.79610 62.0
18.80110 71.0
18.80610 80.0
18.81110 61.0
18.81610 70.0
18.82110 49.0
18.82610 69.0
18.83110 74.0
18.83610 67.0
18.84110 71.0
18.84610 81.0
18.85110 71.0
18.85610 70.0
18.86110 59.0
18.86610 51.0
18.87110 78.0
18.87610 72.0
18.88110 78.0
18.88610 65.0
18.89110 79.0
18.89610 72.0
18.90110 64.0
18.90610 70.0
18.91110 65.0
18.91610 71.0
18.92110 77.0
18.92610 67.0
18.93110 77.0
18.93610 77.0
18.94110 74.0
18.94610 74.0
18.95110 84.0
18.95610 74.0
18.96110 85.0
18.96610 80.0
18.97110 72.0
18.97610 71.0
18.98110 66.0
18.98610 69.0
18.99110 87.0
18.99610 79.0
19.00110 72.0
19.00610 83.0
19.01110 85.0
19.01610 79.0
19.02110 83.0
19.02610 79.0
19.03110 72.0
19.03610 76.0
19.04110 101.0
19.04610 78.0
19.05110 74.0
19.05610 87.0
19.06110 90.0
19.06610 90.0
19.07110 85.0
19.07610 73.0
19.08110 98.0
19.08610 63.0
19.09110 81.0
19.09610 76.0
19.10110 90.0
19.10610 81.0
19.11110 88.0
19.11610 75.0
19.12110 101.0
19.12610 93.0
19.13110 80.0
19.13610 92.0
19.14110 84.0
19.14610 100.0
19.15110 84.0
19.15610 94.0
19.16110 92.0
19.16610 75.0
19.17110 92.0
19.17610 97.0
19.18110 90.0
19.18610 99.0
19.19110 88.0
19.19610 97.0
19.20110 79.0
19.20610 94.0
19.21110 86.0
19.21610 86.0
19.22110 86.0
19.22610 109.0
19.23110 100.0
19.23610 90.0
19.24110 108.0
19.24610 101.0
19.25110 78.0
19.25610 104.0
19.26110 95.0
19.26610 89.0
19.27110 98.0
19.27610 102.0
19.28110 91.0
19.28610 107.0
19.29110 110.0
19.29610 99.0
19.30110 145.0
19.30610 173.0
19.31110 217.0
19.31610 234.0
19.32110 279.0
19.32610 289.0
19.33110 277.0
19.33610 291.0
19.34110 297.0
19.34610 319.0
19.35110 279.0
19.35610 307.0
19.36110 350.0
19.36610 329.0
19.37110 314.0
19.37610 341.0
19.38110 325.0
19.38610 351.0
19.39110 314.0
19.39610 319.0
19.40110 351.0
19.40610 329.0
19.41110 331.0
19.41610 345.0
19.42110 335.0
19.42610 331.0
19.43110 354.0
19.43610 330.0
19.44110 358.0
19.44610 338.0
19.45110 358.0
19.45610 359.0
19.46110 312.0
19.46610 345.0
19.47110 292.0
19.47610 349.0
19.48110 358.0
19.48610 322.0
19.49110 312.0
19.49610 317.0
19.50110 312.0
19.50610 313.0
19.51110 335.0
19.51610 317.0
19.52110 319.0
19.52610 321.0
19.53110 286.0
19.53610 329.0
19.54110 308.0
19.54610 294.0
19.55110 287.0
19.55610 315.0
19.56110 326.0
19.56610 283.0
19.57110 260.0
19.57610 222.0
19.58110 187.0
19.58610 165.0
19.59110 105.0
19.59610 92.0
19.60110 91.0
19.60610 88.0
19.61110 91.0
19.61610 109.0
19.62110 103.0
19.62610 87.0
19.63110 91.0
19.63610 85.0
19.64110 104.0
19.64610 103.0
19.65110 102.0
19.65610 117.0
19.66110 94.0
19.66610 90.0
19.67110 89.0
19.67610 116.0
19.68110 85.0
19.68610 81.0
19.69110 81.0
19.69610 89.0
19.70110 77.0
19.70610 82.0
19.71110 87.0
19.71610 67.0
19.72110 91.0
19.72610 85.0
19.73110 75.0
19.73610 84.0
19.74110 80.0
19.74610 82.0
19.75110 84.0
19.75610 80.0
19.76110 84.0
19.76610 97.0
19.77110 72.0
19.77610 66.0
19.78110 83.0
19.78610 91.0
19.79110 68.0
19.79610 66.0
19.80110 95.0
19.80610 82.0
19.81110 81.0
19.81610 62.0
19.82110 74.0
19.82610 74.0
19.83110 86.0
19.83610 75.0
19.84110 86.0
19.84610 97.0
19.85110 83.0
19.85610 71.0
19.86110 70.0
19.86610 77.0
19.87110 86.0
19.87610 74.0
19.88110 69.0
19.88610 75.0
19.89110 69.0
19.89610 71.0
19.90110 80.0
19.90610 81.0
19.91110 61.0
19.91610 94.0
19.92110 65.0
19.92610 83.0
19.93110 55.0
19.93610 79.0
19.94110 73.0
19.94610 86.0
19.95110 74.0
19.95610 61.0
19.96110 74.0
19.96610 83.0
19.97110 65.0
19.97610 70.0
19.98110 77.0
19.98610 64.0
19.99110 73.0
19.99610 73.0
20.00110 68.0
20.00610 81.0
20.01110 71.0
20.01610 60.0
20.02110 67.0
20.02610 75.0
20.03110 78.0
20.03610 87.0
20.04110 71.0
20.04610 59.0
20.05110 84.0
20.05610 59.0
20.06110 47.0
20.06610 59.0
20.07110 66.0
20.07610 66.0
20.08110 66.0
20.08610 71.0
20.09110 62.0
20.09610 68.0
20.10110 76.0
20.10610 80.0
20.11110 59.0
20.11610 71.0
20.12110 68.0
20.12610 64.0
20.13110 61.0
20.13610 59.0
20.14110 58.0
20.14610 68.0
20.15110 67.0
20.15610 75.0
20.16110 61.0
20.16610 77.0
20.17110 58.0
20.17610 67.0
20.18110 61.0
20.18610 54.0
20.19110 59.0
20.19610 73.0
20.20110 61.0
20.20610 60.0
20.21110 55.0
20.21610 77.0
20.22110 71.0
20.22610 63.0
20.23110 60.0
20.23610 80.0
20.24110 77.0
20.24610 93.0
20.25110 61.0
20.25610 69.0
20.26110 67.0
20.26610 60.0
20.27110 44.0
20.27610 66.0
20.28110 73.0
20.28610 83.0
20.29110 55.0
20.29610 54.0
20.30110 78.0
20.30610 62.0
20.31110 62.0
20.31610 53.0
20.32110 71.0
20.32610 72.0
20.33110 75.0
20.33610 66.0
20.34110 57.0
20.34610 66.0
20.35110 54.0
20.35610 63.0
20.36110 64.0
20.36610 61.0
20.37110 60.0
20.37610 67.0
20.38110 56.0
20.38610 64.0
20.39110 78.0
20.39610 65.0
20.40110 72.0
20.40610 52.0
20.41110 59.0
20.41610 58.0
20.42110 61.0
20.42610 78.0
20.43110 89.0
20.43610 63.0
20.44110 64.0
20.44610 54.0
20.45110 61.0
20.45610 63.0
20.46110 50.0
20.46610 60.0
20.47110 57.0
20.47610 73.0
20.48110 64.0
20.48610 61.0
20.49110 57.0
20.49610 61.0
20.50110 54.0
20.50610 58.0
20.51110 79.0
20.51610 59.0
20.52110 68.0
20.52610 59.0
20.53110 58.0
20.53610 64.0
20.54110 53.0
20.54610 57.0
20.55110 59.0
20.55610 74.0
20.56110 64.0
20.56610 56.0
20.57110 79.0
20.57610 68.0
20.58110 61.0
20.58610 51.0
20.59110 62.0
20.59610 66.0
20.60110 69.0
20.60610 63.0
20.61110 62.0
20.61610 55.0
20.62110 67.0
20.62610 67.0
20.63110 58.0
20.63610 60.0
20.64110 79.0
20.64610 48.0
20.65110 64.0
20.65610 66.0
20.66110 61.0
20.66610 70.0
20.67110 65.0
20.67610 66.0
20.68110 66.0
20.68610 71.0
20.69110 62.0
20.69610 63.0
20.70110 58.0
20.70610 62.0
20.71110 59.0
20.71610 63.0
20.72110 54.0
20.72610 62.0
20.73110 67.0
20.73610 67.0
20.74110 53.0
20.74610 70.0
20.75110 72.0
20.75610 70.0
20.76110 65.0
20.76610 71.0
20.77110 63.0
20.77610 73.0
20.78110 65.0
20.78610 59.0
20.79110 63.0
20.79610 55.0
20.80110 52.0
20.80610 68.0
20.81110 59.0
20.81610 65.0
20.82110 68.0
20.82610 60.0
20.83110 73.0
20.83610 48.0
20.84110 66.0
20.84610 73.0
20.85110 67.0
20.85610 57.0
20.86110 57.0
20.86610 57.0
20.87110 61.0
20.87610 70.0
20.88110 55.0
20.88610 61.0
20.89110 48.0
20.89610 54.0
20.90110 50.0
20.90610 53.0
20.91110 68.0
20.91610 65.0
20.92110 64.0
20.92610 52.0
20.93110 54.0
20.93610 42.0
20.94110 54.0
20.94610 71.0
20.95110 58.0
20.95610 58.0
20.96110 68.0
20.96610 75.0
20.97110 67.0
20.97610 55.0
20.98110 69.0
20.98610 57.0
20.99110 56.0
20.99610 69.0
21.00110 56.0
21.00610 63.0
21.01110 54.0
21.01610 67.0
21.02110 61.0
21.02610 44.0
21.03110 52.0
21.03610 58.0
21.04110 52.0
21.04610 40.0
21.05110 77.0
21.05610 63.0
21.06110 69.0
21.06610 60.0
21.07110 54.0
21.07610 69.0
21.08110 60.0
21.08610 60.0
21.09110 61.0
21.09610 63.0
21.10110 60.0
21.10610 59.0
21.11110 47.0
21.11610 63.0
21.12110 56.0
21.12610 64.0
21.13110 61.0
21.13610 60.0
21.14110 63.0
21.14610 60.0
21.15110 61.0
21.15610 54.0
21.16110 46.0
21.16610 56.0
21.17110 59.0
21.17610 67.0
21.18110 54.0
21.18610 57.0
21.19110 72.0
21.19610 73.0
21.20110 65.0
21.20610 56.0
21.21110 65.0
21.21610 59.0
21.22110 48.0
21.22610 56.0
21.23110 69.0
21.23610 59.0
21.24110 62.0
21.24610 55.0
21.25110 58.0
21.25610 52.0
21.26110 62.0
21.26610 54.0
21.27110 60.0
21.27610 61.0
21.28110 58.0
21.28610 46.0
21.29110 76.0
21.29610 65.0
21.30110 60.0
21.30610 52.0
21.31110 60.0
21.31610 56.0
21.32110 66.0
21.32610 61.0
21.33110 57.0
21.33610 69.0
21.34110 71.0
21.34610 63.0
21.35110 66.0
21.35610 53.0
21.36110 56.0
21.36610 66.0
21.37110 79.0
21.37610 62.0
21.38110 59.0
21.38610 55.0
21.39110 69.0
21.39610 62.0
21.40110 70.0
21.40610 59.0
21.41110 64.0
21.41610 59.0
21.42110 71.0