File: data/W6815r1/XRD_2ThetaOmega/W6815r1_absolute_2th-om_10-130deg_PIXscan_17min_5.xy
10.0035 25.0
10.0872 37.0
10.1709 20.0
10.2546 25.0
10.3383 22.0
10.422 27.0
10.5057 22.0
10.5894 24.0
10.6731 18.0
10.7568 14.0
10.8405 23.0
10.9242 20.0
11.0079 20.0
11.0916 18.0
11.1753 26.0
11.259 26.0
11.3428 23.0
11.4265 27.0
11.5102 18.0
11.5939 20.0
11.6776 18.0
11.7613 13.0
11.845 16.0
11.9287 28.0
12.0124 22.0
12.0961 17.0
12.1798 20.0
12.2635 19.0
12.3472 16.0
12.4309 19.0
12.5146 21.0
12.5983 19.0
12.682 20.0
12.7657 16.0
12.8495 22.0
12.9332 21.0
13.0169 22.0
13.1006 16.0
13.1843 22.0
13.268 21.0
13.3517 17.0
13.4354 14.0
13.5191 16.0
13.6028 15.0
13.6865 24.0
13.7702 18.0
13.8539 18.0
13.9376 15.0
14.0213 14.0
14.105 17.0
14.1887 19.0
14.2724 14.0
14.3562 13.0
14.4399 24.0
14.5236 17.0
14.6073 16.0
14.691 21.0
14.7747 16.0
14.8584 21.0
14.9421 13.0
15.0258 13.0
15.1095 15.0
15.1932 13.0
15.2769 9.0
15.3606 20.0
15.4443 25.0
15.528 17.0
15.6117 12.0
15.6954 14.0
15.7791 14.0
15.8629 19.0
15.9466 7.0
16.0303 14.0
16.114 14.0
16.1977 18.0
16.2814 9.0
16.3651 12.0
16.4488 16.0
16.5325 13.0
16.6162 17.0
16.6999 15.0
16.7836 21.0
16.8673 16.0
16.951 16.0
17.0347 13.0
17.1184 11.0
17.2021 15.0
17.2858 19.0
17.3696 16.0
17.4533 20.0
17.537 13.0
17.6207 17.0
17.7044 20.0
17.7881 8.0
17.8718 16.0
17.9555 19.0
18.0392 14.0
18.1229 17.0
18.2066 15.0
18.2903 8.0
18.374 10.0
18.4577 11.0
18.5414 10.0
18.6251 15.0
18.7088 11.0
18.7925 11.0
18.8763 7.0
18.96 11.0
19.0437 17.0
19.1274 19.0
19.2111 10.0
19.2948 8.0
19.3785 12.0
19.4622 12.0
19.5459 12.0
19.6296 9.0
19.7133 21.0
19.797 8.0
19.8807 14.0
19.9644 7.0
20.0481 13.0
20.1318 11.0
20.2155 15.0
20.2992 15.0
20.383 13.0
20.4667 12.0
20.5504 11.0
20.6341 18.0
20.7178 13.0
20.8015 16.0
20.8852 14.0
20.9689 8.0
21.0526 15.0
21.1363 14.0
21.22 14.0
21.3037 13.0
21.3874 12.0
21.4711 13.0
21.5548 14.0
21.6385 14.0
21.7222 19.0
21.8059 10.0
21.8897 13.0
21.9734 18.0
22.0571 11.0
22.1408 5.0
22.2245 12.0
22.3082 13.0
22.3919 8.0
22.4756 8.0
22.5593 16.0
22.643 11.0
22.7267 13.0
22.8104 14.0
22.8941 8.0
22.9778 25.0
23.0615 26.0
23.1452 18.0
23.2289 14.0
23.3126 19.0
23.3964 14.0
23.4801 26.0
23.5638 19.0
23.6475 21.0
23.7312 31.0
23.8149 35.0
23.8986 33.0
23.9823 54.0
24.066 101.0
24.1497 177.0
24.2334 492.0
24.3171 985.0
24.4008 813.0
24.4845 319.0
24.5682 108.0
24.6519 108.0
24.7356 56.0
24.8193 65.0
24.9031 53.0
24.9868 63.0
25.0705 84.0
25.1542 77.0
25.2379 127.0
25.3216 172.0
25.4053 758.0
25.489 26799.0
25.5727 27234.0
25.6564 1012.0
25.7401 397.0
25.8238 311.0
25.9075 200.0
25.9912 188.0
26.0749 135.0
26.1586 105.0
26.2423 65.0
26.326 57.0
26.4098 44.0
26.4935 33.0
26.5772 32.0
26.6609 35.0
26.7446 26.0
26.8283 22.0
26.912 16.0
26.9957 16.0
27.0794 23.0
27.1631 17.0
27.2468 22.0
27.3305 15.0
27.4142 12.0
27.4979 14.0
27.5816 10.0
27.6653 15.0
27.749 7.0
27.8327 19.0
27.9165 14.0
28.0002 16.0
28.0839 15.0
28.1676 18.0
28.2513 10.0
28.335 15.0
28.4187 13.0
28.5024 16.0
28.5861 12.0
28.6698 12.0
28.7535 13.0
28.8372 14.0
28.9209 16.0
29.0046 12.0
29.0883 10.0
29.172 6.0
29.2557 14.0
29.3394 9.0
29.4232 11.0
29.5069 5.0
29.5906 5.0
29.6743 6.0
29.758 7.0
29.8417 10.0
29.9254 11.0
30.0091 9.0
30.0928 15.0
30.1765 6.0
30.2602 10.0
30.3439 9.0
30.4276 10.0
30.5113 11.0
30.595 4.0
30.6787 4.0
30.7624 4.0
30.8461 7.0
30.9298 12.0
31.0136 10.0
31.0973 12.0
31.181 8.0
31.2647 6.0
31.3484 10.0
31.4321 6.0
31.5158 5.0
31.5995 9.0
31.6832 6.0
31.7669 9.0
31.8506 16.0
31.9343 7.0
32.018 19.0
32.1017 8.0
32.1854 11.0
32.2691 15.0
32.3528 7.0
32.4365 8.0
32.5203 7.0
32.604 8.0
32.6877 8.0
32.7714 10.0
32.8551 5.0
32.9388 4.0
33.0225 9.0
33.1062 15.0
33.1899 8.0
33.2736 7.0
33.3573 7.0
33.441 9.0
33.5247 15.0
33.6084 13.0
33.6921 4.0
33.7758 14.0
33.8595 11.0
33.9432 13.0
34.027 11.0
34.1107 5.0
34.1944 8.0
34.2781 5.0
34.3618 9.0
34.4455 9.0
34.5292 17.0
34.6129 7.0
34.6966 11.0
34.7803 6.0
34.864 16.0
34.9477 6.0
35.0314 7.0
35.1151 9.0
35.1988 8.0
35.2825 10.0
35.3662 10.0
35.4499 14.0
35.5337 14.0
35.6174 12.0
35.7011 15.0
35.7848 11.0
35.8685 12.0
35.9522 10.0
36.0359 14.0
36.1196 7.0
36.2033 7.0
36.287 9.0
36.3707 10.0
36.4544 12.0
36.5381 15.0
36.6218 12.0
36.7055 8.0
36.7892 3.0
36.8729 4.0
36.9566 9.0
37.0404 6.0
37.1241 9.0
37.2078 7.0
37.2915 9.0
37.3752 12.0
37.4589 5.0
37.5426 6.0
37.6263 10.0
37.71 4.0
37.7937 11.0
37.8774 5.0
37.9611 12.0
38.0448 4.0
38.1285 12.0
38.2122 17.0
38.2959 15.0
38.3796 5.0
38.4633 10.0
38.5471 6.0
38.6308 14.0
38.7145 12.0
38.7982 5.0
38.8819 12.0
38.9656 10.0
39.0493 9.0
39.133 8.0
39.2167 9.0
39.3004 15.0
39.3841 5.0
39.4678 5.0
39.5515 8.0
39.6352 9.0
39.7189 11.0
39.8026 9.0
39.8863 8.0
39.97 7.0
40.0538 5.0
40.1375 4.0
40.2212 15.0
40.3049 14.0
40.3886 10.0
40.4723 9.0
40.556 10.0
40.6397 7.0
40.7234 11.0
40.8071 7.0
40.8908 12.0
40.9745 10.0
41.0582 10.0
41.1419 7.0
41.2256 11.0
41.3093 10.0
41.393 4.0
41.4767 16.0
41.5605 3.0
41.6442 9.0
41.7279 10.0
41.8116 9.0
41.8953 10.0
41.979 14.0
42.0627 7.0
42.1464 9.0
42.2301 8.0
42.3138 15.0
42.3975 14.0
42.4812 16.0
42.5649 12.0
42.6486 5.0
42.7323 9.0
42.816 10.0
42.8997 12.0
42.9834 11.0
43.0672 7.0
43.1509 18.0
43.2346 3.0
43.3183 13.0
43.402 10.0
43.4857 10.0
43.5694 15.0
43.6531 9.0
43.7368 13.0
43.8205 18.0
43.9042 13.0
43.9879 17.0
44.0716 10.0
44.1553 18.0
44.239 16.0
44.3227 9.0
44.4064 13.0
44.4901 11.0
44.5739 11.0
44.6576 14.0
44.7413 9.0
44.825 14.0
44.9087 6.0
44.9924 11.0
45.0761 10.0
45.1598 14.0
45.2435 12.0
45.3272 8.0
45.4109 12.0
45.4946 14.0
45.5783 13.0
45.662 8.0
45.7457 7.0
45.8294 12.0
45.9131 10.0
45.9968 8.0
46.0806 8.0
46.1643 11.0
46.248 11.0
46.3317 11.0
46.4154 16.0
46.4991 13.0
46.5828 10.0
46.6665 16.0
46.7502 15.0
46.8339 18.0
46.9176 12.0
47.0013 12.0
47.085 92.0
47.1687 43.0
47.2524 17.0
47.3361 19.0
47.4198 7.0
47.5035 17.0
47.5873 14.0
47.671 20.0
47.7547 16.0
47.8384 17.0
47.9221 17.0
48.0058 16.0
48.0895 16.0
48.1732 12.0
48.2569 20.0
48.3406 9.0
48.4243 21.0
48.508 11.0
48.5917 15.0
48.6754 16.0
48.7591 13.0
48.8428 18.0
48.9265 15.0
49.0102 19.0
49.094 22.0
49.1777 23.0
49.2614 14.0
49.3451 29.0
49.4288 30.0
49.5125 40.0
49.5962 54.0
49.6799 100.0
49.7636 169.0
49.8473 291.0
49.931 347.0
50.0147 318.0
50.0984 267.0
50.1821 303.0
50.2658 82.0
50.3495 50.0
50.4332 33.0
50.5169 49.0
50.6007 44.0
50.6844 26.0
50.7681 27.0
50.8518 18.0
50.9355 26.0
51.0192 28.0
51.1029 29.0
51.1866 30.0
51.2703 31.0
51.354 33.0
51.4377 21.0
51.5214 45.0
51.6051 42.0
51.6888 32.0
51.7725 48.0
51.8562 60.0
51.9399 75.0
52.0236 96.0
52.1074 145.0
52.1911 214.0
52.2748 483.0
52.3585 642.0
52.4422 4865.0
52.5259 22013.0
52.6096 16419.0
52.6933 2778.0
52.777 568.0
52.8607 361.0
52.9444 191.0
53.0281 176.0
53.1118 155.0
53.1955 134.0
53.2792 116.0
53.3629 126.0
53.4466 81.0
53.5303 83.0
53.6141 85.0
53.6978 65.0
53.7815 72.0
53.8652 52.0
53.9489 60.0
54.0326 57.0
54.1163 41.0
54.2 36.0
54.2837 35.0
54.3674 28.0
54.4511 31.0
54.5348 29.0
54.6185 28.0
54.7022 22.0
54.7859 13.0
54.8696 16.0
54.9533 20.0
55.037 19.0
55.1208 18.0
55.2045 16.0
55.2882 8.0
55.3719 16.0
55.4556 14.0
55.5393 13.0
55.623 15.0
55.7067 15.0
55.7904 19.0
55.8741 10.0
55.9578 15.0
56.0415 9.0
56.1252 13.0
56.2089 10.0
56.2926 17.0
56.3763 10.0
56.46 4.0
56.5437 8.0
56.6275 21.0
56.7112 16.0
56.7949 12.0
56.8786 17.0
56.9623 12.0
57.046 10.0
57.1297 20.0
57.2134 15.0
57.2971 14.0
57.3808 13.0
57.4645 14.0
57.5482 14.0
57.6319 11.0
57.7156 19.0
57.7993 16.0
57.883 10.0
57.9667 11.0
58.0504 6.0
58.1342 11.0
58.2179 16.0
58.3016 9.0
58.3853 9.0
58.469 14.0
58.5527 11.0
58.6364 6.0
58.7201 10.0
58.8038 17.0
58.8875 17.0
58.9712 8.0
59.0549 4.0
59.1386 9.0
59.2223 8.0
59.306 11.0
59.3897 13.0
59.4734 11.0
59.5571 14.0
59.6409 15.0
59.7246 15.0
59.8083 11.0
59.892 10.0
59.9757 19.0
60.0594 12.0
60.1431 14.0
60.2268 13.0
60.3105 9.0
60.3942 11.0
60.4779 12.0
60.5616 12.0
60.6453 11.0
60.729 10.0
60.8127 11.0
60.8964 8.0
60.9801 13.0
61.0638 11.0
61.1476 9.0
61.2313 12.0
61.315 6.0
61.3987 12.0
61.4824 13.0
61.5661 16.0
61.6498 12.0
61.7335 19.0
61.8172 9.0
61.9009 10.0
61.9846 16.0
62.0683 11.0
62.152 8.0
62.2357 8.0
62.3194 8.0
62.4031 11.0
62.4868 15.0
62.5705 12.0
62.6543 19.0
62.738 6.0
62.8217 9.0
62.9054 10.0
62.9891 7.0
63.0728 17.0
63.1565 6.0
63.2402 14.0
63.3239 14.0
63.4076 15.0
63.4913 9.0
63.575 19.0
63.6587 11.0
63.7424 5.0
63.8261 14.0
63.9098 11.0
63.9935 16.0
64.0772 15.0
64.161 11.0
64.2447 7.0
64.3284 15.0
64.4121 11.0
64.4958 9.0
64.5795 13.0
64.6632 11.0
64.7469 18.0
64.8306 7.0
64.9143 6.0
64.998 7.0
65.0817 14.0
65.1654 13.0
65.2491 16.0
65.3328 9.0
65.4165 8.0
65.5002 9.0
65.5839 9.0
65.6677 15.0
65.7514 14.0
65.8351 12.0
65.9188 10.0
66.0025 16.0
66.0862 7.0
66.1699 12.0
66.2536 12.0
66.3373 9.0
66.421 14.0
66.5047 12.0
66.5884 16.0
66.6721 12.0
66.7558 9.0
66.8395 11.0
66.9232 14.0
67.0069 23.0
67.0906 8.0
67.1744 12.0
67.2581 7.0
67.3418 10.0
67.4255 12.0
67.5092 10.0
67.5929 14.0
67.6766 14.0
67.7603 11.0
67.844 11.0
67.9277 12.0
68.0114 10.0
68.0951 10.0
68.1788 15.0
68.2625 13.0
68.3462 14.0
68.4299 11.0
68.5136 13.0
68.5973 6.0
68.6811 14.0
68.7648 17.0
68.8485 11.0
68.9322 13.0
69.0159 5.0
69.0996 17.0
69.1833 10.0
69.267 10.0
69.3507 14.0
69.4344 14.0
69.5181 9.0
69.6018 13.0
69.6855 10.0
69.7692 11.0
69.8529 9.0
69.9366 7.0
70.0203 9.0
70.104 10.0
70.1878 9.0
70.2715 12.0
70.3552 8.0
70.4389 11.0
70.5226 8.0
70.6063 8.0
70.69 12.0
70.7737 10.0
70.8574 6.0
70.9411 12.0
71.0248 10.0
71.1085 12.0
71.1922 9.0
71.2759 10.0
71.3596 7.0
71.4433 12.0
71.527 12.0
71.6107 5.0
71.6945 5.0
71.7782 19.0
71.8619 13.0
71.9456 9.0
72.0293 4.0
72.113 13.0
72.1967 12.0
72.2804 15.0
72.3641 8.0
72.4478 11.0
72.5315 9.0
72.6152 8.0
72.6989 9.0
72.7826 10.0
72.8663 16.0
72.95 14.0
73.0337 12.0
73.1174 13.0
73.2012 15.0
73.2849 11.0
73.3686 5.0
73.4523 9.0
73.536 7.0
73.6197 15.0
73.7034 20.0
73.7871 19.0
73.8708 15.0
73.9545 8.0
74.0382 14.0
74.1219 9.0
74.2056 19.0
74.2893 14.0
74.373 8.0
74.4567 9.0
74.5404 10.0
74.6241 10.0
74.7079 13.0
74.7916 14.0
74.8753 15.0
74.959 10.0
75.0427 9.0
75.1264 4.0
75.2101 13.0
75.2938 10.0
75.3775 10.0
75.4612 9.0
75.5449 8.0
75.6286 14.0
75.7123 11.0
75.796 10.0
75.8797 19.0
75.9634 12.0
76.0471 10.0
76.1308 12.0
76.2146 11.0
76.2983 10.0
76.382 17.0
76.4657 9.0
76.5494 16.0
76.6331 8.0
76.7168 15.0
76.8005 10.0
76.8842 9.0
76.9679 18.0
77.0516 16.0
77.1353 15.0
77.219 19.0
77.3027 11.0
77.3864 14.0
77.4701 8.0
77.5538 11.0
77.6375 15.0
77.7213 9.0
77.805 9.0
77.8887 10.0
77.9724 12.0
78.0561 14.0
78.1398 17.0
78.2235 16.0
78.3072 17.0
78.3909 17.0
78.4746 22.0
78.5583 32.0
78.642 30.0
78.7257 23.0
78.8094 24.0
78.8931 18.0
78.9768 26.0
79.0605 14.0
79.1442 16.0
79.228 18.0
79.3117 19.0
79.3954 14.0
79.4791 13.0
79.5628 9.0
79.6465 14.0
79.7302 17.0
79.8139 9.0
79.8976 11.0
79.9813 7.0
80.065 8.0
80.1487 11.0
80.2324 15.0
80.3161 12.0
80.3998 17.0
80.4835 11.0
80.5672 19.0
80.6509 16.0
80.7347 9.0
80.8184 15.0
80.9021 23.0
80.9858 15.0
81.0695 17.0
81.1532 19.0
81.2369 17.0
81.3206 13.0
81.4043 16.0
81.488 18.0
81.5717 10.0
81.6554 9.0
81.7391 17.0
81.8228 18.0
81.9065 11.0
81.9902 17.0
82.0739 12.0
82.1576 13.0
82.2414 17.0
82.3251 16.0
82.4088 17.0
82.4925 17.0
82.5762 16.0
82.6599 23.0
82.7436 17.0
82.8273 34.0
82.911 28.0
82.9947 35.0
83.0784 125.0
83.1621 2105.0
83.2458 257.0
83.3295 93.0
83.4132 1058.0
83.4969 142.0
83.5806 26.0
83.6643 35.0
83.7481 18.0
83.8318 20.0
83.9155 15.0
83.9992 22.0
84.0829 24.0
84.1666 21.0
84.2503 16.0
84.334 16.0
84.4177 12.0
84.5014 18.0
84.5851 19.0
84.6688 20.0
84.7525 14.0
84.8362 14.0
84.9199 13.0
85.0036 10.0
85.0873 12.0
85.171 17.0
85.2548 17.0
85.3385 15.0
85.4222 14.0
85.5059 10.0
85.5896 19.0
85.6733 13.0
85.757 18.0
85.8407 18.0
85.9244 6.0
86.0081 7.0
86.0918 12.0
86.1755 8.0
86.2592 12.0
86.3429 7.0
86.4266 10.0
86.5103 13.0
86.594 11.0
86.6777 9.0
86.7615 13.0
86.8452 15.0
86.9289 23.0
87.0126 16.0
87.0963 12.0
87.18 10.0
87.2637 13.0
87.3474 16.0
87.4311 12.0
87.5148 11.0
87.5985 12.0
87.6822 11.0
87.7659 14.0
87.8496 15.0
87.9333 12.0
88.017 17.0
88.1007 6.0
88.1844 8.0
88.2682 15.0
88.3519 17.0
88.4356 12.0
88.5193 11.0
88.603 10.0
88.6867 11.0
88.7704 14.0
88.8541 12.0
88.9378 11.0
89.0215 9.0
89.1052 13.0
89.1889 17.0
89.2726 15.0
89.3563 17.0
89.44 18.0
89.5237 17.0
89.6074 9.0
89.6911 5.0
89.7749 6.0
89.8586 12.0
89.9423 14.0
90.026 11.0
90.1097 11.0
90.1934 10.0
90.2771 15.0
90.3608 12.0
90.4445 13.0
90.5282 11.0
90.6119 14.0
90.6956 17.0
90.7793 12.0
90.863 17.0
90.9467 18.0
91.0304 9.0
91.1141 11.0
91.1978 12.0
91.2816 21.0
91.3653 17.0
91.449 13.0
91.5327 15.0
91.6164 15.0
91.7001 10.0
91.7838 16.0
91.8675 15.0
91.9512 14.0
92.0349 8.0
92.1186 10.0
92.2023 9.0
92.286 6.0
92.3697 7.0
92.4534 7.0
92.5371 10.0
92.6208 21.0
92.7045 12.0
92.7883 11.0
92.872 8.0
92.9557 18.0
93.0394 17.0
93.1231 15.0
93.2068 11.0
93.2905 18.0
93.3742 13.0
93.4579 15.0
93.5416 14.0
93.6253 12.0
93.709 11.0
93.7927 12.0
93.8764 15.0
93.9601 10.0
94.0438 6.0
94.1275 14.0
94.2112 10.0
94.295 8.0
94.3787 8.0
94.4624 4.0
94.5461 9.0
94.6298 10.0
94.7135 19.0
94.7972 6.0
94.8809 19.0
94.9646 15.0
95.0483 17.0
95.132 11.0
95.2157 12.0
95.2994 13.0
95.3831 17.0
95.4668 16.0
95.5505 15.0
95.6342 13.0
95.7179 9.0
95.8017 9.0
95.8854 9.0
95.9691 7.0
96.0528 6.0
96.1365 18.0
96.2202 9.0
96.3039 13.0
96.3876 19.0
96.4713 8.0
96.555 10.0
96.6387 14.0
96.7224 12.0
96.8061 9.0
96.8898 8.0
96.9735 14.0
97.0572 15.0
97.1409 13.0
97.2246 13.0
97.3084 14.0
97.3921 10.0
97.4758 14.0
97.5595 19.0
97.6432 7.0
97.7269 14.0
97.8106 13.0
97.8943 11.0
97.978 11.0
98.0617 12.0
98.1454 12.0
98.2291 13.0
98.3128 14.0
98.3965 12.0
98.4802 12.0
98.5639 18.0
98.6476 10.0
98.7313 7.0
98.8151 8.0
98.8988 13.0
98.9825 6.0
99.0662 13.0
99.1499 12.0
99.2336 14.0
99.3173 13.0
99.401 9.0
99.4847 8.0
99.5684 13.0
99.6521 7.0
99.7358 14.0
99.8195 19.0
99.9032 11.0
99.9869 9.0
100.071 11.0
100.154 12.0
100.238 14.0
100.322 16.0
100.405 19.0
100.489 12.0
100.573 13.0
100.657 12.0
100.74 13.0
100.824 16.0
100.908 14.0
100.991 19.0
101.075 11.0
101.159 8.0
101.243 10.0
101.326 17.0
101.41 10.0
101.494 7.0
101.577 8.0
101.661 11.0
101.745 17.0
101.828 12.0
101.912 8.0
101.996 10.0
102.08 5.0
102.163 11.0
102.247 5.0
102.331 10.0
102.414 12.0
102.498 8.0
102.582 17.0
102.666 19.0
102.749 12.0
102.833 7.0
102.917 11.0
103 9.0
103.084 14.0
103.168 9.0
103.251 5.0
103.335 16.0
103.419 14.0
103.503 12.0
103.586 7.0
103.67 10.0
103.754 12.0
103.837 10.0
103.921 13.0
104.005 20.0
104.089 15.0
104.172 5.0
104.256 9.0
104.34 16.0
104.423 11.0
104.507 15.0
104.591 14.0
104.674 20.0
104.758 20.0
104.842 9.0
104.926 7.0
105.009 13.0
105.093 10.0
105.177 7.0
105.26 9.0
105.344 9.0
105.428 14.0
105.511 9.0
105.595 9.0
105.679 12.0
105.763 14.0
105.846 10.0
105.93 9.0
106.014 13.0
106.097 18.0
106.181 22.0
106.265 23.0
106.349 22.0
106.432 10.0
106.516 15.0
106.6 10.0
106.683 19.0
106.767 14.0
106.851 11.0
106.934 13.0
107.018 12.0
107.102 13.0
107.186 11.0
107.269 13.0
107.353 11.0
107.437 17.0
107.52 14.0
107.604 9.0
107.688 15.0
107.772 5.0
107.855 10.0
107.939 11.0
108.023 10.0
108.106 9.0
108.19 6.0
108.274 17.0
108.357 13.0
108.441 11.0
108.525 19.0
108.609 7.0
108.692 12.0
108.776 10.0
108.86 9.0
108.943 9.0
109.027 11.0
109.111 11.0
109.195 16.0
109.278 17.0
109.362 16.0
109.446 9.0
109.529 7.0
109.613 13.0
109.697 12.0
109.78 9.0
109.864 11.0
109.948 2.0
110.032 14.0
110.115 8.0
110.199 9.0
110.283 13.0
110.366 10.0
110.45 8.0
110.534 8.0
110.618 13.0
110.701 7.0
110.785 17.0
110.869 15.0
110.952 18.0
111.036 8.0
111.12 16.0
111.203 14.0
111.287 14.0
111.371 7.0
111.455 18.0
111.538 11.0
111.622 8.0
111.706 11.0
111.789 17.0
111.873 16.0
111.957 12.0
112.041 12.0
112.124 9.0
112.208 13.0
112.292 10.0
112.375 9.0
112.459 6.0
112.543 15.0
112.626 17.0
112.71 13.0
112.794 13.0
112.878 10.0
112.961 6.0
113.045 13.0
113.129 7.0
113.212 14.0
113.296 8.0
113.38 13.0
113.464 6.0
113.547 10.0
113.631 14.0
113.715 12.0
113.798 12.0
113.882 9.0
113.966 12.0
114.049 13.0
114.133 11.0
114.217 14.0
114.301 9.0
114.384 13.0
114.468 7.0
114.552 7.0
114.635 13.0
114.719 10.0
114.803 9.0
114.887 11.0
114.97 12.0
115.054 18.0
115.138 9.0
115.221 12.0
115.305 22.0
115.389 18.0
115.472 17.0
115.556 8.0
115.64 16.0
115.724 8.0
115.807 20.0
115.891 16.0
115.975 19.0
116.058 35.0
116.142 28.0
116.226 20.0
116.31 14.0
116.393 15.0
116.477 14.0
116.561 14.0
116.644 11.0
116.728 15.0
116.812 17.0
116.895 11.0
116.979 17.0
117.063 17.0
117.147 11.0
117.23 14.0
117.314 14.0
117.398 21.0
117.481 17.0
117.565 8.0
117.649 19.0
117.733 13.0
117.816 12.0
117.9 13.0
117.984 12.0
118.067 14.0
118.151 4.0
118.235 15.0
118.318 5.0
118.402 9.0
118.486 14.0
118.57 14.0
118.653 7.0
118.737 14.0
118.821 17.0
118.904 11.0
118.988 6.0
119.072 12.0
119.156 6.0
119.239 11.0
119.323 8.0
119.407 9.0
119.49 12.0
119.574 15.0
119.658 10.0
119.741 11.0
119.825 19.0
119.909 15.0
119.993 11.0
120.076 3.0
120.16 13.0
120.244 12.0
120.327 17.0
120.411 17.0
120.495 13.0
120.578 16.0
120.662 13.0
120.746 16.0
120.83 11.0
120.913 14.0
120.997 12.0
121.081 8.0
121.164 10.0
121.248 12.0
121.332 14.0
121.416 11.0
121.499 9.0
121.583 11.0
121.667 13.0
121.75 16.0
121.834 16.0
121.918 20.0
122.001 16.0
122.085 16.0
122.169 17.0
122.253 17.0
122.336 19.0
122.42 12.0
122.504 25.0
122.587 18.0
122.671 19.0
122.755 22.0
122.839 12.0
122.922 23.0
123.006 21.0
123.09 17.0
123.173 28.0
123.257 28.0
123.341 20.0
123.424 30.0
123.508 40.0
123.592 36.0
123.676 34.0
123.759 59.0
123.843 44.0
123.927 39.0
124.01 62.0
124.094 57.0
124.178 99.0
124.262 138.0
124.345 201.0
124.429 553.0
124.513 2444.0
124.596 8391.0
124.68 1768.0
124.764 503.0
124.847 312.0
124.931 335.0
125.015 707.0
125.099 3650.0
125.182 2386.0
125.266 601.0
125.35 181.0
125.433 109.0
125.517 91.0
125.601 62.0
125.685 68.0
125.768 59.0
125.852 37.0
125.936 36.0
126.019 39.0
126.103 34.0
126.187 31.0
126.27 28.0
126.354 43.0
126.438 19.0
126.522 30.0
126.605 18.0
126.689 21.0
126.773 29.0
126.856 23.0
126.94 15.0
127.024 17.0
127.108 27.0
127.191 17.0
127.275 23.0
127.359 14.0
127.442 29.0
127.526 26.0
127.61 22.0
127.693 15.0
127.777 16.0
127.861 21.0
127.945 19.0
128.028 18.0
128.112 20.0
128.196 24.0
128.279 18.0
128.363 14.0
128.447 18.0
128.531 14.0
128.614 21.0
128.698 21.0
128.782 25.0
128.865 20.0
128.949 17.0
129.033 16.0
129.116 17.0
129.2 23.0
129.284 13.0
129.368 14.0
129.451 22.0
129.535 14.0
129.619 13.0
129.702 19.0
129.786 16.0
129.87 13.0
129.954 14.0
129.998 15.0