File: data/W6903m/XRD_2ThetaOmega/scan_2th-om_m_Cr2O3_55-75deg_PIXscan_4min_C4.xy
55.0019 122.0
55.0166 125.0
55.0314 139.0
55.0462 133.0
55.0609 125.0
55.0757 141.0
55.0905 141.0
55.1053 132.0
55.12 135.0
55.1348 125.0
55.1496 146.0
55.1643 108.0
55.1791 129.0
55.1939 128.0
55.2087 145.0
55.2234 148.0
55.2382 127.0
55.253 137.0
55.2678 121.0
55.2825 131.0
55.2973 138.0
55.3121 139.0
55.3268 134.0
55.3416 123.0
55.3564 136.0
55.3712 128.0
55.3859 125.0
55.4007 123.0
55.4155 123.0
55.4302 121.0
55.445 152.0
55.4598 105.0
55.4746 133.0
55.4893 141.0
55.5041 139.0
55.5189 148.0
55.5336 141.0
55.5484 126.0
55.5632 141.0
55.578 132.0
55.5927 134.0
55.6075 132.0
55.6223 147.0
55.637 119.0
55.6518 129.0
55.6666 144.0
55.6814 141.0
55.6961 126.0
55.7109 107.0
55.7257 149.0
55.7404 152.0
55.7552 121.0
55.77 109.0
55.7848 108.0
55.7995 140.0
55.8143 114.0
55.8291 116.0
55.8438 128.0
55.8586 123.0
55.8734 121.0
55.8882 142.0
55.9029 134.0
55.9177 106.0
55.9325 119.0
55.9472 111.0
55.962 137.0
55.9768 129.0
55.9916 148.0
56.0063 118.0
56.0211 124.0
56.0359 123.0
56.0506 106.0
56.0654 129.0
56.0802 137.0
56.095 119.0
56.1097 113.0
56.1245 129.0
56.1393 132.0
56.154 141.0
56.1688 140.0
56.1836 134.0
56.1984 103.0
56.2131 117.0
56.2279 122.0
56.2427 115.0
56.2574 110.0
56.2722 122.0
56.287 148.0
56.3018 137.0
56.3165 131.0
56.3313 136.0
56.3461 120.0
56.3608 144.0
56.3756 106.0
56.3904 141.0
56.4052 122.0
56.4199 129.0
56.4347 103.0
56.4495 114.0
56.4642 129.0
56.479 119.0
56.4938 119.0
56.5086 122.0
56.5233 130.0
56.5381 114.0
56.5529 144.0
56.5676 124.0
56.5824 135.0
56.5972 145.0
56.612 142.0
56.6267 116.0
56.6415 119.0
56.6563 129.0
56.671 128.0
56.6858 100.0
56.7006 141.0
56.7154 132.0
56.7301 129.0
56.7449 126.0
56.7597 130.0
56.7745 124.0
56.7892 130.0
56.804 134.0
56.8188 132.0
56.8335 122.0
56.8483 135.0
56.8631 117.0
56.8779 117.0
56.8926 133.0
56.9074 136.0
56.9222 140.0
56.9369 141.0
56.9517 146.0
56.9665 144.0
56.9813 135.0
56.996 124.0
57.0108 121.0
57.0256 115.0
57.0403 117.0
57.0551 111.0
57.0699 114.0
57.0847 147.0
57.0994 155.0
57.1142 110.0
57.129 134.0
57.1437 133.0
57.1585 126.0
57.1733 118.0
57.1881 138.0
57.2028 125.0
57.2176 157.0
57.2324 131.0
57.2471 108.0
57.2619 121.0
57.2767 141.0
57.2915 141.0
57.3062 125.0
57.321 129.0
57.3358 129.0
57.3505 138.0
57.3653 123.0
57.3801 140.0
57.3949 130.0
57.4096 117.0
57.4244 138.0
57.4392 132.0
57.4539 124.0
57.4687 142.0
57.4835 143.0
57.4983 154.0
57.513 157.0
57.5278 136.0
57.5426 132.0
57.5573 130.0
57.5721 141.0
57.5869 140.0
57.6017 126.0
57.6164 119.0
57.6312 160.0
57.646 136.0
57.6607 115.0
57.6755 135.0
57.6903 146.0
57.7051 150.0
57.7198 141.0
57.7346 153.0
57.7494 150.0
57.7641 136.0
57.7789 128.0
57.7937 145.0
57.8085 132.0
57.8232 109.0
57.838 138.0
57.8528 127.0
57.8675 146.0
57.8823 137.0
57.8971 135.0
57.9119 115.0
57.9266 145.0
57.9414 123.0
57.9562 138.0
57.9709 129.0
57.9857 129.0
58.0005 112.0
58.0153 131.0
58.03 120.0
58.0448 127.0
58.0596 131.0
58.0743 128.0
58.0891 141.0
58.1039 124.0
58.1187 133.0
58.1334 147.0
58.1482 126.0
58.163 134.0
58.1777 127.0
58.1925 143.0
58.2073 104.0
58.2221 146.0
58.2368 124.0
58.2516 125.0
58.2664 108.0
58.2812 127.0
58.2959 133.0
58.3107 137.0
58.3255 134.0
58.3402 116.0
58.355 146.0
58.3698 131.0
58.3846 115.0
58.3993 154.0
58.4141 133.0
58.4289 150.0
58.4436 119.0
58.4584 130.0
58.4732 109.0
58.488 116.0
58.5027 124.0
58.5175 132.0
58.5323 136.0
58.547 133.0
58.5618 122.0
58.5766 123.0
58.5914 126.0
58.6061 127.0
58.6209 140.0
58.6357 120.0
58.6504 142.0
58.6652 141.0
58.68 132.0
58.6948 148.0
58.7095 138.0
58.7243 146.0
58.7391 133.0
58.7538 122.0
58.7686 129.0
58.7834 119.0
58.7982 129.0
58.8129 125.0
58.8277 153.0
58.8425 130.0
58.8572 136.0
58.872 153.0
58.8868 146.0
58.9016 149.0
58.9163 136.0
58.9311 128.0
58.9459 148.0
58.9606 143.0
58.9754 129.0
58.9902 125.0
59.005 129.0
59.0197 149.0
59.0345 117.0
59.0493 140.0
59.064 131.0
59.0788 123.0
59.0936 124.0
59.1084 127.0
59.1231 117.0
59.1379 154.0
59.1527 146.0
59.1674 138.0
59.1822 131.0
59.197 117.0
59.2118 140.0
59.2265 122.0
59.2413 129.0
59.2561 141.0
59.2708 151.0
59.2856 108.0
59.3004 122.0
59.3152 120.0
59.3299 143.0
59.3447 142.0
59.3595 116.0
59.3742 122.0
59.389 124.0
59.4038 144.0
59.4186 146.0
59.4333 122.0
59.4481 133.0
59.4629 149.0
59.4776 121.0
59.4924 105.0
59.5072 134.0
59.522 117.0
59.5367 127.0
59.5515 122.0
59.5663 126.0
59.581 144.0
59.5958 131.0
59.6106 123.0
59.6254 121.0
59.6401 140.0
59.6549 140.0
59.6697 130.0
59.6844 151.0
59.6992 135.0
59.714 130.0
59.7288 127.0
59.7435 117.0
59.7583 148.0
59.7731 146.0
59.7878 130.0
59.8026 127.0
59.8174 143.0
59.8322 161.0
59.8469 129.0
59.8617 132.0
59.8765 127.0
59.8913 132.0
59.906 122.0
59.9208 137.0
59.9356 112.0
59.9503 141.0
59.9651 129.0
59.9799 135.0
59.9947 148.0
60.0094 121.0
60.0242 128.0
60.039 153.0
60.0537 137.0
60.0685 140.0
60.0833 128.0
60.0981 138.0
60.1128 125.0
60.1276 136.0
60.1424 108.0
60.1571 116.0
60.1719 111.0
60.1867 143.0
60.2015 135.0
60.2162 149.0
60.231 132.0
60.2458 151.0
60.2605 131.0
60.2753 149.0
60.2901 133.0
60.3049 152.0
60.3196 121.0
60.3344 143.0
60.3492 125.0
60.3639 159.0
60.3787 177.0
60.3935 139.0
60.4083 163.0
60.423 152.0
60.4378 150.0
60.4526 131.0
60.4673 135.0
60.4821 132.0
60.4969 144.0
60.5117 130.0
60.5264 147.0
60.5412 136.0
60.556 158.0
60.5707 140.0
60.5855 136.0
60.6003 147.0
60.6151 145.0
60.6298 134.0
60.6446 159.0
60.6594 180.0
60.6741 165.0
60.6889 156.0
60.7037 164.0
60.7185 157.0
60.7332 202.0
60.748 219.0
60.7628 279.0
60.7775 374.0
60.7923 525.0
60.8071 771.0
60.8219 1136.0
60.8366 1303.0
60.8514 1380.0
60.8662 1230.0
60.8809 926.0
60.8957 741.0
60.9105 711.0
60.9253 603.0
60.94 545.0
60.9548 401.0
60.9696 355.0
60.9843 286.0
60.9991 228.0
61.0139 198.0
61.0287 199.0
61.0434 173.0
61.0582 180.0
61.073 178.0
61.0877 159.0
61.1025 164.0
61.1173 186.0
61.1321 165.0
61.1468 163.0
61.1616 157.0
61.1764 145.0
61.1911 140.0
61.2059 159.0
61.2207 165.0
61.2355 169.0
61.2502 189.0
61.265 149.0
61.2798 164.0
61.2945 164.0
61.3093 135.0
61.3241 152.0
61.3389 145.0
61.3536 150.0
61.3684 171.0
61.3832 156.0
61.398 158.0
61.4127 136.0
61.4275 127.0
61.4423 141.0
61.457 181.0
61.4718 134.0
61.4866 148.0
61.5014 159.0
61.5161 134.0
61.5309 123.0
61.5457 133.0
61.5604 150.0
61.5752 157.0
61.59 166.0
61.6048 157.0
61.6195 167.0
61.6343 150.0
61.6491 141.0
61.6638 129.0
61.6786 154.0
61.6934 151.0
61.7082 156.0
61.7229 157.0
61.7377 133.0
61.7525 122.0
61.7672 151.0
61.782 147.0
61.7968 149.0
61.8116 133.0
61.8263 150.0
61.8411 134.0
61.8559 155.0
61.8706 139.0
61.8854 137.0
61.9002 154.0
61.915 136.0
61.9297 164.0
61.9445 148.0
61.9593 160.0
61.974 151.0
61.9888 150.0
62.0036 141.0
62.0184 140.0
62.0331 161.0
62.0479 153.0
62.0627 156.0
62.0774 165.0
62.0922 153.0
62.107 171.0
62.1218 153.0
62.1365 142.0
62.1513 160.0
62.1661 161.0
62.1808 135.0
62.1956 138.0
62.2104 130.0
62.2252 151.0
62.2399 151.0
62.2547 144.0
62.2695 173.0
62.2842 147.0
62.299 153.0
62.3138 160.0
62.3286 137.0
62.3433 161.0
62.3581 156.0
62.3729 134.0
62.3876 156.0
62.4024 141.0
62.4172 164.0
62.432 141.0
62.4467 150.0
62.4615 145.0
62.4763 138.0
62.491 149.0
62.5058 131.0
62.5206 176.0
62.5354 191.0
62.5501 164.0
62.5649 156.0
62.5797 164.0
62.5944 148.0
62.6092 167.0
62.624 141.0
62.6388 149.0
62.6535 160.0
62.6683 175.0
62.6831 159.0
62.6978 159.0
62.7126 166.0
62.7274 159.0
62.7422 171.0
62.7569 189.0
62.7717 167.0
62.7865 182.0
62.8012 148.0
62.816 175.0
62.8308 182.0
62.8456 180.0
62.8603 138.0
62.8751 172.0
62.8899 179.0
62.9047 163.0
62.9194 160.0
62.9342 163.0
62.949 150.0
62.9637 174.0
62.9785 194.0
62.9933 180.0
63.0081 165.0
63.0228 171.0
63.0376 165.0
63.0524 165.0
63.0671 193.0
63.0819 165.0
63.0967 202.0
63.1115 176.0
63.1262 179.0
63.141 173.0
63.1558 190.0
63.1705 168.0
63.1853 211.0
63.2001 203.0
63.2149 168.0
63.2296 172.0
63.2444 205.0
63.2592 183.0
63.2739 182.0
63.2887 182.0
63.3035 187.0
63.3183 181.0
63.333 200.0
63.3478 216.0
63.3626 186.0
63.3773 185.0
63.3921 211.0
63.4069 230.0
63.4217 204.0
63.4364 213.0
63.4512 231.0
63.466 239.0
63.4807 233.0
63.4955 220.0
63.5103 221.0
63.5251 229.0
63.5398 217.0
63.5546 227.0
63.5694 247.0
63.5841 241.0
63.5989 264.0
63.6137 246.0
63.6285 229.0
63.6432 288.0
63.658 276.0
63.6728 255.0
63.6875 256.0
63.7023 288.0
63.7171 279.0
63.7319 275.0
63.7466 283.0
63.7614 290.0
63.7762 331.0
63.7909 306.0
63.8057 346.0
63.8205 322.0
63.8353 318.0
63.85 365.0
63.8648 352.0
63.8796 379.0
63.8943 422.0
63.9091 413.0
63.9239 427.0
63.9387 449.0
63.9534 448.0
63.9682 446.0
63.983 503.0
63.9977 476.0
64.0125 566.0
64.0273 582.0
64.0421 601.0
64.0568 619.0
64.0716 654.0
64.0864 651.0
64.1011 738.0
64.1159 784.0
64.1307 829.0
64.1455 864.0
64.1602 890.0
64.175 969.0
64.1898 980.0
64.2045 1109.0
64.2193 1163.0
64.2341 1264.0
64.2489 1312.0
64.2636 1418.0
64.2784 1565.0
64.2932 1551.0
64.3079 1703.0
64.3227 1868.0
64.3375 1808.0
64.3523 1975.0
64.367 2140.0
64.3818 2180.0
64.3966 2423.0
64.4114 2451.0
64.4261 2502.0
64.4409 2620.0
64.4557 2593.0
64.4704 2703.0
64.4852 2738.0
64.5 2740.0
64.5148 2763.0
64.5295 2731.0
64.5443 2642.0
64.5591 2735.0
64.5738 2624.0
64.5886 2530.0
64.6034 2433.0
64.6182 2312.0
64.6329 2330.0
64.6477 2326.0
64.6625 2190.0
64.6772 2117.0
64.692 2010.0
64.7068 2011.0
64.7216 1857.0
64.7363 1762.0
64.7511 1652.0
64.7659 1593.0
64.7806 1540.0
64.7954 1491.0
64.8102 1408.0
64.825 1260.0
64.8397 1224.0
64.8545 1150.0
64.8693 1063.0
64.884 1045.0
64.8988 944.0
64.9136 928.0
64.9284 840.0
64.9431 848.0
64.9579 887.0
64.9727 815.0
64.9874 749.0
65.0022 691.0
65.017 677.0
65.0318 630.0
65.0465 665.0
65.0613 638.0
65.0761 593.0
65.0908 540.0
65.1056 535.0
65.1204 510.0
65.1352 507.0
65.1499 487.0
65.1647 463.0
65.1795 455.0
65.1942 445.0
65.209 416.0
65.2238 408.0
65.2386 406.0
65.2533 390.0
65.2681 408.0
65.2829 347.0
65.2976 364.0
65.3124 325.0
65.3272 368.0
65.342 370.0
65.3567 334.0
65.3715 337.0
65.3863 350.0
65.401 302.0
65.4158 265.0
65.4306 326.0
65.4454 320.0
65.4601 294.0
65.4749 281.0
65.4897 298.0
65.5044 294.0
65.5192 282.0
65.534 281.0
65.5488 281.0
65.5635 289.0
65.5783 261.0
65.5931 273.0
65.6078 287.0
65.6226 225.0
65.6374 262.0
65.6522 256.0
65.6669 235.0
65.6817 258.0
65.6965 221.0
65.7112 278.0
65.726 255.0
65.7408 266.0
65.7556 216.0
65.7703 284.0
65.7851 228.0
65.7999 272.0
65.8146 282.0
65.8294 217.0
65.8442 276.0
65.859 280.0
65.8737 226.0
65.8885 263.0
65.9033 267.0
65.9181 275.0
65.9328 223.0
65.9476 268.0
65.9624 256.0
65.9771 256.0
65.9919 266.0
66.0067 269.0
66.0215 268.0
66.0362 260.0
66.051 262.0
66.0658 299.0
66.0805 285.0
66.0953 237.0
66.1101 275.0
66.1249 225.0
66.1396 292.0
66.1544 272.0
66.1692 289.0
66.1839 312.0
66.1987 272.0
66.2135 284.0
66.2283 296.0
66.243 313.0
66.2578 298.0
66.2726 288.0
66.2873 313.0
66.3021 288.0
66.3169 304.0
66.3317 313.0
66.3464 322.0
66.3612 319.0
66.376 342.0
66.3907 328.0
66.4055 338.0
66.4203 321.0
66.4351 344.0
66.4498 316.0
66.4646 341.0
66.4794 323.0
66.4941 348.0
66.5089 340.0
66.5237 361.0
66.5385 349.0
66.5532 350.0
66.568 307.0
66.5828 387.0
66.5975 361.0
66.6123 366.0
66.6271 387.0
66.6419 363.0
66.6566 389.0
66.6714 393.0
66.6862 432.0
66.7009 414.0
66.7157 432.0
66.7305 454.0
66.7453 387.0
66.76 408.0
66.7748 443.0
66.7896 419.0
66.8043 443.0
66.8191 412.0
66.8339 384.0
66.8487 443.0
66.8634 444.0
66.8782 405.0
66.893 512.0
66.9077 449.0
66.9225 475.0
66.9373 446.0
66.9521 470.0
66.9668 503.0
66.9816 432.0
66.9964 486.0
67.0111 520.0
67.0259 503.0
67.0407 532.0
67.0555 484.0
67.0702 548.0
67.085 571.0
67.0998 504.0
67.1145 531.0
67.1293 510.0
67.1441 549.0
67.1589 538.0
67.1736 535.0
67.1884 604.0
67.2032 592.0
67.2179 574.0
67.2327 581.0
67.2475 599.0
67.2623 666.0
67.277 613.0
67.2918 612.0
67.3066 673.0
67.3213 694.0
67.3361 651.0
67.3509 648.0
67.3657 734.0
67.3804 699.0
67.3952 687.0
67.41 717.0
67.4248 755.0
67.4395 756.0
67.4543 795.0
67.4691 888.0
67.4838 762.0
67.4986 826.0
67.5134 870.0
67.5282 863.0
67.5429 903.0
67.5577 879.0
67.5725 937.0
67.5872 966.0
67.602 995.0
67.6168 1033.0
67.6316 1178.0
67.6463 1103.0
67.6611 1180.0
67.6759 1236.0
67.6906 1277.0
67.7054 1400.0
67.7202 1501.0
67.735 1750.0
67.7497 1921.0
67.7645 2307.0
67.7793 2582.0
67.794 2882.0
67.8088 3381.0
67.8236 3617.0
67.8384 3781.0
67.8531 3937.0
67.8679 3924.0
67.8827 3816.0
67.8974 3748.0
67.9122 3692.0
67.927 3742.0
67.9418 3812.0
67.9565 4071.0
67.9713 4419.0
67.9861 4905.0
68.0008 5660.0
68.0156 6739.0
68.0304 8098.0
68.0452 9858.0
68.0599 12432.0
68.0747 16965.0
68.0895 23762.0
68.1042 38183.0
68.119 74860.0
68.1338 181251.0
68.1486 317676.0
68.1633 365547.0
68.1781 356359.0
68.1929 253119.0
68.2076 120196.0
68.2224 61711.0
68.2372 35679.0
68.252 25060.0
68.2667 21019.0
68.2815 21608.0
68.2963 27550.0
68.311 47289.0
68.3258 89382.0
68.3406 152791.0
68.3554 183252.0
68.3701 173005.0
68.3849 133408.0
68.3997 71520.0
68.4144 34002.0
68.4292 21609.0
68.444 12835.0
68.4588 10097.0
68.4735 7425.0
68.4883 6431.0
68.5031 5379.0
68.5178 4699.0
68.5326 4209.0
68.5474 3754.0
68.5622 3433.0
68.5769 3063.0
68.5917 2927.0
68.6065 2683.0
68.6212 2427.0
68.636 2248.0
68.6508 2053.0
68.6656 1952.0
68.6803 1908.0
68.6951 1770.0
68.7099 1633.0
68.7246 1660.0
68.7394 1531.0
68.7542 1425.0
68.769 1401.0
68.7837 1360.0
68.7985 1272.0
68.8133 1173.0
68.828 1153.0
68.8428 1134.0
68.8576 1005.0
68.8724 991.0
68.8871 1043.0
68.9019 934.0
68.9167 937.0
68.9315 875.0
68.9462 864.0
68.961 844.0
68.9758 817.0
68.9905 770.0
69.0053 819.0
69.0201 735.0
69.0349 778.0
69.0496 650.0
69.0644 669.0
69.0792 687.0
69.0939 633.0
69.1087 641.0
69.1235 607.0
69.1383 591.0
69.153 566.0
69.1678 576.0
69.1826 535.0
69.1973 517.0
69.2121 540.0
69.2269 546.0
69.2417 510.0
69.2564 538.0
69.2712 545.0
69.286 459.0
69.3007 436.0
69.3155 474.0
69.3303 420.0
69.3451 455.0
69.3598 399.0
69.3746 412.0
69.3894 416.0
69.4041 399.0
69.4189 390.0
69.4337 410.0
69.4485 371.0
69.4632 380.0
69.478 331.0
69.4928 310.0
69.5075 348.0
69.5223 343.0
69.5371 334.0
69.5519 360.0
69.5666 304.0
69.5814 331.0
69.5962 332.0
69.6109 324.0
69.6257 310.0
69.6405 287.0
69.6553 301.0
69.67 329.0
69.6848 323.0
69.6996 273.0
69.7143 278.0
69.7291 277.0
69.7439 299.0
69.7587 274.0
69.7734 288.0
69.7882 296.0
69.803 231.0
69.8177 215.0
69.8325 268.0
69.8473 262.0
69.8621 236.0
69.8768 230.0
69.8916 235.0
69.9064 293.0
69.9211 279.0
69.9359 230.0
69.9507 232.0
69.9655 232.0
69.9802 215.0
69.995 221.0
70.0098 219.0
70.0245 222.0
70.0393 209.0
70.0541 188.0
70.0689 200.0
70.0836 212.0
70.0984 203.0
70.1132 216.0
70.1279 220.0
70.1427 218.0
70.1575 199.0
70.1723 217.0
70.187 209.0
70.2018 191.0
70.2166 214.0
70.2313 208.0
70.2461 179.0
70.2609 211.0
70.2757 203.0
70.2904 195.0
70.3052 176.0
70.32 171.0
70.3347 174.0
70.3495 178.0
70.3643 208.0
70.3791 214.0
70.3938 191.0
70.4086 198.0
70.4234 192.0
70.4382 202.0
70.4529 187.0
70.4677 179.0
70.4825 183.0
70.4972 203.0
70.512 158.0
70.5268 175.0
70.5416 203.0
70.5563 177.0
70.5711 174.0
70.5859 187.0
70.6006 162.0
70.6154 189.0
70.6302 164.0
70.645 180.0
70.6597 173.0
70.6745 169.0
70.6893 186.0
70.704 155.0
70.7188 205.0
70.7336 186.0
70.7484 192.0
70.7631 176.0
70.7779 187.0
70.7927 166.0
70.8074 181.0
70.8222 171.0
70.837 189.0
70.8518 156.0
70.8665 175.0
70.8813 176.0
70.8961 161.0
70.9108 189.0
70.9256 146.0
70.9404 163.0
70.9552 165.0
70.9699 174.0
70.9847 173.0
70.9995 186.0
71.0142 183.0
71.029 156.0
71.0438 178.0
71.0586 180.0
71.0733 177.0
71.0881 181.0
71.1029 185.0
71.1176 166.0
71.1324 163.0
71.1472 173.0
71.162 175.0
71.1767 169.0
71.1915 159.0
71.2063 185.0
71.221 184.0
71.2358 163.0
71.2506 167.0
71.2654 156.0
71.2801 182.0
71.2949 161.0
71.3097 171.0
71.3244 157.0
71.3392 150.0
71.354 154.0
71.3688 156.0
71.3835 164.0
71.3983 169.0
71.4131 167.0
71.4278 155.0
71.4426 181.0
71.4574 151.0
71.4722 159.0
71.4869 156.0
71.5017 186.0
71.5165 141.0
71.5312 160.0
71.546 176.0
71.5608 145.0
71.5756 142.0
71.5903 167.0
71.6051 165.0
71.6199 172.0
71.6346 146.0
71.6494 154.0
71.6642 155.0
71.679 164.0
71.6937 142.0
71.7085 156.0
71.7233 133.0
71.738 143.0
71.7528 172.0
71.7676 166.0
71.7824 146.0
71.7971 149.0
71.8119 143.0
71.8267 146.0
71.8414 155.0
71.8562 161.0
71.871 160.0
71.8858 172.0
71.9005 136.0
71.9153 151.0
71.9301 168.0
71.9449 148.0
71.9596 164.0
71.9744 150.0
71.9892 151.0
72.0039 139.0
72.0187 144.0
72.0335 149.0
72.0483 131.0
72.063 140.0
72.0778 169.0
72.0926 131.0
72.1073 134.0
72.1221 145.0
72.1369 156.0
72.1517 154.0
72.1664 146.0
72.1812 147.0
72.196 160.0
72.2107 143.0
72.2255 141.0
72.2403 128.0
72.2551 148.0
72.2698 136.0
72.2846 157.0
72.2994 138.0
72.3141 146.0
72.3289 139.0
72.3437 121.0
72.3585 145.0
72.3732 148.0
72.388 147.0
72.4028 152.0
72.4175 167.0
72.4323 143.0
72.4471 122.0
72.4619 144.0
72.4766 155.0
72.4914 145.0
72.5062 156.0
72.5209 157.0
72.5357 144.0
72.5505 140.0
72.5653 156.0
72.58 149.0
72.5948 145.0
72.6096 125.0
72.6243 167.0
72.6391 142.0
72.6539 148.0
72.6687 153.0
72.6834 187.0
72.6982 147.0
72.713 151.0
72.7277 157.0
72.7425 160.0
72.7573 136.0
72.7721 150.0
72.7868 139.0
72.8016 132.0
72.8164 142.0
72.8311 146.0
72.8459 132.0
72.8607 126.0
72.8755 151.0
72.8902 124.0
72.905 164.0
72.9198 147.0
72.9345 166.0
72.9493 134.0
72.9641 138.0
72.9789 139.0
72.9936 146.0
73.0084 155.0
73.0232 148.0
73.0379 156.0
73.0527 142.0
73.0675 142.0
73.0823 153.0
73.097 152.0
73.1118 148.0
73.1266 149.0
73.1413 150.0
73.1561 153.0
73.1709 168.0
73.1857 150.0
73.2004 138.0
73.2152 152.0
73.23 149.0
73.2447 140.0
73.2595 134.0
73.2743 163.0
73.2891 123.0
73.3038 134.0
73.3186 136.0
73.3334 151.0
73.3481 132.0
73.3629 134.0
73.3777 147.0
73.3925 137.0
73.4072 150.0
73.422 143.0
73.4368 119.0
73.4516 121.0
73.4663 130.0
73.4811 128.0
73.4959 124.0
73.5106 135.0
73.5254 141.0
73.5402 128.0
73.555 140.0
73.5697 146.0
73.5845 126.0
73.5993 147.0
73.614 122.0
73.6288 157.0
73.6436 145.0
73.6584 143.0
73.6731 138.0
73.6879 133.0
73.7027 129.0
73.7174 157.0
73.7322 140.0
73.747 134.0
73.7618 159.0
73.7765 158.0
73.7913 115.0
73.8061 134.0
73.8208 145.0
73.8356 127.0
73.8504 139.0
73.8652 134.0
73.8799 130.0
73.8947 158.0
73.9095 142.0
73.9242 147.0
73.939 141.0
73.9538 151.0
73.9686 128.0
73.9833 136.0
73.9981 144.0
74.0129 115.0
74.0276 163.0
74.0424 147.0
74.0572 158.0
74.072 127.0
74.0867 151.0
74.1015 132.0
74.1163 141.0
74.131 158.0
74.1458 135.0
74.1606 137.0
74.1754 141.0
74.1901 140.0
74.2049 158.0
74.2197 140.0
74.2344 136.0
74.2492 131.0
74.264 140.0
74.2788 154.0
74.2935 130.0
74.3083 136.0
74.3231 137.0
74.3378 123.0
74.3526 137.0
74.3674 146.0
74.3822 160.0
74.3969 153.0
74.4117 117.0
74.4265 128.0
74.4412 163.0
74.456 126.0
74.4708 148.0
74.4856 153.0
74.5003 137.0
74.5151 133.0
74.5299 140.0
74.5446 134.0
74.5594 139.0
74.5742 142.0
74.589 134.0
74.6037 124.0
74.6185 135.0
74.6333 143.0
74.648 152.0
74.6628 151.0
74.6776 151.0
74.6924 145.0
74.7071 138.0
74.7219 138.0
74.7367 140.0
74.7514 137.0
74.7662 112.0
74.781 146.0
74.7958 132.0
74.8105 137.0
74.8253 134.0
74.8401 135.0
74.8548 128.0
74.8696 141.0
74.8844 127.0
74.8992 150.0
74.9139 146.0
74.9287 124.0
74.9435 137.0
74.9583 132.0
74.973 139.0
74.9878 128.0
74.9976 124.0