File: data/W6779r/XRD_Omega/scan_omega_4deg_step_0.005deg0_5.xy
23.25060 38.0
23.25560 29.0
23.26060 30.0
23.26560 28.0
23.27060 34.0
23.27560 34.0
23.28060 35.0
23.28560 33.0
23.29060 32.0
23.29560 32.0
23.30060 25.0
23.30560 43.0
23.31060 34.0
23.31560 34.0
23.32060 40.0
23.32560 35.0
23.33060 39.0
23.33560 34.0
23.34060 24.0
23.34560 37.0
23.35060 22.0
23.35560 34.0
23.36060 24.0
23.36560 33.0
23.37060 48.0
23.37560 28.0
23.38060 35.0
23.38560 21.0
23.39060 43.0
23.39560 35.0
23.40060 31.0
23.40560 40.0
23.41060 30.0
23.41560 35.0
23.42060 28.0
23.42560 27.0
23.43060 45.0
23.43560 35.0
23.44060 36.0
23.44560 49.0
23.45060 40.0
23.45560 45.0
23.46060 40.0
23.46560 29.0
23.47060 36.0
23.47560 24.0
23.48060 40.0
23.48560 38.0
23.49060 34.0
23.49560 27.0
23.50060 38.0
23.50560 36.0
23.51060 32.0
23.51560 31.0
23.52060 34.0
23.52560 29.0
23.53060 29.0
23.53560 48.0
23.54060 37.0
23.54560 44.0
23.55060 37.0
23.55560 29.0
23.56060 45.0
23.56560 28.0
23.57060 47.0
23.57560 36.0
23.58060 32.0
23.58560 36.0
23.59060 37.0
23.59560 40.0
23.60060 37.0
23.60560 35.0
23.61060 42.0
23.61560 45.0
23.62060 38.0
23.62560 51.0
23.63060 49.0
23.63560 40.0
23.64060 44.0
23.64560 30.0
23.65060 46.0
23.65560 41.0
23.66060 33.0
23.66560 27.0
23.67060 40.0
23.67560 42.0
23.68060 37.0
23.68560 32.0
23.69060 39.0
23.69560 40.0
23.70060 50.0
23.70560 36.0
23.71060 44.0
23.71560 35.0
23.72060 42.0
23.72560 41.0
23.73060 33.0
23.73560 28.0
23.74060 38.0
23.74560 39.0
23.75060 39.0
23.75560 37.0
23.76060 38.0
23.76560 46.0
23.77060 41.0
23.77560 39.0
23.78060 37.0
23.78560 44.0
23.79060 44.0
23.79560 35.0
23.80060 37.0
23.80560 48.0
23.81060 43.0
23.81560 46.0
23.82060 48.0
23.82560 31.0
23.83060 40.0
23.83560 34.0
23.84060 40.0
23.84560 41.0
23.85060 54.0
23.85560 43.0
23.86060 38.0
23.86560 43.0
23.87060 40.0
23.87560 44.0
23.88060 44.0
23.88560 48.0
23.89060 47.0
23.89560 51.0
23.90060 40.0
23.90560 42.0
23.91060 50.0
23.91560 50.0
23.92060 45.0
23.92560 37.0
23.93060 49.0
23.93560 39.0
23.94060 43.0
23.94560 53.0
23.95060 52.0
23.95560 57.0
23.96060 59.0
23.96560 35.0
23.97060 53.0
23.97560 42.0
23.98060 48.0
23.98560 50.0
23.99060 44.0
23.99560 50.0
24.00060 65.0
24.00560 57.0
24.01060 47.0
24.01560 43.0
24.02060 41.0
24.02560 49.0
24.03060 61.0
24.03560 56.0
24.04060 48.0
24.04560 59.0
24.05060 66.0
24.05560 53.0
24.06060 77.0
24.06560 67.0
24.07060 56.0
24.07560 66.0
24.08060 54.0
24.08560 58.0
24.09060 59.0
24.09560 53.0
24.10060 68.0
24.10560 59.0
24.11060 63.0
24.11560 52.0
24.12060 57.0
24.12560 59.0
24.13060 60.0
24.13560 59.0
24.14060 68.0
24.14560 64.0
24.15060 53.0
24.15560 58.0
24.16060 63.0
24.16560 82.0
24.17060 56.0
24.17560 90.0
24.18060 80.0
24.18560 73.0
24.19060 64.0
24.19560 74.0
24.20060 79.0
24.20560 63.0
24.21060 85.0
24.21560 83.0
24.22060 68.0
24.22560 86.0
24.23060 80.0
24.23560 103.0
24.24060 86.0
24.24560 80.0
24.25060 70.0
24.25560 77.0
24.26060 75.0
24.26560 88.0
24.27060 91.0
24.27560 93.0
24.28060 85.0
24.28560 93.0
24.29060 97.0
24.29560 88.0
24.30060 89.0
24.30560 93.0
24.31060 93.0
24.31560 93.0
24.32060 98.0
24.32560 110.0
24.33060 99.0
24.33560 101.0
24.34060 105.0
24.34560 93.0
24.35060 72.0
24.35560 123.0
24.36060 83.0
24.36560 104.0
24.37060 110.0
24.37560 112.0
24.38060 102.0
24.38560 114.0
24.39060 125.0
24.39560 147.0
24.40060 141.0
24.40560 122.0
24.41060 130.0
24.41560 121.0
24.42060 145.0
24.42560 139.0
24.43060 155.0
24.43560 131.0
24.44060 150.0
24.44560 165.0
24.45060 145.0
24.45560 169.0
24.46060 156.0
24.46560 148.0
24.47060 176.0
24.47560 157.0
24.48060 170.0
24.48560 169.0
24.49060 158.0
24.49560 173.0
24.50060 169.0
24.50560 179.0
24.51060 224.0
24.51560 184.0
24.52060 175.0
24.52560 195.0
24.53060 187.0
24.53560 209.0
24.54060 213.0
24.54560 227.0
24.55060 199.0
24.55560 230.0
24.56060 242.0
24.56560 248.0
24.57060 250.0
24.57560 246.0
24.58060 252.0
24.58560 235.0
24.59060 272.0
24.59560 282.0
24.60060 283.0
24.60560 250.0
24.61060 275.0
24.61560 302.0
24.62060 289.0
24.62560 284.0
24.63060 302.0
24.63560 350.0
24.64060 313.0
24.64560 309.0
24.65060 348.0
24.65560 363.0
24.66060 369.0
24.66560 336.0
24.67060 370.0
24.67560 342.0
24.68060 412.0
24.68560 412.0
24.69060 412.0
24.69560 423.0
24.70060 375.0
24.70560 394.0
24.71060 403.0
24.71560 420.0
24.72060 470.0
24.72560 481.0
24.73060 491.0
24.73560 499.0
24.74060 560.0
24.74560 532.0
24.75060 582.0
24.75560 529.0
24.76060 520.0
24.76560 550.0
24.77060 595.0
24.77560 558.0
24.78060 605.0
24.78560 643.0
24.79060 639.0
24.79560 651.0
24.80060 696.0
24.80560 724.0
24.81060 689.0
24.81560 742.0
24.82060 782.0
24.82560 789.0
24.83060 837.0
24.83560 814.0
24.84060 798.0
24.84560 829.0
24.85060 810.0
24.85560 857.0
24.86060 833.0
24.86560 913.0
24.87060 898.0
24.87560 907.0
24.88060 983.0
24.88560 979.0
24.89060 1044.0
24.89560 1081.0
24.90060 993.0
24.90560 1060.0
24.91060 1087.0
24.91560 1121.0
24.92060 1078.0
24.92560 1101.0
24.93060 1171.0
24.93560 1143.0
24.94060 1199.0
24.94560 1215.0
24.95060 1259.0
24.95560 1200.0
24.96060 1330.0
24.96560 1296.0
24.97060 1321.0
24.97560 1401.0
24.98060 1431.0
24.98560 1446.0
24.99060 1435.0
24.99560 1464.0
25.00060 1434.0
25.00560 1457.0
25.01060 1517.0
25.01560 1541.0
25.02060 1552.0
25.02560 1518.0
25.03060 1595.0
25.03560 1519.0
25.04060 1479.0
25.04560 1623.0
25.05060 1525.0
25.05560 1609.0
25.06060 1614.0
25.06560 1678.0
25.07060 1608.0
25.07560 1589.0
25.08060 1632.0
25.08560 1709.0
25.09060 1704.0
25.09560 1643.0
25.10060 1654.0
25.10560 1743.0
25.11060 1695.0
25.11560 1783.0
25.12060 1764.0
25.12560 1729.0
25.13060 1702.0
25.13560 1801.0
25.14060 1735.0
25.14560 1819.0
25.15060 1823.0
25.15560 1753.0
25.16060 1860.0
25.16560 1768.0
25.17060 1848.0
25.17560 1840.0
25.18060 1789.0
25.18560 1893.0
25.19060 1764.0
25.19560 1854.0
25.20060 1866.0
25.20560 1797.0
25.21060 1745.0
25.21560 1798.0
25.22060 1950.0
25.22560 1818.0
25.23060 1847.0
25.23560 1853.0
25.24060 1857.0
25.24560 1850.0
25.25060 1886.0
25.25560 1897.0
25.26060 1796.0
25.26560 1877.0
25.27060 1796.0
25.27560 1843.0
25.28060 1788.0
25.28560 1822.0
25.29060 1751.0
25.29560 1785.0
25.30060 1766.0
25.30560 1847.0
25.31060 1821.0
25.31560 1763.0
25.32060 1797.0
25.32560 1731.0
25.33060 1775.0
25.33560 1774.0
25.34060 1736.0
25.34560 1698.0
25.35060 1775.0
25.35560 1727.0
25.36060 1687.0
25.36560 1688.0
25.37060 1662.0
25.37560 1593.0
25.38060 1663.0
25.38560 1634.0
25.39060 1593.0
25.39560 1685.0
25.40060 1644.0
25.40560 1597.0
25.41060 1603.0
25.41560 1544.0
25.42060 1552.0
25.42560 1611.0
25.43060 1527.0
25.43560 1495.0
25.44060 1511.0
25.44560 1536.0
25.45060 1488.0
25.45560 1428.0
25.46060 1456.0
25.46560 1370.0
25.47060 1447.0
25.47560 1384.0
25.48060 1405.0
25.48560 1383.0
25.49060 1285.0
25.49560 1330.0
25.50060 1311.0
25.50560 1255.0
25.51060 1290.0
25.51560 1253.0
25.52060 1301.0
25.52560 1261.0
25.53060 1175.0
25.53560 1255.0
25.54060 1197.0
25.54560 1202.0
25.55060 1120.0
25.55560 1136.0
25.56060 1214.0
25.56560 1088.0
25.57060 1053.0
25.57560 1074.0
25.58060 1164.0
25.58560 1043.0
25.59060 1040.0
25.59560 1009.0
25.60060 1110.0
25.60560 986.0
25.61060 982.0
25.61560 982.0
25.62060 1037.0
25.62560 1021.0
25.63060 934.0
25.63560 990.0
25.64060 894.0
25.64560 915.0
25.65060 962.0
25.65560 894.0
25.66060 899.0
25.66560 908.0
25.67060 891.0
25.67560 826.0
25.68060 823.0
25.68560 810.0
25.69060 811.0
25.69560 783.0
25.70060 792.0
25.70560 807.0
25.71060 778.0
25.71560 785.0
25.72060 789.0
25.72560 746.0
25.73060 702.0
25.73560 742.0
25.74060 718.0
25.74560 713.0
25.75060 677.0
25.75560 626.0
25.76060 644.0
25.76560 652.0
25.77060 660.0
25.77560 662.0
25.78060 638.0
25.78560 632.0
25.79060 649.0
25.79560 611.0
25.80060 577.0
25.80560 583.0
25.81060 608.0
25.81560 597.0
25.82060 553.0
25.82560 574.0
25.83060 573.0
25.83560 555.0
25.84060 525.0
25.84560 574.0
25.85060 497.0
25.85560 523.0
25.86060 533.0
25.86560 481.0
25.87060 525.0
25.87560 529.0
25.88060 538.0
25.88560 500.0
25.89060 438.0
25.89560 466.0
25.90060 495.0
25.90560 479.0
25.91060 489.0
25.91560 462.0
25.92060 437.0
25.92560 435.0
25.93060 406.0
25.93560 441.0
25.94060 407.0
25.94560 408.0
25.95060 441.0
25.95560 417.0
25.96060 441.0
25.96560 388.0
25.97060 394.0
25.97560 411.0
25.98060 348.0
25.98560 430.0
25.99060 406.0
25.99560 349.0
26.00060 363.0
26.00560 349.0
26.01060 368.0
26.01560 368.0
26.02060 365.0
26.02560 345.0
26.03060 348.0
26.03560 313.0
26.04060 342.0
26.04560 341.0
26.05060 335.0
26.05560 327.0
26.06060 341.0
26.06560 290.0
26.07060 306.0
26.07560 320.0
26.08060 306.0
26.08560 296.0
26.09060 323.0
26.09560 318.0
26.10060 280.0
26.10560 311.0
26.11060 294.0
26.11560 308.0
26.12060 289.0
26.12560 288.0
26.13060 298.0
26.13560 293.0
26.14060 301.0
26.14560 283.0
26.15060 297.0
26.15560 288.0
26.16060 293.0
26.16560 281.0
26.17060 275.0
26.17560 256.0
26.18060 264.0
26.18560 273.0
26.19060 280.0
26.19560 254.0
26.20060 261.0
26.20560 260.0
26.21060 246.0
26.21560 255.0
26.22060 250.0
26.22560 284.0
26.23060 238.0
26.23560 241.0
26.24060 280.0
26.24560 250.0
26.25060 247.0
26.25560 235.0
26.26060 239.0
26.26560 228.0
26.27060 247.0
26.27560 243.0
26.28060 227.0
26.28560 235.0
26.29060 200.0
26.29560 247.0
26.30060 221.0
26.30560 228.0
26.31060 226.0
26.31560 234.0
26.32060 236.0
26.32560 210.0
26.33060 231.0
26.33560 207.0
26.34060 204.0
26.34560 227.0
26.35060 211.0
26.35560 193.0
26.36060 218.0
26.36560 221.0
26.37060 188.0
26.37560 216.0
26.38060 215.0
26.38560 179.0
26.39060 215.0
26.39560 236.0
26.40060 200.0
26.40560 199.0
26.41060 190.0
26.41560 209.0
26.42060 211.0
26.42560 197.0
26.43060 188.0
26.43560 182.0
26.44060 175.0
26.44560 206.0
26.45060 171.0
26.45560 175.0
26.46060 216.0
26.46560 192.0
26.47060 180.0
26.47560 187.0
26.48060 193.0
26.48560 225.0
26.49060 191.0
26.49560 173.0
26.50060 175.0
26.50560 179.0
26.51060 164.0
26.51560 181.0
26.52060 171.0
26.52560 169.0
26.53060 194.0
26.53560 192.0
26.54060 170.0
26.54560 175.0
26.55060 172.0
26.55560 201.0
26.56060 174.0
26.56560 159.0
26.57060 170.0
26.57560 165.0
26.58060 171.0
26.58560 138.0
26.59060 181.0
26.59560 168.0
26.60060 158.0
26.60560 196.0
26.61060 123.0
26.61560 151.0
26.62060 173.0
26.62560 158.0
26.63060 153.0
26.63560 181.0
26.64060 151.0
26.64560 149.0
26.65060 142.0
26.65560 134.0
26.66060 155.0
26.66560 153.0
26.67060 139.0
26.67560 141.0
26.68060 174.0
26.68560 157.0
26.69060 147.0
26.69560 153.0
26.70060 131.0
26.70560 140.0
26.71060 154.0
26.71560 163.0
26.72060 138.0
26.72560 138.0
26.73060 153.0
26.73560 131.0
26.74060 142.0
26.74560 131.0
26.75060 136.0
26.75560 145.0
26.76060 150.0
26.76560 154.0
26.77060 138.0
26.77560 154.0
26.78060 126.0
26.78560 130.0
26.79060 125.0
26.79560 135.0
26.80060 124.0
26.80560 127.0
26.81060 104.0
26.81560 126.0
26.82060 108.0
26.82560 115.0
26.83060 136.0
26.83560 145.0
26.84060 113.0
26.84560 136.0
26.85060 136.0
26.85560 137.0
26.86060 140.0
26.86560 120.0
26.87060 124.0
26.87560 103.0
26.88060 125.0
26.88560 117.0
26.89060 135.0
26.89560 116.0
26.90060 116.0
26.90560 128.0
26.91060 111.0
26.91560 130.0
26.92060 120.0
26.92560 105.0
26.93060 101.0
26.93560 99.0
26.94060 103.0
26.94560 106.0
26.95060 107.0
26.95560 100.0
26.96060 93.0
26.96560 106.0
26.97060 98.0
26.97560 108.0
26.98060 116.0
26.98560 96.0
26.99060 126.0
26.99560 92.0
27.00060 71.0
27.00560 100.0
27.01060 95.0
27.01560 95.0
27.02060 92.0
27.02560 95.0
27.03060 91.0
27.03560 77.0
27.04060 89.0
27.04560 79.0
27.05060 89.0
27.05560 80.0
27.06060 88.0
27.06560 83.0
27.07060 76.0
27.07560 73.0
27.08060 106.0
27.08560 74.0
27.09060 86.0
27.09560 92.0
27.10060 73.0
27.10560 84.0
27.11060 109.0
27.11560 84.0
27.12060 80.0
27.12560 74.0
27.13060 76.0
27.13560 80.0
27.14060 74.0
27.14560 81.0
27.15060 72.0
27.15560 82.0
27.16060 66.0
27.16560 71.0
27.17060 70.0
27.17560 69.0
27.18060 85.0
27.18560 84.0
27.19060 79.0
27.19560 63.0
27.20060 86.0
27.20560 65.0
27.21060 81.0