File: data/W6906a/XRD_2ThetaOmega/w6906a_scan_2th-om_a_Cr2O3_30-40deg_PIXscan_4min.xy
30.0025 112.0
30.0123 136.0
30.0222 128.0
30.032 111.0
30.0419 139.0
30.0517 137.0
30.0615 127.0
30.0714 158.0
30.0812 130.0
30.0911 139.0
30.1009 129.0
30.1108 124.0
30.1206 138.0
30.1305 128.0
30.1403 150.0
30.1502 123.0
30.16 128.0
30.1699 130.0
30.1797 145.0
30.1896 141.0
30.1994 134.0
30.2093 137.0
30.2191 134.0
30.229 122.0
30.2388 108.0
30.2487 133.0
30.2585 142.0
30.2684 126.0
30.2782 128.0
30.288 117.0
30.2979 152.0
30.3077 133.0
30.3176 123.0
30.3274 136.0
30.3373 120.0
30.3471 140.0
30.357 137.0
30.3668 127.0
30.3767 129.0
30.3865 138.0
30.3964 133.0
30.4062 138.0
30.4161 138.0
30.4259 122.0
30.4358 155.0
30.4456 115.0
30.4555 128.0
30.4653 142.0
30.4752 131.0
30.485 132.0
30.4948 130.0
30.5047 109.0
30.5145 146.0
30.5244 130.0
30.5342 126.0
30.5441 134.0
30.5539 124.0
30.5638 131.0
30.5736 133.0
30.5835 124.0
30.5933 130.0
30.6032 132.0
30.613 125.0
30.6229 122.0
30.6327 145.0
30.6426 136.0
30.6524 143.0
30.6623 136.0
30.6721 124.0
30.682 150.0
30.6918 138.0
30.7016 120.0
30.7115 116.0
30.7213 117.0
30.7312 116.0
30.741 117.0
30.7509 145.0
30.7607 131.0
30.7706 134.0
30.7804 136.0
30.7903 97.0
30.8001 134.0
30.81 132.0
30.8198 127.0
30.8297 131.0
30.8395 133.0
30.8494 151.0
30.8592 133.0
30.8691 130.0
30.8789 121.0
30.8888 121.0
30.8986 111.0
30.9085 122.0
30.9183 131.0
30.9281 137.0
30.938 139.0
30.9478 140.0
30.9577 133.0
30.9675 138.0
30.9774 115.0
30.9872 118.0
30.9971 108.0
31.0069 135.0
31.0168 105.0
31.0266 111.0
31.0365 134.0
31.0463 120.0
31.0562 119.0
31.066 137.0
31.0759 128.0
31.0857 139.0
31.0956 126.0
31.1054 130.0
31.1153 145.0
31.1251 126.0
31.1349 154.0
31.1448 134.0
31.1546 150.0
31.1645 144.0
31.1743 143.0
31.1842 143.0
31.194 128.0
31.2039 132.0
31.2137 131.0
31.2236 128.0
31.2334 126.0
31.2433 128.0
31.2531 137.0
31.263 135.0
31.2728 145.0
31.2827 140.0
31.2925 123.0
31.3024 159.0
31.3122 119.0
31.3221 131.0
31.3319 107.0
31.3418 150.0
31.3516 131.0
31.3614 127.0
31.3713 133.0
31.3811 137.0
31.391 139.0
31.4008 141.0
31.4107 127.0
31.4205 147.0
31.4304 132.0
31.4402 119.0
31.4501 117.0
31.4599 142.0
31.4698 114.0
31.4796 125.0
31.4895 138.0
31.4993 112.0
31.5092 134.0
31.519 133.0
31.5289 122.0
31.5387 128.0
31.5486 133.0
31.5584 132.0
31.5682 123.0
31.5781 122.0
31.5879 125.0
31.5978 130.0
31.6076 137.0
31.6175 136.0
31.6273 119.0
31.6372 117.0
31.647 139.0
31.6569 124.0
31.6667 148.0
31.6766 137.0
31.6864 123.0
31.6963 137.0
31.7061 139.0
31.716 122.0
31.7258 141.0
31.7357 120.0
31.7455 120.0
31.7554 133.0
31.7652 133.0
31.7751 139.0
31.7849 119.0
31.7947 127.0
31.8046 112.0
31.8144 135.0
31.8243 125.0
31.8341 105.0
31.844 114.0
31.8538 135.0
31.8637 133.0
31.8735 141.0
31.8834 125.0
31.8932 133.0
31.9031 131.0
31.9129 122.0
31.9228 121.0
31.9326 140.0
31.9425 118.0
31.9523 133.0
31.9622 121.0
31.972 128.0
31.9819 127.0
31.9917 123.0
32.0015 120.0
32.0114 134.0
32.0212 131.0
32.0311 139.0
32.0409 132.0
32.0508 126.0
32.0606 128.0
32.0705 126.0
32.0803 136.0
32.0902 117.0
32.1 149.0
32.1099 138.0
32.1197 128.0
32.1296 126.0
32.1394 141.0
32.1493 96.0
32.1591 129.0
32.169 159.0
32.1788 140.0
32.1887 125.0
32.1985 122.0
32.2083 144.0
32.2182 125.0
32.228 137.0
32.2379 130.0
32.2477 143.0
32.2576 144.0
32.2674 141.0
32.2773 124.0
32.2871 121.0
32.297 128.0
32.3068 145.0
32.3167 135.0
32.3265 138.0
32.3364 152.0
32.3462 128.0
32.3561 130.0
32.3659 132.0
32.3758 133.0
32.3856 109.0
32.3955 123.0
32.4053 131.0
32.4152 137.0
32.425 136.0
32.4348 140.0
32.4447 118.0
32.4545 150.0
32.4644 136.0
32.4742 133.0
32.4841 120.0
32.4939 124.0
32.5038 131.0
32.5136 134.0
32.5235 135.0
32.5333 158.0
32.5432 131.0
32.553 148.0
32.5629 117.0
32.5727 127.0
32.5826 125.0
32.5924 118.0
32.6023 120.0
32.6121 141.0
32.622 134.0
32.6318 132.0
32.6416 139.0
32.6515 127.0
32.6613 137.0
32.6712 157.0
32.681 145.0
32.6909 137.0
32.7007 144.0
32.7106 132.0
32.7204 129.0
32.7303 138.0
32.7401 142.0
32.75 121.0
32.7598 128.0
32.7697 109.0
32.7795 146.0
32.7894 137.0
32.7992 129.0
32.8091 120.0
32.8189 123.0
32.8288 137.0
32.8386 133.0
32.8485 141.0
32.8583 140.0
32.8681 121.0
32.878 131.0
32.8878 112.0
32.8977 135.0
32.9075 113.0
32.9174 109.0
32.9272 113.0
32.9371 120.0
32.9469 131.0
32.9568 132.0
32.9666 135.0
32.9765 113.0
32.9863 133.0
32.9962 137.0
33.006 137.0
33.0159 142.0
33.0257 129.0
33.0356 121.0
33.0454 140.0
33.0553 130.0
33.0651 129.0
33.0749 137.0
33.0848 140.0
33.0946 122.0
33.1045 124.0
33.1143 147.0
33.1242 134.0
33.134 117.0
33.1439 128.0
33.1537 120.0
33.1636 130.0
33.1734 100.0
33.1833 146.0
33.1931 145.0
33.203 140.0
33.2128 97.0
33.2227 124.0
33.2325 121.0
33.2424 156.0
33.2522 117.0
33.2621 136.0
33.2719 139.0
33.2818 132.0
33.2916 155.0
33.3014 113.0
33.3113 133.0
33.3211 137.0
33.331 127.0
33.3408 112.0
33.3507 113.0
33.3605 126.0
33.3704 145.0
33.3802 125.0
33.3901 126.0
33.3999 130.0
33.4098 156.0
33.4196 136.0
33.4295 123.0
33.4393 139.0
33.4492 124.0
33.459 144.0
33.4689 118.0
33.4787 153.0
33.4886 111.0
33.4984 134.0
33.5082 127.0
33.5181 138.0
33.5279 118.0
33.5378 130.0
33.5476 138.0
33.5575 129.0
33.5673 137.0
33.5772 119.0
33.587 121.0
33.5969 133.0
33.6067 130.0
33.6166 121.0
33.6264 132.0
33.6363 144.0
33.6461 133.0
33.656 120.0
33.6658 115.0
33.6757 115.0
33.6855 135.0
33.6954 148.0
33.7052 132.0
33.715 161.0
33.7249 153.0
33.7347 132.0
33.7446 109.0
33.7544 134.0
33.7643 138.0
33.7741 137.0
33.784 151.0
33.7938 149.0
33.8037 122.0
33.8135 157.0
33.8234 147.0
33.8332 150.0
33.8431 174.0
33.8529 155.0
33.8628 147.0
33.8726 144.0
33.8825 170.0
33.8923 187.0
33.9022 187.0
33.912 260.0
33.9219 415.0
33.9317 624.0
33.9415 957.0
33.9514 1269.0
33.9612 1344.0
33.9711 1341.0
33.9809 1216.0
33.9908 997.0
34.0006 665.0
34.0105 446.0
34.0203 323.0
34.0302 229.0
34.04 232.0
34.0499 195.0
34.0597 201.0
34.0696 176.0
34.0794 204.0
34.0893 168.0
34.0991 171.0
34.109 173.0
34.1188 151.0
34.1287 160.0
34.1385 181.0
34.1483 165.0
34.1582 173.0
34.168 155.0
34.1779 144.0
34.1877 140.0
34.1976 158.0
34.2074 161.0
34.2173 165.0
34.2271 151.0
34.237 135.0
34.2468 138.0
34.2567 133.0
34.2665 162.0
34.2764 136.0
34.2862 153.0
34.2961 160.0
34.3059 154.0
34.3158 135.0
34.3256 128.0
34.3355 160.0
34.3453 130.0
34.3552 131.0
34.365 131.0
34.3748 143.0
34.3847 142.0
34.3945 125.0
34.4044 139.0
34.4142 161.0
34.4241 168.0
34.4339 140.0
34.4438 156.0
34.4536 152.0
34.4635 138.0
34.4733 134.0
34.4832 146.0
34.493 134.0
34.5029 136.0
34.5127 149.0
34.5226 160.0
34.5324 145.0
34.5423 163.0
34.5521 138.0
34.562 148.0
34.5718 155.0
34.5816 148.0
34.5915 158.0
34.6013 149.0
34.6112 167.0
34.621 137.0
34.6309 140.0
34.6407 164.0
34.6506 152.0
34.6604 144.0
34.6703 144.0
34.6801 141.0
34.69 145.0
34.6998 152.0
34.7097 125.0
34.7195 153.0
34.7294 174.0
34.7392 154.0
34.7491 141.0
34.7589 162.0
34.7688 136.0
34.7786 144.0
34.7884 165.0
34.7983 161.0
34.8081 138.0
34.818 157.0
34.8278 167.0
34.8377 150.0
34.8475 148.0
34.8574 161.0
34.8672 147.0
34.8771 151.0
34.8869 146.0
34.8968 158.0
34.9066 151.0
34.9165 141.0
34.9263 159.0
34.9362 148.0
34.946 139.0
34.9559 131.0
34.9657 166.0
34.9756 148.0
34.9854 162.0
34.9953 156.0
35.0051 155.0
35.0149 162.0
35.0248 161.0
35.0346 178.0
35.0445 154.0
35.0543 143.0
35.0642 147.0
35.074 139.0
35.0839 148.0
35.0937 156.0
35.1036 171.0
35.1134 168.0
35.1233 165.0
35.1331 141.0
35.143 137.0
35.1528 146.0
35.1627 167.0
35.1725 193.0
35.1824 154.0
35.1922 137.0
35.2021 178.0
35.2119 179.0
35.2217 171.0
35.2316 161.0
35.2414 173.0
35.2513 148.0
35.2611 157.0
35.271 176.0
35.2808 173.0
35.2907 185.0
35.3005 154.0
35.3104 175.0
35.3202 163.0
35.3301 178.0
35.3399 194.0
35.3498 177.0
35.3596 164.0
35.3695 160.0
35.3793 184.0
35.3892 150.0
35.399 189.0
35.4089 167.0
35.4187 175.0
35.4286 171.0
35.4384 163.0
35.4482 183.0
35.4581 174.0
35.4679 177.0
35.4778 182.0
35.4876 171.0
35.4975 147.0
35.5073 197.0
35.5172 175.0
35.527 217.0
35.5369 188.0
35.5467 202.0
35.5566 207.0
35.5664 199.0
35.5763 207.0
35.5861 222.0
35.596 207.0
35.6058 210.0
35.6157 198.0
35.6255 229.0
35.6354 212.0
35.6452 199.0
35.655 229.0
35.6649 263.0
35.6747 219.0
35.6846 261.0
35.6944 204.0
35.7043 230.0
35.7141 242.0
35.724 232.0
35.7338 278.0
35.7437 222.0
35.7535 232.0
35.7634 289.0
35.7732 260.0
35.7831 274.0
35.7929 261.0
35.8028 287.0
35.8126 320.0
35.8225 323.0
35.8323 345.0
35.8422 335.0
35.852 392.0
35.8619 393.0
35.8717 404.0
35.8815 486.0
35.8914 493.0
35.9012 578.0
35.9111 611.0
35.9209 650.0
35.9308 763.0
35.9406 786.0
35.9505 872.0
35.9603 856.0
35.9702 966.0
35.98 1034.0
35.9899 1079.0
35.9997 1169.0
36.0096 1198.0
36.0194 1354.0
36.0293 1392.0
36.0391 1454.0
36.049 1502.0
36.0588 1584.0
36.0687 1690.0
36.0785 1828.0
36.0883 1765.0
36.0982 1872.0
36.108 1917.0
36.1179 1944.0
36.1277 1931.0
36.1376 1999.0
36.1474 2087.0
36.1573 2013.0
36.1671 2002.0
36.177 2071.0
36.1868 2000.0
36.1967 1912.0
36.2065 1979.0
36.2164 1909.0
36.2262 1848.0
36.2361 1888.0
36.2459 1755.0
36.2558 1756.0
36.2656 1654.0
36.2755 1652.0
36.2853 1621.0
36.2951 1466.0
36.305 1450.0
36.3148 1348.0
36.3247 1336.0
36.3345 1221.0
36.3444 1179.0
36.3542 1091.0
36.3641 1035.0
36.3739 995.0
36.3838 883.0
36.3936 821.0
36.4035 795.0
36.4133 775.0
36.4232 631.0
36.433 609.0
36.4429 678.0
36.4527 550.0
36.4626 550.0
36.4724 505.0
36.4823 477.0
36.4921 421.0
36.502 423.0
36.5118 436.0
36.5216 409.0
36.5315 400.0
36.5413 419.0
36.5512 404.0
36.561 368.0
36.5709 376.0
36.5807 336.0
36.5906 376.0
36.6004 368.0
36.6103 377.0
36.6201 369.0
36.63 395.0
36.6398 361.0
36.6497 362.0
36.6595 382.0
36.6694 416.0
36.6792 404.0
36.6891 377.0
36.6989 385.0
36.7088 391.0
36.7186 382.0
36.7284 427.0
36.7383 429.0
36.7481 408.0
36.758 450.0
36.7678 422.0
36.7777 392.0
36.7875 420.0
36.7974 402.0
36.8072 399.0
36.8171 429.0
36.8269 426.0
36.8368 450.0
36.8466 420.0
36.8565 430.0
36.8663 431.0
36.8762 469.0
36.886 448.0
36.8959 461.0
36.9057 453.0
36.9156 494.0
36.9254 511.0
36.9353 504.0
36.9451 514.0
36.9549 515.0
36.9648 507.0
36.9746 507.0
36.9845 532.0
36.9943 524.0
37.0042 561.0
37.014 536.0
37.0239 535.0
37.0337 559.0
37.0436 584.0
37.0534 556.0
37.0633 521.0
37.0731 564.0
37.083 601.0
37.0928 578.0
37.1027 591.0
37.1125 616.0
37.1224 626.0
37.1322 586.0
37.1421 620.0
37.1519 722.0
37.1617 621.0
37.1716 682.0
37.1814 674.0
37.1913 695.0
37.2011 706.0
37.211 754.0
37.2208 780.0
37.2307 709.0
37.2405 796.0
37.2504 716.0
37.2602 811.0
37.2701 802.0
37.2799 831.0
37.2898 847.0
37.2996 883.0
37.3095 913.0
37.3193 893.0
37.3292 929.0
37.339 1059.0
37.3489 1010.0
37.3587 1031.0
37.3686 1141.0
37.3784 1146.0
37.3882 1144.0
37.3981 1216.0
37.4079 1271.0
37.4178 1308.0
37.4276 1412.0
37.4375 1406.0
37.4473 1458.0
37.4572 1546.0
37.467 1620.0
37.4769 1774.0
37.4867 1944.0
37.4966 2140.0
37.5064 2642.0
37.5163 3092.0
37.5261 3601.0
37.536 4249.0
37.5458 4867.0
37.5557 5155.0
37.5655 5388.0
37.5754 5308.0
37.5852 5230.0
37.595 5471.0
37.6049 5674.0
37.6147 5967.0
37.6246 6858.0
37.6344 8442.0
37.6443 10499.0
37.6541 14281.0
37.664 20882.0
37.6738 34824.0
37.6837 76778.0
37.6935 197105.0
37.7034 307735.0
37.7132 346786.0
37.7231 359047.0
37.7329 351265.0
37.7428 294276.0
37.7526 154332.0
37.7625 70406.0
37.7723 47480.0
37.7822 60613.0
37.792 113440.0
37.8018 160695.0
37.8117 177881.0
37.8215 180507.0
37.8314 172464.0
37.8412 137293.0
37.8511 73077.0
37.8609 32428.0
37.8708 17657.0
37.8806 11367.0
37.8905 8313.0
37.9003 6793.0
37.9102 5775.0
37.92 4701.0
37.9299 4200.0
37.9397 3714.0
37.9496 3335.0
37.9594 3044.0
37.9693 2746.0
37.9791 2565.0
37.989 2374.0
37.9988 2160.0
38.0087 2033.0
38.0185 1929.0
38.0283 1784.0
38.0382 1688.0
38.048 1624.0
38.0579 1536.0
38.0677 1433.0
38.0776 1386.0
38.0874 1353.0
38.0973 1360.0
38.1071 1297.0
38.117 1220.0
38.1268 1111.0
38.1367 1084.0
38.1465 1033.0
38.1564 1006.0
38.1662 900.0
38.1761 932.0
38.1859 896.0
38.1958 836.0
38.2056 827.0
38.2155 782.0
38.2253 767.0
38.2351 761.0
38.245 760.0
38.2548 698.0
38.2647 656.0
38.2745 624.0
38.2844 646.0
38.2942 636.0
38.3041 590.0
38.3139 578.0
38.3238 498.0
38.3336 578.0
38.3435 508.0
38.3533 484.0
38.3632 479.0
38.373 457.0
38.3829 460.0
38.3927 444.0
38.4026 396.0
38.4124 431.0
38.4223 434.0
38.4321 415.0
38.442 373.0
38.4518 390.0
38.4616 392.0
38.4715 360.0
38.4813 408.0
38.4912 355.0
38.501 318.0
38.5109 298.0
38.5207 323.0
38.5306 344.0
38.5404 297.0
38.5503 293.0
38.5601 314.0
38.57 309.0
38.5798 295.0
38.5897 265.0
38.5995 322.0
38.6094 287.0
38.6192 272.0
38.6291 276.0
38.6389 272.0
38.6488 227.0
38.6586 283.0
38.6684 261.0
38.6783 225.0
38.6881 269.0
38.698 256.0
38.7078 226.0
38.7177 210.0
38.7275 228.0
38.7374 231.0
38.7472 224.0
38.7571 220.0
38.7669 229.0
38.7768 232.0
38.7866 200.0
38.7965 193.0
38.8063 216.0
38.8162 204.0
38.826 179.0
38.8359 205.0
38.8457 190.0
38.8556 209.0
38.8654 226.0
38.8753 199.0
38.8851 202.0
38.8949 169.0
38.9048 184.0
38.9146 212.0
38.9245 195.0
38.9343 177.0
38.9442 173.0
38.954 202.0
38.9639 171.0
38.9737 185.0
38.9836 209.0
38.9934 201.0
39.0033 204.0
39.0131 193.0
39.023 140.0
39.0328 149.0
39.0427 197.0
39.0525 161.0
39.0624 217.0
39.0722 159.0
39.0821 165.0
39.0919 182.0
39.1017 162.0
39.1116 152.0
39.1214 175.0
39.1313 186.0
39.1411 163.0
39.151 180.0
39.1608 168.0
39.1707 177.0
39.1805 184.0
39.1904 177.0
39.2002 171.0
39.2101 164.0
39.2199 163.0
39.2298 146.0
39.2396 151.0
39.2495 139.0
39.2593 158.0
39.2692 146.0
39.279 171.0
39.2889 174.0
39.2987 133.0
39.3085 166.0
39.3184 171.0
39.3282 153.0
39.3381 165.0
39.3479 170.0
39.3578 165.0
39.3676 150.0
39.3775 157.0
39.3873 150.0
39.3972 163.0
39.407 157.0
39.4169 165.0
39.4267 133.0
39.4366 151.0
39.4464 173.0
39.4563 150.0
39.4661 149.0
39.476 167.0
39.4858 150.0
39.4957 130.0
39.5055 110.0
39.5154 194.0
39.5252 145.0
39.535 170.0
39.5449 152.0
39.5547 149.0
39.5646 169.0
39.5744 158.0
39.5843 151.0
39.5941 136.0
39.604 139.0
39.6138 156.0
39.6237 150.0
39.6335 151.0
39.6434 158.0
39.6532 155.0
39.6631 147.0
39.6729 142.0
39.6828 139.0
39.6926 153.0
39.7025 143.0
39.7123 152.0
39.7222 159.0
39.732 118.0
39.7418 152.0
39.7517 132.0
39.7615 162.0
39.7714 159.0
39.7812 156.0
39.7911 161.0
39.8009 155.0
39.8108 142.0
39.8206 133.0
39.8305 160.0
39.8403 132.0
39.8502 149.0
39.86 131.0
39.8699 161.0
39.8797 133.0
39.8896 131.0
39.8994 156.0
39.9093 131.0
39.9191 134.0
39.929 149.0
39.9388 124.0
39.9487 125.0
39.9585 124.0
39.9683 159.0
39.9782 133.0
39.988 151.0
39.9979 132.0