File: data/W6777c/XRD_2ThetaOmega/W6777c_absolute_2th-om_10-130deg_PIXscan_17min_5.xy
10.0035 37.0
10.0872 23.0
10.1709 30.0
10.2546 31.0
10.3383 29.0
10.422 45.0
10.5057 30.0
10.5894 35.0
10.6731 34.0
10.7568 32.0
10.8405 37.0
10.9242 26.0
11.0079 38.0
11.0916 21.0
11.1753 21.0
11.259 28.0
11.3428 30.0
11.4265 26.0
11.5102 30.0
11.5939 35.0
11.6776 30.0
11.7613 27.0
11.845 34.0
11.9287 35.0
12.0124 26.0
12.0961 27.0
12.1798 25.0
12.2635 37.0
12.3472 31.0
12.4309 27.0
12.5146 29.0
12.5983 28.0
12.682 29.0
12.7657 29.0
12.8495 21.0
12.9332 23.0
13.0169 26.0
13.1006 23.0
13.1843 29.0
13.268 28.0
13.3517 19.0
13.4354 31.0
13.5191 29.0
13.6028 35.0
13.6865 33.0
13.7702 20.0
13.8539 25.0
13.9376 23.0
14.0213 26.0
14.105 23.0
14.1887 27.0
14.2724 18.0
14.3562 24.0
14.4399 18.0
14.5236 25.0
14.6073 23.0
14.691 21.0
14.7747 22.0
14.8584 26.0
14.9421 26.0
15.0258 16.0
15.1095 27.0
15.1932 23.0
15.2769 27.0
15.3606 23.0
15.4443 22.0
15.528 26.0
15.6117 33.0
15.6954 19.0
15.7791 32.0
15.8629 18.0
15.9466 19.0
16.0303 24.0
16.114 15.0
16.1977 21.0
16.2814 24.0
16.3651 19.0
16.4488 30.0
16.5325 33.0
16.6162 18.0
16.6999 15.0
16.7836 20.0
16.8673 18.0
16.951 23.0
17.0347 22.0
17.1184 23.0
17.2021 31.0
17.2858 24.0
17.3696 18.0
17.4533 28.0
17.537 22.0
17.6207 31.0
17.7044 25.0
17.7881 31.0
17.8718 32.0
17.9555 22.0
18.0392 16.0
18.1229 20.0
18.2066 21.0
18.2903 18.0
18.374 22.0
18.4577 27.0
18.5414 25.0
18.6251 17.0
18.7088 20.0
18.7925 23.0
18.8763 21.0
18.96 29.0
19.0437 19.0
19.1274 25.0
19.2111 17.0
19.2948 22.0
19.3785 24.0
19.4622 19.0
19.5459 30.0
19.6296 23.0
19.7133 17.0
19.797 24.0
19.8807 21.0
19.9644 13.0
20.0481 23.0
20.1318 21.0
20.2155 26.0
20.2992 22.0
20.383 15.0
20.4667 46.0
20.5504 21.0
20.6341 26.0
20.7178 13.0
20.8015 18.0
20.8852 29.0
20.9689 16.0
21.0526 18.0
21.1363 29.0
21.22 26.0
21.3037 22.0
21.3874 14.0
21.4711 17.0
21.5548 29.0
21.6385 18.0
21.7222 17.0
21.8059 19.0
21.8897 24.0
21.9734 14.0
22.0571 22.0
22.1408 20.0
22.2245 20.0
22.3082 16.0
22.3919 15.0
22.4756 21.0
22.5593 22.0
22.643 15.0
22.7267 22.0
22.8104 17.0
22.8941 23.0
22.9778 17.0
23.0615 11.0
23.1452 11.0
23.2289 19.0
23.3126 19.0
23.3964 19.0
23.4801 16.0
23.5638 21.0
23.6475 16.0
23.7312 21.0
23.8149 13.0
23.8986 15.0
23.9823 16.0
24.066 14.0
24.1497 23.0
24.2334 16.0
24.3171 13.0
24.4008 16.0
24.4845 11.0
24.5682 14.0
24.6519 16.0
24.7356 27.0
24.8193 16.0
24.9031 10.0
24.9868 25.0
25.0705 11.0
25.1542 15.0
25.2379 16.0
25.3216 12.0
25.4053 22.0
25.489 18.0
25.5727 15.0
25.6564 12.0
25.7401 13.0
25.8238 11.0
25.9075 24.0
25.9912 15.0
26.0749 14.0
26.1586 22.0
26.2423 15.0
26.326 16.0
26.4098 14.0
26.4935 14.0
26.5772 7.0
26.6609 18.0
26.7446 20.0
26.8283 16.0
26.912 18.0
26.9957 17.0
27.0794 21.0
27.1631 11.0
27.2468 20.0
27.3305 16.0
27.4142 17.0
27.4979 10.0
27.5816 12.0
27.6653 11.0
27.749 19.0
27.8327 11.0
27.9165 10.0
28.0002 24.0
28.0839 10.0
28.1676 17.0
28.2513 15.0
28.335 14.0
28.4187 18.0
28.5024 16.0
28.5861 11.0
28.6698 23.0
28.7535 12.0
28.8372 18.0
28.9209 7.0
29.0046 16.0
29.0883 17.0
29.172 12.0
29.2557 12.0
29.3394 7.0
29.4232 17.0
29.5069 15.0
29.5906 15.0
29.6743 24.0
29.758 17.0
29.8417 13.0
29.9254 17.0
30.0091 18.0
30.0928 18.0
30.1765 19.0
30.2602 10.0
30.3439 11.0
30.4276 4.0
30.5113 12.0
30.595 18.0
30.6787 14.0
30.7624 13.0
30.8461 13.0
30.9298 14.0
31.0136 20.0
31.0973 6.0
31.181 11.0
31.2647 16.0
31.3484 14.0
31.4321 20.0
31.5158 15.0
31.5995 21.0
31.6832 22.0
31.7669 20.0
31.8506 20.0
31.9343 11.0
32.018 14.0
32.1017 17.0
32.1854 13.0
32.2691 9.0
32.3528 22.0
32.4365 15.0
32.5203 13.0
32.604 16.0
32.6877 16.0
32.7714 12.0
32.8551 18.0
32.9388 17.0
33.0225 12.0
33.1062 10.0
33.1899 8.0
33.2736 11.0
33.3573 15.0
33.441 13.0
33.5247 17.0
33.6084 12.0
33.6921 16.0
33.7758 15.0
33.8595 14.0
33.9432 13.0
34.027 11.0
34.1107 19.0
34.1944 16.0
34.2781 15.0
34.3618 8.0
34.4455 13.0
34.5292 13.0
34.6129 29.0
34.6966 16.0
34.7803 19.0
34.864 16.0
34.9477 14.0
35.0314 11.0
35.1151 14.0
35.1988 14.0
35.2825 10.0
35.3662 15.0
35.4499 22.0
35.5337 13.0
35.6174 21.0
35.7011 14.0
35.7848 14.0
35.8685 16.0
35.9522 22.0
36.0359 18.0
36.1196 23.0
36.2033 16.0
36.287 14.0
36.3707 14.0
36.4544 11.0
36.5381 11.0
36.6218 19.0
36.7055 13.0
36.7892 9.0
36.8729 17.0
36.9566 19.0
37.0404 15.0
37.1241 22.0
37.2078 14.0
37.2915 24.0
37.3752 15.0
37.4589 28.0
37.5426 23.0
37.6263 19.0
37.71 20.0
37.7937 19.0
37.8774 23.0
37.9611 15.0
38.0448 27.0
38.1285 16.0
38.2122 16.0
38.2959 35.0
38.3796 22.0
38.4633 19.0
38.5471 25.0
38.6308 30.0
38.7145 33.0
38.7982 47.0
38.8819 59.0
38.9656 68.0
39.0493 145.0
39.133 306.0
39.2167 464.0
39.3004 677.0
39.3841 863.0
39.4678 721.0
39.5515 432.0
39.6352 214.0
39.7189 112.0
39.8026 109.0
39.8863 42.0
39.97 29.0
40.0538 25.0
40.1375 24.0
40.2212 27.0
40.3049 24.0
40.3886 34.0
40.4723 19.0
40.556 26.0
40.6397 21.0
40.7234 29.0
40.8071 25.0
40.8908 31.0
40.9745 21.0
41.0582 16.0
41.1419 20.0
41.2256 32.0
41.3093 50.0
41.393 67.0
41.4767 89.0
41.5605 956.0
41.6442 1818.0
41.7279 3478.0
41.8116 114.0
41.8953 57.0
41.979 44.0
42.0627 40.0
42.1464 27.0
42.2301 30.0
42.3138 22.0
42.3975 23.0
42.4812 18.0
42.5649 22.0
42.6486 19.0
42.7323 14.0
42.816 19.0
42.8997 16.0
42.9834 9.0
43.0672 8.0
43.1509 21.0
43.2346 14.0
43.3183 17.0
43.402 20.0
43.4857 15.0
43.5694 13.0
43.6531 13.0
43.7368 15.0
43.8205 13.0
43.9042 15.0
43.9879 18.0
44.0716 25.0
44.1553 28.0
44.239 29.0
44.3227 25.0
44.4064 23.0
44.4901 21.0
44.5739 25.0
44.6576 25.0
44.7413 22.0
44.825 8.0
44.9087 20.0
44.9924 20.0
45.0761 23.0
45.1598 11.0
45.2435 11.0
45.3272 16.0
45.4109 9.0
45.4946 13.0
45.5783 21.0
45.662 15.0
45.7457 14.0
45.8294 11.0
45.9131 17.0
45.9968 18.0
46.0806 15.0
46.1643 11.0
46.248 12.0
46.3317 13.0
46.4154 8.0
46.4991 18.0
46.5828 16.0
46.6665 17.0
46.7502 17.0
46.8339 17.0
46.9176 13.0
47.0013 12.0
47.085 9.0
47.1687 13.0
47.2524 14.0
47.3361 19.0
47.4198 15.0
47.5035 11.0
47.5873 16.0
47.671 15.0
47.7547 12.0
47.8384 16.0
47.9221 10.0
48.0058 15.0
48.0895 11.0
48.1732 13.0
48.2569 10.0
48.3406 24.0
48.4243 21.0
48.508 12.0
48.5917 12.0
48.6754 17.0
48.7591 19.0
48.8428 14.0
48.9265 16.0
49.0102 12.0
49.094 14.0
49.1777 7.0
49.2614 11.0
49.3451 15.0
49.4288 15.0
49.5125 14.0
49.5962 21.0
49.6799 18.0
49.7636 18.0
49.8473 12.0
49.931 9.0
50.0147 10.0
50.0984 13.0
50.1821 17.0
50.2658 6.0
50.3495 9.0
50.4332 12.0
50.5169 12.0
50.6007 19.0
50.6844 14.0
50.7681 14.0
50.8518 14.0
50.9355 16.0
51.0192 16.0
51.1029 17.0
51.1866 14.0
51.2703 16.0
51.354 6.0
51.4377 15.0
51.5214 8.0
51.6051 14.0
51.6888 9.0
51.7725 15.0
51.8562 11.0
51.9399 12.0
52.0236 12.0
52.1074 18.0
52.1911 15.0
52.2748 7.0
52.3585 16.0
52.4422 13.0
52.5259 8.0
52.6096 15.0
52.6933 15.0
52.777 11.0
52.8607 9.0
52.9444 12.0
53.0281 13.0
53.1118 14.0
53.1955 21.0
53.2792 15.0
53.3629 17.0
53.4466 14.0
53.5303 20.0
53.6141 7.0
53.6978 9.0
53.7815 12.0
53.8652 15.0
53.9489 24.0
54.0326 13.0
54.1163 6.0
54.2 11.0
54.2837 9.0
54.3674 20.0
54.4511 12.0
54.5348 13.0
54.6185 13.0
54.7022 18.0
54.7859 19.0
54.8696 15.0
54.9533 17.0
55.037 12.0
55.1208 12.0
55.2045 11.0
55.2882 12.0
55.3719 14.0
55.4556 14.0
55.5393 9.0
55.623 17.0
55.7067 13.0
55.7904 18.0
55.8741 19.0
55.9578 13.0
56.0415 20.0
56.1252 16.0
56.2089 12.0
56.2926 9.0
56.3763 10.0
56.46 16.0
56.5437 12.0
56.6275 12.0
56.7112 10.0
56.7949 21.0
56.8786 12.0
56.9623 13.0
57.046 13.0
57.1297 13.0
57.2134 15.0
57.2971 17.0
57.3808 14.0
57.4645 18.0
57.5482 18.0
57.6319 10.0
57.7156 13.0
57.7993 11.0
57.883 16.0
57.9667 17.0
58.0504 11.0
58.1342 24.0
58.2179 16.0
58.3016 9.0
58.3853 8.0
58.469 17.0
58.5527 12.0
58.6364 18.0
58.7201 20.0
58.8038 9.0
58.8875 7.0
58.9712 14.0
59.0549 15.0
59.1386 6.0
59.2223 16.0
59.306 20.0
59.3897 12.0
59.4734 10.0
59.5571 18.0
59.6409 9.0
59.7246 15.0
59.8083 10.0
59.892 14.0
59.9757 17.0
60.0594 10.0
60.1431 10.0
60.2268 18.0
60.3105 17.0
60.3942 11.0
60.4779 8.0
60.5616 11.0
60.6453 9.0
60.729 15.0
60.8127 11.0
60.8964 12.0
60.9801 11.0
61.0638 14.0
61.1476 14.0
61.2313 13.0
61.315 9.0
61.3987 13.0
61.4824 15.0
61.5661 8.0
61.6498 13.0
61.7335 14.0
61.8172 9.0
61.9009 10.0
61.9846 14.0
62.0683 12.0
62.152 11.0
62.2357 12.0
62.3194 10.0
62.4031 14.0
62.4868 15.0
62.5705 11.0
62.6543 13.0
62.738 11.0
62.8217 17.0
62.9054 21.0
62.9891 17.0
63.0728 14.0
63.1565 17.0
63.2402 18.0
63.3239 19.0
63.4076 20.0
63.4913 14.0
63.575 16.0
63.6587 14.0
63.7424 7.0
63.8261 14.0
63.9098 17.0
63.9935 15.0
64.0772 10.0
64.161 10.0
64.2447 16.0
64.3284 12.0
64.4121 17.0
64.4958 8.0
64.5795 15.0
64.6632 15.0
64.7469 13.0
64.8306 16.0
64.9143 23.0
64.998 15.0
65.0817 18.0
65.1654 13.0
65.2491 8.0
65.3328 11.0
65.4165 14.0
65.5002 15.0
65.5839 11.0
65.6677 16.0
65.7514 18.0
65.8351 18.0
65.9188 11.0
66.0025 12.0
66.0862 11.0
66.1699 15.0
66.2536 17.0
66.3373 16.0
66.421 8.0
66.5047 17.0
66.5884 14.0
66.6721 14.0
66.7558 18.0
66.8395 16.0
66.9232 11.0
67.0069 14.0
67.0906 12.0
67.1744 9.0
67.2581 17.0
67.3418 15.0
67.4255 24.0
67.5092 12.0
67.5929 14.0
67.6766 14.0
67.7603 16.0
67.844 13.0
67.9277 16.0
68.0114 13.0
68.0951 12.0
68.1788 15.0
68.2625 14.0
68.3462 18.0
68.4299 16.0
68.5136 18.0
68.5973 8.0
68.6811 13.0
68.7648 15.0
68.8485 16.0
68.9322 22.0
69.0159 7.0
69.0996 17.0
69.1833 20.0
69.267 9.0
69.3507 18.0
69.4344 18.0
69.5181 17.0
69.6018 8.0
69.6855 9.0
69.7692 9.0
69.8529 13.0
69.9366 14.0
70.0203 13.0
70.104 22.0
70.1878 20.0
70.2715 11.0
70.3552 13.0
70.4389 5.0
70.5226 14.0
70.6063 14.0
70.69 15.0
70.7737 15.0
70.8574 10.0
70.9411 22.0
71.0248 10.0
71.1085 11.0
71.1922 17.0
71.2759 12.0
71.3596 10.0
71.4433 16.0
71.527 22.0
71.6107 14.0
71.6945 14.0
71.7782 14.0
71.8619 14.0
71.9456 11.0
72.0293 20.0
72.113 14.0
72.1967 11.0
72.2804 11.0
72.3641 17.0
72.4478 13.0
72.5315 20.0
72.6152 7.0
72.6989 15.0
72.7826 18.0
72.8663 17.0
72.95 19.0
73.0337 12.0
73.1174 13.0
73.2012 20.0
73.2849 15.0
73.3686 13.0
73.4523 17.0
73.536 7.0
73.6197 19.0
73.7034 20.0
73.7871 15.0
73.8708 14.0
73.9545 8.0
74.0382 12.0
74.1219 19.0
74.2056 11.0
74.2893 21.0
74.373 16.0
74.4567 18.0
74.5404 16.0
74.6241 18.0
74.7079 13.0
74.7916 14.0
74.8753 19.0
74.959 10.0
75.0427 13.0
75.1264 12.0
75.2101 18.0
75.2938 10.0
75.3775 17.0
75.4612 13.0
75.5449 9.0
75.6286 13.0
75.7123 14.0
75.796 16.0
75.8797 16.0
75.9634 14.0
76.0471 12.0
76.1308 16.0
76.2146 12.0
76.2983 19.0
76.382 23.0
76.4657 20.0
76.5494 15.0
76.6331 16.0
76.7168 15.0
76.8005 11.0
76.8842 14.0
76.9679 12.0
77.0516 11.0
77.1353 11.0
77.219 14.0
77.3027 11.0
77.3864 13.0
77.4701 12.0
77.5538 8.0
77.6375 17.0
77.7213 17.0
77.805 9.0
77.8887 7.0
77.9724 18.0
78.0561 9.0
78.1398 14.0
78.2235 15.0
78.3072 10.0
78.3909 17.0
78.4746 13.0
78.5583 12.0
78.642 15.0
78.7257 16.0
78.8094 15.0
78.8931 13.0
78.9768 14.0
79.0605 11.0
79.1442 14.0
79.228 17.0
79.3117 17.0
79.3954 13.0
79.4791 11.0
79.5628 11.0
79.6465 23.0
79.7302 14.0
79.8139 21.0
79.8976 19.0
79.9813 30.0
80.065 27.0
80.1487 19.0
80.2324 18.0
80.3161 14.0
80.3998 13.0
80.4835 18.0
80.5672 23.0
80.6509 16.0
80.7347 16.0
80.8184 10.0
80.9021 10.0
80.9858 11.0
81.0695 16.0
81.1532 16.0
81.2369 15.0
81.3206 20.0
81.4043 16.0
81.488 19.0
81.5717 9.0
81.6554 16.0
81.7391 19.0
81.8228 14.0
81.9065 14.0
81.9902 16.0
82.0739 15.0
82.1576 19.0
82.2414 17.0
82.3251 28.0
82.4088 17.0
82.4925 14.0
82.5762 14.0
82.6599 17.0
82.7436 14.0
82.8273 17.0
82.911 18.0
82.9947 12.0
83.0784 16.0
83.1621 15.0
83.2458 13.0
83.3295 24.0
83.4132 17.0
83.4969 10.0
83.5806 25.0
83.6643 23.0
83.7481 32.0
83.8318 24.0
83.9155 31.0
83.9992 28.0
84.0829 35.0
84.1666 39.0
84.2503 50.0
84.334 82.0
84.4177 85.0
84.5014 85.0
84.5851 118.0
84.6688 107.0
84.7525 148.0
84.8362 150.0
84.9199 150.0
85.0036 134.0
85.0873 110.0
85.171 102.0
85.2548 100.0
85.3385 75.0
85.4222 68.0
85.5059 48.0
85.5896 30.0
85.6733 39.0
85.757 35.0
85.8407 34.0
85.9244 61.0
86.0081 66.0
86.0918 41.0
86.1755 22.0
86.2592 20.0
86.3429 20.0
86.4266 20.0
86.5103 21.0
86.594 16.0
86.6777 18.0
86.7615 27.0
86.8452 17.0
86.9289 14.0
87.0126 21.0
87.0963 21.0
87.18 15.0
87.2637 17.0
87.3474 21.0
87.4311 15.0
87.5148 13.0
87.5985 17.0
87.6822 24.0
87.7659 18.0
87.8496 18.0
87.9333 10.0
88.017 19.0
88.1007 22.0
88.1844 19.0
88.2682 8.0
88.3519 21.0
88.4356 23.0
88.5193 15.0
88.603 12.0
88.6867 15.0
88.7704 21.0
88.8541 15.0
88.9378 31.0
89.0215 21.0
89.1052 28.0
89.1889 18.0
89.2726 32.0
89.3563 31.0
89.44 27.0
89.5237 20.0
89.6074 23.0
89.6911 29.0
89.7749 22.0
89.8586 24.0
89.9423 29.0
90.026 45.0
90.1097 66.0
90.1934 75.0
90.2771 75.0
90.3608 98.0
90.4445 120.0
90.5282 285.0
90.6119 2008.0
90.6956 7008.0
90.7793 623.0
90.863 532.0
90.9467 4851.0
91.0304 906.0
91.1141 168.0
91.1978 107.0
91.2816 87.0
91.3653 72.0
91.449 42.0
91.5327 40.0
91.6164 38.0
91.7001 25.0
91.7838 24.0
91.8675 25.0
91.9512 30.0
92.0349 26.0
92.1186 20.0
92.2023 18.0
92.286 35.0
92.3697 21.0
92.4534 27.0
92.5371 17.0
92.6208 28.0
92.7045 26.0
92.7883 22.0
92.872 28.0
92.9557 26.0
93.0394 25.0
93.1231 17.0
93.2068 24.0
93.2905 15.0
93.3742 14.0
93.4579 30.0
93.5416 23.0
93.6253 16.0
93.709 31.0
93.7927 16.0
93.8764 17.0
93.9601 16.0
94.0438 14.0
94.1275 18.0
94.2112 19.0
94.295 20.0
94.3787 14.0
94.4624 18.0
94.5461 19.0
94.6298 7.0
94.7135 15.0
94.7972 25.0
94.8809 15.0
94.9646 11.0
95.0483 14.0
95.132 14.0
95.2157 11.0
95.2994 16.0
95.3831 11.0
95.4668 21.0
95.5505 15.0
95.6342 11.0
95.7179 15.0
95.8017 9.0
95.8854 19.0
95.9691 18.0
96.0528 15.0
96.1365 18.0
96.2202 14.0
96.3039 16.0
96.3876 13.0
96.4713 16.0
96.555 17.0
96.6387 16.0
96.7224 16.0
96.8061 18.0
96.8898 14.0
96.9735 12.0
97.0572 12.0
97.1409 16.0
97.2246 21.0
97.3084 21.0
97.3921 8.0
97.4758 19.0
97.5595 12.0
97.6432 22.0
97.7269 10.0
97.8106 14.0
97.8943 12.0
97.978 8.0
98.0617 16.0
98.1454 16.0
98.2291 18.0
98.3128 12.0
98.3965 10.0
98.4802 16.0
98.5639 14.0
98.6476 24.0
98.7313 13.0
98.8151 21.0
98.8988 20.0
98.9825 21.0
99.0662 21.0
99.1499 13.0
99.2336 17.0
99.3173 15.0
99.401 18.0
99.4847 14.0
99.5684 14.0
99.6521 16.0
99.7358 14.0
99.8195 11.0
99.9032 12.0
99.9869 15.0
100.071 15.0
100.154 18.0
100.238 21.0
100.322 17.0
100.405 18.0
100.489 13.0
100.573 14.0
100.657 14.0
100.74 14.0
100.824 18.0
100.908 11.0
100.991 8.0
101.075 15.0
101.159 7.0
101.243 11.0
101.326 13.0
101.41 30.0
101.494 15.0
101.577 14.0
101.661 15.0
101.745 14.0
101.828 10.0
101.912 11.0
101.996 18.0
102.08 13.0
102.163 15.0
102.247 13.0
102.331 17.0
102.414 18.0
102.498 12.0
102.582 13.0
102.666 13.0
102.749 17.0
102.833 12.0
102.917 20.0
103 15.0
103.084 23.0
103.168 10.0
103.251 17.0
103.335 14.0
103.419 12.0
103.503 21.0
103.586 19.0
103.67 11.0
103.754 11.0
103.837 17.0
103.921 11.0
104.005 11.0
104.089 19.0
104.172 11.0
104.256 17.0
104.34 15.0
104.423 20.0
104.507 16.0
104.591 16.0
104.674 10.0
104.758 22.0
104.842 10.0
104.926 8.0
105.009 15.0
105.093 10.0
105.177 15.0
105.26 14.0
105.344 20.0
105.428 18.0
105.511 17.0
105.595 11.0
105.679 11.0
105.763 10.0
105.846 14.0
105.93 13.0
106.014 12.0
106.097 18.0
106.181 9.0
106.265 21.0
106.349 16.0
106.432 12.0
106.516 21.0
106.6 20.0
106.683 16.0
106.767 10.0
106.851 15.0
106.934 15.0
107.018 12.0
107.102 17.0
107.186 11.0
107.269 14.0
107.353 20.0
107.437 18.0
107.52 17.0
107.604 15.0
107.688 13.0
107.772 18.0
107.855 14.0
107.939 9.0
108.023 13.0
108.106 14.0
108.19 13.0
108.274 18.0
108.357 20.0
108.441 17.0
108.525 11.0
108.609 18.0
108.692 13.0
108.776 12.0
108.86 9.0
108.943 16.0
109.027 19.0
109.111 10.0
109.195 14.0
109.278 12.0
109.362 7.0
109.446 16.0
109.529 17.0
109.613 18.0
109.697 17.0
109.78 13.0
109.864 13.0
109.948 15.0
110.032 15.0
110.115 16.0
110.199 24.0
110.283 10.0
110.366 10.0
110.45 24.0
110.534 15.0
110.618 22.0
110.701 18.0
110.785 17.0
110.869 14.0
110.952 22.0
111.036 17.0
111.12 23.0
111.203 6.0
111.287 15.0
111.371 13.0
111.455 19.0
111.538 15.0
111.622 6.0
111.706 12.0
111.789 19.0
111.873 15.0
111.957 17.0
112.041 14.0
112.124 15.0
112.208 20.0
112.292 18.0
112.375 19.0
112.459 9.0
112.543 10.0
112.626 16.0
112.71 13.0
112.794 19.0
112.878 12.0
112.961 7.0
113.045 15.0
113.129 17.0
113.212 20.0
113.296 11.0
113.38 11.0
113.464 9.0
113.547 17.0
113.631 16.0
113.715 15.0
113.798 20.0
113.882 16.0
113.966 16.0
114.049 19.0
114.133 13.0
114.217 16.0
114.301 13.0
114.384 17.0
114.468 12.0
114.552 14.0
114.635 12.0
114.719 12.0
114.803 13.0
114.887 13.0
114.97 15.0
115.054 13.0
115.138 12.0
115.221 19.0
115.305 12.0
115.389 19.0
115.472 16.0
115.556 20.0
115.64 14.0
115.724 12.0
115.807 11.0
115.891 16.0
115.975 17.0
116.058 17.0
116.142 9.0
116.226 8.0
116.31 14.0
116.393 17.0
116.477 18.0
116.561 11.0
116.644 12.0
116.728 14.0
116.812 17.0
116.895 22.0
116.979 20.0
117.063 16.0
117.147 11.0
117.23 11.0
117.314 12.0
117.398 14.0
117.481 10.0
117.565 19.0
117.649 21.0
117.733 11.0
117.816 13.0
117.9 17.0
117.984 16.0
118.067 17.0
118.151 10.0
118.235 17.0
118.318 17.0
118.402 23.0
118.486 11.0
118.57 18.0
118.653 15.0
118.737 11.0
118.821 13.0
118.904 20.0
118.988 11.0
119.072 14.0
119.156 15.0
119.239 17.0
119.323 12.0
119.407 10.0
119.49 16.0
119.574 26.0
119.658 17.0
119.741 12.0
119.825 20.0
119.909 11.0
119.993 18.0
120.076 17.0
120.16 13.0
120.244 10.0
120.327 18.0
120.411 17.0
120.495 17.0
120.578 17.0
120.662 11.0
120.746 12.0
120.83 13.0
120.913 16.0
120.997 15.0
121.081 15.0
121.164 14.0
121.248 15.0
121.332 16.0
121.416 18.0
121.499 13.0
121.583 12.0
121.667 12.0
121.75 9.0
121.834 19.0
121.918 12.0
122.001 15.0
122.085 11.0
122.169 15.0
122.253 16.0
122.336 17.0
122.42 18.0
122.504 19.0
122.587 14.0
122.671 14.0
122.755 23.0
122.839 18.0
122.922 18.0
123.006 20.0
123.09 16.0
123.173 10.0
123.257 18.0
123.341 13.0
123.424 13.0
123.508 12.0
123.592 13.0
123.676 21.0
123.759 6.0
123.843 11.0
123.927 12.0
124.01 16.0
124.094 17.0
124.178 15.0
124.262 16.0
124.345 17.0
124.429 15.0
124.513 13.0
124.596 23.0
124.68 10.0
124.764 13.0
124.847 15.0
124.931 16.0
125.015 23.0
125.099 10.0
125.182 16.0
125.266 22.0
125.35 17.0
125.433 19.0
125.517 9.0
125.601 9.0
125.685 15.0
125.768 17.0
125.852 14.0
125.936 14.0
126.019 15.0
126.103 13.0
126.187 12.0
126.27 15.0
126.354 14.0
126.438 15.0
126.522 7.0
126.605 14.0
126.689 18.0
126.773 17.0
126.856 11.0
126.94 15.0
127.024 16.0
127.108 7.0
127.191 16.0
127.275 22.0
127.359 10.0
127.442 12.0
127.526 13.0
127.61 17.0
127.693 15.0
127.777 14.0
127.861 12.0
127.945 15.0
128.028 20.0
128.112 15.0
128.196 20.0
128.279 14.0
128.363 23.0
128.447 9.0
128.531 11.0
128.614 16.0
128.698 20.0
128.782 19.0
128.865 14.0
128.949 17.0
129.033 17.0
129.116 15.0
129.2 17.0
129.284 11.0
129.368 15.0
129.451 20.0
129.535 14.0
129.619 18.0
129.702 19.0
129.786 15.0
129.87 19.0
129.954 13.0
129.998 11.0