File: data/W6905r/XRD_2ThetaOmega/scan_2th-om_r2_Cr2O3_45-55deg_PIXscan_5min_C6.xy
45.0025 113.0
45.0123 133.0
45.0222 127.0
45.032 115.0
45.0419 131.0
45.0517 112.0
45.0615 126.0
45.0714 126.0
45.0812 105.0
45.0911 123.0
45.1009 130.0
45.1108 126.0
45.1206 112.0
45.1305 113.0
45.1403 123.0
45.1502 111.0
45.16 110.0
45.1699 125.0
45.1797 117.0
45.1896 106.0
45.1994 110.0
45.2093 119.0
45.2191 121.0
45.229 112.0
45.2388 103.0
45.2487 123.0
45.2585 130.0
45.2684 103.0
45.2782 117.0
45.288 133.0
45.2979 108.0
45.3077 127.0
45.3176 110.0
45.3274 107.0
45.3373 110.0
45.3471 102.0
45.357 119.0
45.3668 117.0
45.3767 99.0
45.3865 125.0
45.3964 100.0
45.4062 110.0
45.4161 111.0
45.4259 103.0
45.4358 107.0
45.4456 128.0
45.4555 117.0
45.4653 112.0
45.4752 118.0
45.485 116.0
45.4948 115.0
45.5047 107.0
45.5145 117.0
45.5244 112.0
45.5342 101.0
45.5441 128.0
45.5539 111.0
45.5638 112.0
45.5736 114.0
45.5835 109.0
45.5933 121.0
45.6032 102.0
45.613 107.0
45.6229 98.0
45.6327 130.0
45.6426 107.0
45.6524 96.0
45.6623 107.0
45.6721 117.0
45.682 117.0
45.6918 105.0
45.7016 136.0
45.7115 104.0
45.7213 112.0
45.7312 108.0
45.741 123.0
45.7509 111.0
45.7607 119.0
45.7706 122.0
45.7804 124.0
45.7903 110.0
45.8001 120.0
45.81 118.0
45.8198 103.0
45.8297 100.0
45.8395 107.0
45.8494 86.0
45.8592 102.0
45.8691 118.0
45.8789 126.0
45.8888 111.0
45.8986 98.0
45.9085 98.0
45.9183 109.0
45.9281 110.0
45.938 119.0
45.9478 117.0
45.9577 120.0
45.9675 125.0
45.9774 102.0
45.9872 107.0
45.9971 116.0
46.0069 120.0
46.0168 124.0
46.0266 124.0
46.0365 106.0
46.0463 108.0
46.0562 104.0
46.066 116.0
46.0759 116.0
46.0857 93.0
46.0956 102.0
46.1054 114.0
46.1153 140.0
46.1251 117.0
46.1349 126.0
46.1448 123.0
46.1546 102.0
46.1645 108.0
46.1743 115.0
46.1842 130.0
46.194 117.0
46.2039 106.0
46.2137 98.0
46.2236 117.0
46.2334 99.0
46.2433 120.0
46.2531 121.0
46.263 96.0
46.2728 128.0
46.2827 126.0
46.2925 127.0
46.3024 131.0
46.3122 118.0
46.3221 138.0
46.3319 118.0
46.3418 127.0
46.3516 113.0
46.3614 106.0
46.3713 99.0
46.3811 115.0
46.391 101.0
46.4008 121.0
46.4107 99.0
46.4205 98.0
46.4304 102.0
46.4402 128.0
46.4501 123.0
46.4599 102.0
46.4698 139.0
46.4796 101.0
46.4895 115.0
46.4993 115.0
46.5092 104.0
46.519 105.0
46.5289 112.0
46.5387 110.0
46.5486 107.0
46.5584 113.0
46.5682 119.0
46.5781 129.0
46.5879 119.0
46.5978 107.0
46.6076 121.0
46.6175 114.0
46.6273 114.0
46.6372 127.0
46.647 114.0
46.6569 136.0
46.6667 126.0
46.6766 116.0
46.6864 123.0
46.6963 138.0
46.7061 119.0
46.716 124.0
46.7258 115.0
46.7357 119.0
46.7455 124.0
46.7554 124.0
46.7652 122.0
46.7751 118.0
46.7849 124.0
46.7947 121.0
46.8046 128.0
46.8144 152.0
46.8243 120.0
46.8341 124.0
46.844 130.0
46.8538 107.0
46.8637 120.0
46.8735 128.0
46.8834 143.0
46.8932 127.0
46.9031 137.0
46.9129 135.0
46.9228 150.0
46.9326 120.0
46.9425 142.0
46.9523 141.0
46.9622 123.0
46.972 128.0
46.9819 139.0
46.9917 157.0
47.0015 166.0
47.0114 155.0
47.0212 190.0
47.0311 205.0
47.0409 229.0
47.0508 338.0
47.0606 421.0
47.0705 595.0
47.0803 885.0
47.0902 1199.0
47.1 1479.0
47.1099 1685.0
47.1197 1599.0
47.1296 1524.0
47.1394 1313.0
47.1493 989.0
47.1591 781.0
47.169 727.0
47.1788 698.0
47.1887 684.0
47.1985 657.0
47.2083 560.0
47.2182 519.0
47.228 378.0
47.2379 299.0
47.2477 259.0
47.2576 234.0
47.2674 199.0
47.2773 193.0
47.2871 170.0
47.297 171.0
47.3068 160.0
47.3167 160.0
47.3265 146.0
47.3364 135.0
47.3462 170.0
47.3561 146.0
47.3659 169.0
47.3758 131.0
47.3856 149.0
47.3955 146.0
47.4053 149.0
47.4152 104.0
47.425 149.0
47.4348 148.0
47.4447 138.0
47.4545 151.0
47.4644 131.0
47.4742 130.0
47.4841 158.0
47.4939 143.0
47.5038 157.0
47.5136 145.0
47.5235 148.0
47.5333 146.0
47.5432 106.0
47.553 126.0
47.5629 125.0
47.5727 132.0
47.5826 129.0
47.5924 119.0
47.6023 117.0
47.6121 137.0
47.622 146.0
47.6318 125.0
47.6416 149.0
47.6515 121.0
47.6613 103.0
47.6712 147.0
47.681 139.0
47.6909 130.0
47.7007 118.0
47.7106 115.0
47.7204 125.0
47.7303 125.0
47.7401 126.0
47.75 132.0
47.7598 127.0
47.7697 149.0
47.7795 128.0
47.7894 139.0
47.7992 135.0
47.8091 121.0
47.8189 147.0
47.8288 124.0
47.8386 112.0
47.8485 136.0
47.8583 106.0
47.8681 127.0
47.878 122.0
47.8878 137.0
47.8977 143.0
47.9075 133.0
47.9174 137.0
47.9272 147.0
47.9371 141.0
47.9469 149.0
47.9568 143.0
47.9666 136.0
47.9765 131.0
47.9863 134.0
47.9962 135.0
48.006 123.0
48.0159 135.0
48.0257 156.0
48.0356 133.0
48.0454 140.0
48.0553 131.0
48.0651 116.0
48.0749 142.0
48.0848 128.0
48.0946 135.0
48.1045 134.0
48.1143 136.0
48.1242 131.0
48.134 140.0
48.1439 145.0
48.1537 144.0
48.1636 133.0
48.1734 143.0
48.1833 128.0
48.1931 105.0
48.203 132.0
48.2128 136.0
48.2227 127.0
48.2325 125.0
48.2424 130.0
48.2522 126.0
48.2621 108.0
48.2719 137.0
48.2818 158.0
48.2916 138.0
48.3014 135.0
48.3113 132.0
48.3211 139.0
48.331 127.0
48.3408 140.0
48.3507 138.0
48.3605 142.0
48.3704 129.0
48.3802 136.0
48.3901 135.0
48.3999 145.0
48.4098 121.0
48.4196 132.0
48.4295 149.0
48.4393 131.0
48.4492 144.0
48.459 127.0
48.4689 123.0
48.4787 141.0
48.4886 161.0
48.4984 121.0
48.5082 134.0
48.5181 139.0
48.5279 144.0
48.5378 128.0
48.5476 152.0
48.5575 137.0
48.5673 158.0
48.5772 147.0
48.587 164.0
48.5969 159.0
48.6067 162.0
48.6166 135.0
48.6264 157.0
48.6363 157.0
48.6461 153.0
48.656 142.0
48.6658 137.0
48.6757 144.0
48.6855 157.0
48.6954 146.0
48.7052 148.0
48.715 157.0
48.7249 155.0
48.7347 164.0
48.7446 165.0
48.7544 169.0
48.7643 145.0
48.7741 157.0
48.784 158.0
48.7938 161.0
48.8037 154.0
48.8135 171.0
48.8234 161.0
48.8332 158.0
48.8431 152.0
48.8529 166.0
48.8628 143.0
48.8726 160.0
48.8825 151.0
48.8923 137.0
48.9022 170.0
48.912 167.0
48.9219 149.0
48.9317 165.0
48.9415 164.0
48.9514 168.0
48.9612 170.0
48.9711 165.0
48.9809 165.0
48.9908 177.0
49.0006 178.0
49.0105 181.0
49.0203 164.0
49.0302 168.0
49.04 206.0
49.0499 160.0
49.0597 168.0
49.0696 203.0
49.0794 185.0
49.0893 180.0
49.0991 204.0
49.109 172.0
49.1188 203.0
49.1287 185.0
49.1385 187.0
49.1483 233.0
49.1582 213.0
49.168 234.0
49.1779 222.0
49.1877 214.0
49.1976 206.0
49.2074 207.0
49.2173 237.0
49.2271 223.0
49.237 227.0
49.2468 243.0
49.2567 239.0
49.2665 265.0
49.2764 242.0
49.2862 233.0
49.2961 277.0
49.3059 271.0
49.3158 275.0
49.3256 288.0
49.3355 320.0
49.3453 295.0
49.3552 328.0
49.365 331.0
49.3748 342.0
49.3847 354.0
49.3945 318.0
49.4044 368.0
49.4142 381.0
49.4241 411.0
49.4339 427.0
49.4438 435.0
49.4536 435.0
49.4635 457.0
49.4733 470.0
49.4832 490.0
49.493 523.0
49.5029 526.0
49.5127 533.0
49.5226 588.0
49.5324 565.0
49.5423 625.0
49.5521 690.0
49.562 802.0
49.5718 770.0
49.5816 838.0
49.5915 891.0
49.6013 960.0
49.6112 944.0
49.621 1040.0
49.6309 1094.0
49.6407 1129.0
49.6506 1193.0
49.6604 1177.0
49.6703 1265.0
49.6801 1379.0
49.69 1414.0
49.6998 1447.0
49.7097 1539.0
49.7195 1511.0
49.7294 1647.0
49.7392 1649.0
49.7491 1674.0
49.7589 1716.0
49.7688 1779.0
49.7786 1734.0
49.7884 1722.0
49.7983 1849.0
49.8081 1818.0
49.818 1785.0
49.8278 1758.0
49.8377 1722.0
49.8475 1793.0
49.8574 1792.0
49.8672 1794.0
49.8771 1732.0
49.8869 1693.0
49.8968 1702.0
49.9066 1687.0
49.9165 1673.0
49.9263 1594.0
49.9362 1475.0
49.946 1563.0
49.9559 1483.0
49.9657 1455.0
49.9756 1417.0
49.9854 1337.0
49.9953 1320.0
50.0051 1236.0
50.0149 1243.0
50.0248 1219.0
50.0346 1191.0
50.0445 1200.0
50.0543 1121.0
50.0642 1104.0
50.074 995.0
50.0839 972.0
50.0937 947.0
50.1036 918.0
50.1134 911.0
50.1233 825.0
50.1331 841.0
50.143 790.0
50.1528 772.0
50.1627 805.0
50.1725 710.0
50.1824 667.0
50.1922 621.0
50.2021 608.0
50.2119 633.0
50.2217 562.0
50.2316 499.0
50.2414 497.0
50.2513 540.0
50.2611 518.0
50.271 480.0
50.2808 454.0
50.2907 483.0
50.3005 447.0
50.3104 459.0
50.3202 412.0
50.3301 409.0
50.3399 385.0
50.3498 345.0
50.3596 389.0
50.3695 339.0
50.3793 323.0
50.3892 357.0
50.399 335.0
50.4089 323.0
50.4187 348.0
50.4286 317.0
50.4384 290.0
50.4482 279.0
50.4581 300.0
50.4679 291.0
50.4778 274.0
50.4876 263.0
50.4975 246.0
50.5073 282.0
50.5172 282.0
50.527 294.0
50.5369 273.0
50.5467 257.0
50.5566 266.0
50.5664 262.0
50.5763 227.0
50.5861 264.0
50.596 267.0
50.6058 259.0
50.6157 264.0
50.6255 218.0
50.6354 245.0
50.6452 218.0
50.655 227.0
50.6649 220.0
50.6747 227.0
50.6846 217.0
50.6944 234.0
50.7043 241.0
50.7141 219.0
50.724 235.0
50.7338 220.0
50.7437 218.0
50.7535 213.0
50.7634 273.0
50.7732 198.0
50.7831 199.0
50.7929 220.0
50.8028 232.0
50.8126 276.0
50.8225 262.0
50.8323 216.0
50.8422 208.0
50.852 259.0
50.8619 235.0
50.8717 235.0
50.8815 232.0
50.8914 232.0
50.9012 232.0
50.9111 258.0
50.9209 267.0
50.9308 232.0
50.9406 284.0
50.9505 282.0
50.9603 293.0
50.9702 325.0
50.98 296.0
50.9899 284.0
50.9997 286.0
51.0096 280.0
51.0194 295.0
51.0293 288.0
51.0391 273.0
51.049 286.0
51.0588 298.0
51.0687 292.0
51.0785 306.0
51.0883 284.0
51.0982 325.0
51.108 291.0
51.1179 290.0
51.1277 325.0
51.1376 291.0
51.1474 320.0
51.1573 309.0
51.1671 315.0
51.177 320.0
51.1868 344.0
51.1967 315.0
51.2065 330.0
51.2164 346.0
51.2262 360.0
51.2361 349.0
51.2459 342.0
51.2558 363.0
51.2656 384.0
51.2755 408.0
51.2853 337.0
51.2951 360.0
51.305 341.0
51.3148 382.0
51.3247 371.0
51.3345 399.0
51.3444 393.0
51.3542 359.0
51.3641 378.0
51.3739 387.0
51.3838 409.0
51.3936 414.0
51.4035 416.0
51.4133 424.0
51.4232 393.0
51.433 413.0
51.4429 437.0
51.4527 433.0
51.4626 417.0
51.4724 446.0
51.4823 489.0
51.4921 432.0
51.502 458.0
51.5118 465.0
51.5216 469.0
51.5315 461.0
51.5413 487.0
51.5512 487.0
51.561 498.0
51.5709 517.0
51.5807 518.0
51.5906 534.0
51.6004 530.0
51.6103 514.0
51.6201 548.0
51.63 565.0
51.6398 580.0
51.6497 574.0
51.6595 570.0
51.6694 557.0
51.6792 543.0
51.6891 549.0
51.6989 611.0
51.7088 622.0
51.7186 609.0
51.7284 638.0
51.7383 621.0
51.7481 618.0
51.758 608.0
51.7678 648.0
51.7777 628.0
51.7875 632.0
51.7974 682.0
51.8072 637.0
51.8171 666.0
51.8269 717.0
51.8368 697.0
51.8466 694.0
51.8565 769.0
51.8663 762.0
51.8762 738.0
51.886 814.0
51.8959 773.0
51.9057 790.0
51.9156 800.0
51.9254 801.0
51.9353 771.0
51.9451 803.0
51.9549 853.0
51.9648 885.0
51.9746 926.0
51.9845 859.0
51.9943 917.0
52.0042 953.0
52.014 996.0
52.0239 1033.0
52.0337 986.0
52.0436 1088.0
52.0534 1147.0
52.0633 1156.0
52.0731 1203.0
52.083 1210.0
52.0928 1262.0
52.1027 1362.0
52.1125 1409.0
52.1224 1446.0
52.1322 1444.0
52.1421 1605.0
52.1519 1561.0
52.1617 1751.0
52.1716 1803.0
52.1814 1995.0
52.1913 2281.0
52.2011 2615.0
52.211 2875.0
52.2208 3288.0
52.2307 3708.0
52.2405 3974.0
52.2504 4425.0
52.2602 4677.0
52.2701 5014.0
52.2799 4959.0
52.2898 4931.0
52.2996 4809.0
52.3095 4748.0
52.3193 4749.0
52.3292 4815.0
52.339 4963.0
52.3489 5251.0
52.3587 5884.0
52.3686 6117.0
52.3784 7112.0
52.3882 8266.0
52.3981 9752.0
52.4079 11618.0
52.4178 14684.0
52.4276 19092.0
52.4375 25499.0
52.4473 37628.0
52.4572 62369.0
52.467 124030.0
52.4769 249751.0
52.4867 354940.0
52.4966 401572.0
52.5064 416050.0
52.5163 399785.0
52.5261 327702.0
52.536 193144.0
52.5458 101618.0
52.5557 59233.0
52.5655 39976.0
52.5754 32395.0
52.5852 32573.0
52.595 39898.0
52.6049 62622.0
52.6147 112261.0
52.6246 167234.0
52.6344 198832.0
52.6443 208532.0
52.6541 203043.0
52.664 176923.0
52.6738 119543.0
52.6837 67067.0
52.6935 37210.0
52.7034 22988.0
52.7132 15874.0
52.7231 11865.0
52.7329 9596.0
52.7428 8075.0
52.7526 6875.0
52.7625 5909.0
52.7723 5413.0
52.7822 4770.0
52.792 4218.0
52.8018 3913.0
52.8117 3642.0
52.8215 3421.0
52.8314 3181.0
52.8412 2936.0
52.8511 2730.0
52.8609 2587.0
52.8708 2509.0
52.8806 2269.0
52.8905 2241.0
52.9003 2103.0
52.9102 1996.0
52.92 1938.0
52.9299 1848.0
52.9397 1735.0
52.9496 1643.0
52.9594 1593.0
52.9693 1467.0
52.9791 1439.0
52.989 1365.0
52.9988 1343.0
53.0087 1346.0
53.0185 1276.0
53.0283 1201.0
53.0382 1191.0
53.048 1093.0
53.0579 1127.0
53.0677 1027.0
53.0776 1007.0
53.0874 986.0
53.0973 892.0
53.1071 894.0
53.117 877.0
53.1268 921.0
53.1367 879.0
53.1465 840.0
53.1564 770.0
53.1662 783.0
53.1761 784.0
53.1859 777.0
53.1958 750.0
53.2056 771.0
53.2155 689.0
53.2253 706.0
53.2351 710.0
53.245 662.0
53.2548 635.0
53.2647 586.0
53.2745 688.0
53.2844 609.0
53.2942 614.0
53.3041 602.0
53.3139 576.0
53.3238 624.0
53.3336 582.0
53.3435 553.0
53.3533 517.0
53.3632 573.0
53.373 529.0
53.3829 508.0
53.3927 470.0
53.4026 473.0
53.4124 509.0
53.4223 509.0
53.4321 439.0
53.442 450.0
53.4518 464.0
53.4616 468.0
53.4715 423.0
53.4813 438.0
53.4912 402.0
53.501 388.0
53.5109 404.0
53.5207 373.0
53.5306 362.0
53.5404 338.0
53.5503 344.0
53.5601 332.0
53.57 353.0
53.5798 339.0
53.5897 332.0
53.5995 337.0
53.6094 325.0
53.6192 337.0
53.6291 293.0
53.6389 296.0
53.6488 332.0
53.6586 320.0
53.6684 302.0
53.6783 320.0
53.6881 297.0
53.698 224.0
53.7078 270.0
53.7177 291.0
53.7275 233.0
53.7374 289.0
53.7472 267.0
53.7571 286.0
53.7669 272.0
53.7768 255.0
53.7866 255.0
53.7965 224.0
53.8063 275.0
53.8162 223.0
53.826 225.0
53.8359 273.0
53.8457 279.0
53.8556 260.0
53.8654 263.0
53.8753 209.0
53.8851 202.0
53.8949 197.0
53.9048 202.0
53.9146 209.0
53.9245 220.0
53.9343 203.0
53.9442 236.0
53.954 198.0
53.9639 213.0
53.9737 197.0
53.9836 179.0
53.9934 202.0
54.0033 234.0
54.0131 187.0
54.023 205.0
54.0328 190.0
54.0427 183.0
54.0525 190.0
54.0624 175.0
54.0722 193.0
54.0821 182.0
54.0919 176.0
54.1017 179.0
54.1116 168.0
54.1214 189.0
54.1313 185.0
54.1411 187.0
54.151 173.0
54.1608 165.0
54.1707 149.0
54.1805 184.0
54.1904 177.0
54.2002 173.0
54.2101 173.0
54.2199 179.0
54.2298 156.0
54.2396 161.0
54.2495 181.0
54.2593 148.0
54.2692 188.0
54.279 170.0
54.2889 168.0
54.2987 149.0
54.3085 171.0
54.3184 144.0
54.3282 171.0
54.3381 172.0
54.3479 150.0
54.3578 149.0
54.3676 146.0
54.3775 176.0
54.3873 174.0
54.3972 179.0
54.407 179.0
54.4169 171.0
54.4267 177.0
54.4366 168.0
54.4464 169.0
54.4563 159.0
54.4661 161.0
54.476 168.0
54.4858 172.0
54.4957 145.0
54.5055 167.0
54.5154 159.0
54.5252 124.0
54.535 156.0
54.5449 155.0
54.5547 174.0
54.5646 162.0
54.5744 126.0
54.5843 160.0
54.5941 168.0
54.604 134.0
54.6138 160.0
54.6237 146.0
54.6335 146.0
54.6434 140.0
54.6532 145.0
54.6631 142.0
54.6729 170.0
54.6828 139.0
54.6926 144.0
54.7025 150.0
54.7123 162.0
54.7222 137.0
54.732 161.0
54.7418 153.0
54.7517 148.0
54.7615 137.0
54.7714 129.0
54.7812 138.0
54.7911 159.0
54.8009 145.0
54.8108 144.0
54.8206 140.0
54.8305 160.0
54.8403 168.0
54.8502 131.0
54.86 150.0
54.8699 168.0
54.8797 155.0
54.8896 145.0
54.8994 158.0
54.9093 152.0
54.9191 159.0
54.929 148.0
54.9388 127.0
54.9487 116.0
54.9585 123.0
54.9683 126.0
54.9782 137.0
54.988 152.0
54.9979 165.0