File: data/W6715/XRD_Phi/W6715_Al2O3_phi_360deg_25min_3mm_active.xy
-127.665 60.000
-127.415 48.000
-127.165 50.000
-126.915 45.000
-126.665 53.000
-126.415 60.000
-126.165 50.000
-125.915 49.000
-125.665 55.000
-125.415 45.000
-125.165 53.000
-124.915 57.000
-124.665 58.000
-124.415 56.000
-124.165 62.000
-123.915 52.000
-123.665 63.000
-123.415 82.000
-123.165 57.000
-122.915 59.000
-122.665 50.000
-122.415 53.000
-122.165 66.000
-121.915 68.000
-121.665 56.000
-121.415 44.000
-121.165 58.000
-120.915 55.000
-120.665 62.000
-120.415 62.000
-120.165 68.000
-119.915 55.000
-119.665 63.000
-119.415 47.000
-119.165 62.000
-118.915 57.000
-118.665 55.000
-118.415 65.000
-118.165 58.000
-117.915 51.000
-117.665 58.000
-117.415 59.000
-117.165 61.000
-116.915 48.000
-116.665 54.000
-116.415 47.000
-116.165 54.000
-115.915 49.000
-115.665 66.000
-115.415 67.000
-115.165 54.000
-114.915 56.000
-114.665 49.000
-114.415 58.000
-114.165 62.000
-113.915 60.000
-113.665 51.000
-113.415 56.000
-113.165 51.000
-112.915 49.000
-112.665 56.000
-112.415 54.000
-112.165 48.000
-111.915 46.000
-111.665 51.000
-111.415 57.000
-111.165 50.000
-110.915 59.000
-110.665 41.000
-110.415 53.000
-110.165 53.000
-109.915 40.000
-109.665 51.000
-109.415 54.000
-109.165 50.000
-108.915 47.000
-108.665 48.000
-108.415 50.000
-108.165 57.000
-107.915 45.000
-107.665 60.000
-107.415 47.000
-107.165 61.000
-106.915 52.000
-106.665 45.000
-106.415 47.000
-106.165 58.000
-105.915 49.000
-105.665 57.000
-105.415 56.000
-105.165 47.000
-104.915 48.000
-104.665 58.000
-104.415 54.000
-104.165 51.000
-103.915 43.000
-103.665 58.000
-103.415 45.000
-103.165 46.000
-102.915 60.000
-102.665 61.000
-102.415 42.000
-102.165 52.000
-101.915 46.000
-101.665 58.000
-101.415 49.000
-101.165 52.000
-100.915 44.000
-100.665 50.000
-100.415 57.000
-100.165 55.000
-99.91500 69.000
-99.66500 47.000
-99.41500 48.000
-99.16500 42.000
-98.91500 48.000
-98.66500 47.000
-98.41500 39.000
-98.16500 49.000
-97.91500 42.000
-97.66500 48.000
-97.41500 57.000
-97.16500 58.000
-96.91500 53.000
-96.66500 45.000
-96.41500 51.000
-96.16500 54.000
-95.91500 44.000
-95.66500 58.000
-95.41500 40.000
-95.16500 56.000
-94.91500 45.000
-94.66500 67.000
-94.41500 50.000
-94.16500 56.000
-93.91500 50.000
-93.66500 50.000
-93.41500 68.000
-93.16500 59.000
-92.91500 54.000
-92.66500 51.000
-92.41500 48.000
-92.16500 50.000
-91.91500 39.000
-91.66500 55.000
-91.41500 51.000
-91.16500 51.000
-90.91500 48.000
-90.66500 46.000
-90.41500 45.000
-90.16500 50.000
-89.91500 46.000
-89.66500 66.000
-89.41500 53.000
-89.16500 63.000
-88.91500 51.000
-88.66500 45.000
-88.41500 49.000
-88.16500 47.000
-87.91500 64.000
-87.66500 63.000
-87.41500 49.000
-87.16500 72.000
-86.91500 42.000
-86.66500 45.000
-86.41500 52.000
-86.16500 44.000
-85.91500 61.000
-85.66500 65.000
-85.41500 45.000
-85.16500 75.000
-84.91500 47.000
-84.66500 49.000
-84.41500 46.000
-84.16500 58.000
-83.91500 52.000
-83.66500 55.000
-83.41500 37.000
-83.16500 52.000
-82.91500 43.000
-82.66500 60.000
-82.41500 59.000
-82.16500 60.000
-81.91500 61.000
-81.66500 40.000
-81.41500 54.000
-81.16500 52.000
-80.91500 55.000
-80.66500 60.000
-80.41500 43.000
-80.16500 53.000
-79.91500 58.000
-79.66500 46.000
-79.41500 56.000
-79.16500 41.000
-78.91500 65.000
-78.66500 46.000
-78.41500 64.000
-78.16500 48.000
-77.91500 59.000
-77.66500 58.000
-77.41500 67.000
-77.16500 52.000
-76.91500 60.000
-76.66500 48.000
-76.41500 72.000
-76.16500 61.000
-75.91500 51.000
-75.66500 69.000
-75.41500 59.000
-75.16500 51.000
-74.91500 54.000
-74.66500 73.000
-74.41500 52.000
-74.16500 50.000
-73.91500 57.000
-73.66500 39.000
-73.41500 73.000
-73.16500 52.000
-72.91500 57.000
-72.66500 58.000
-72.41500 52.000
-72.16500 60.000
-71.91500 56.000
-71.66500 62.000
-71.41500 65.000
-71.16500 60.000
-70.91500 62.000
-70.66500 71.000
-70.41500 62.000
-70.16500 55.000
-69.91500 46.000
-69.66500 68.000
-69.41500 65.000
-69.16500 55.000
-68.91500 55.000
-68.66500 69.000
-68.41500 58.000
-68.16500 52.000
-67.91500 58.000
-67.66500 52.000
-67.41500 46.000
-67.16500 53.000
-66.91500 45.000
-66.66500 62.000
-66.41500 57.000
-66.16500 66.000
-65.91500 52.000
-65.66500 61.000
-65.41500 57.000
-65.16500 60.000
-64.91500 65.000
-64.66500 54.000
-64.41500 68.000
-64.16500 52.000
-63.91500 73.000
-63.66500 59.000
-63.41500 66.000
-63.16500 51.000
-62.91500 55.000
-62.66500 32.000
-62.41500 52.000
-62.16500 59.000
-61.91500 46.000
-61.66500 56.000
-61.41500 67.000
-61.16500 48.000
-60.91500 43.000
-60.66500 62.000
-60.41500 71.000
-60.16500 60.000
-59.91500 53.000
-59.66500 60.000
-59.41500 50.000
-59.16500 61.000
-58.91500 45.000
-58.66500 65.000
-58.41500 60.000
-58.16500 52.000
-57.91500 57.000
-57.66500 68.000
-57.41500 47.000
-57.16500 63.000
-56.91500 60.000
-56.66500 64.000
-56.41500 65.000
-56.16500 74.000
-55.91500 62.000
-55.66500 68.000
-55.41500 67.000
-55.16500 77.000
-54.91500 315.000
-54.66500 1865.000
-54.41500 81.000
-54.16500 80.000
-53.91500 65.000
-53.66500 75.000
-53.41500 56.000
-53.16500 71.000
-52.91500 68.000
-52.66500 53.000
-52.41500 58.000
-52.16500 62.000
-51.91500 65.000
-51.66500 51.000
-51.41500 52.000
-51.16500 71.000
-50.91500 65.000
-50.66500 60.000
-50.41500 68.000
-50.16500 57.000
-49.91500 43.000
-49.66500 63.000
-49.41500 58.000
-49.16500 50.000
-48.91500 44.000
-48.66500 47.000
-48.41500 53.000
-48.16500 47.000
-47.91500 52.000
-47.66500 48.000
-47.41500 52.000
-47.16500 46.000
-46.91500 66.000
-46.66500 56.000
-46.41500 48.000
-46.16500 58.000
-45.91500 65.000
-45.66500 52.000
-45.41500 64.000
-45.16500 51.000
-44.91500 63.000
-44.66500 54.000
-44.41500 63.000
-44.16500 49.000
-43.91500 50.000
-43.66500 38.000
-43.41500 52.000
-43.16500 56.000
-42.91500 51.000
-42.66500 54.000
-42.41500 54.000
-42.16500 46.000
-41.91500 41.000
-41.66500 49.000
-41.41500 52.000
-41.16500 52.000
-40.91500 64.000
-40.66500 61.000
-40.41500 45.000
-40.16500 44.000
-39.91500 42.000
-39.66500 62.000
-39.41500 35.000
-39.16500 63.000
-38.91500 58.000
-38.66500 46.000
-38.41500 46.000
-38.16500 56.000
-37.91500 56.000
-37.66500 54.000
-37.41500 49.000
-37.16500 63.000
-36.91500 51.000
-36.66500 46.000
-36.41500 52.000
-36.16500 50.000
-35.91500 64.000
-35.66500 54.000
-35.41500 56.000
-35.16500 51.000
-34.91500 46.000
-34.66500 53.000
-34.41500 56.000
-34.16500 50.000
-33.91500 45.000
-33.66500 55.000
-33.41500 57.000
-33.16500 51.000
-32.91500 48.000
-32.66500 62.000
-32.41500 43.000
-32.16500 54.000
-31.91500 39.000
-31.66500 52.000
-31.41500 46.000
-31.16500 40.000
-30.91500 52.000
-30.66500 55.000
-30.41500 44.000
-30.16500 46.000
-29.91500 62.000
-29.66500 50.000
-29.41500 38.000
-29.16500 45.000
-28.91500 35.000
-28.66500 49.000
-28.41500 40.000
-28.16500 41.000
-27.91500 52.000
-27.66500 38.000
-27.41500 43.000
-27.16500 51.000
-26.91500 52.000
-26.66500 37.000
-26.41500 49.000
-26.16500 52.000
-25.91500 46.000
-25.66500 51.000
-25.41500 45.000
-25.16500 52.000
-24.91500 48.000
-24.66500 58.000
-24.41500 54.000
-24.16500 56.000
-23.91500 30.000
-23.66500 48.000
-23.41500 46.000
-23.16500 38.000
-22.91500 56.000
-22.66500 45.000
-22.41500 41.000
-22.16500 53.000
-21.91500 50.000
-21.66500 62.000
-21.41500 48.000
-21.16500 56.000
-20.91500 47.000
-20.66500 47.000
-20.41500 52.000
-20.16500 40.000
-19.91500 49.000
-19.66500 47.000
-19.41500 62.000
-19.16500 57.000
-18.91500 44.000
-18.66500 46.000
-18.41500 47.000
-18.16500 52.000
-17.91500 41.000
-17.66500 49.000
-17.41500 41.000
-17.16500 46.000
-16.91500 36.000
-16.66500 56.000
-16.41500 42.000
-16.16500 38.000
-15.91500 39.000
-15.66500 43.000
-15.41500 54.000
-15.16500 50.000
-14.91500 59.000
-14.66500 47.000
-14.41500 39.000
-14.16500 48.000
-13.91500 53.000
-13.66500 48.000
-13.41500 47.000
-13.16500 50.000
-12.91500 35.000
-12.66500 42.000
-12.41500 54.000
-12.16500 44.000
-11.91500 35.000
-11.66500 49.000
-11.41500 55.000
-11.16500 60.000
-10.91500 50.000
-10.66500 50.000
-10.41500 45.000
-10.16500 46.000
-9.91500 48.000
-9.66500 53.000
-9.41500 51.000
-9.16500 39.000
-8.91500 41.000
-8.66500 42.000
-8.41500 57.000
-8.16500 37.000
-7.91500 57.000
-7.66500 51.000
-7.41500 57.000
-7.16500 49.000
-6.91500 32.000
-6.66500 41.000
-6.41500 46.000
-6.16500 45.000
-5.91500 38.000
-5.66500 48.000
-5.41500 48.000
-5.16500 49.000
-4.91500 58.000
-4.66500 42.000
-4.41500 45.000
-4.16500 51.000
-3.91500 48.000
-3.66500 38.000
-3.41500 44.000
-3.16500 40.000
-2.91500 43.000
-2.66500 31.000
-2.41500 47.000
-2.16500 51.000
-1.91500 48.000
-1.66500 40.000
-1.41500 31.000
-1.16500 37.000
-0.91500 45.000
-0.66500 48.000
-0.41500 29.000
-0.16500 43.000
0.08500 51.000
0.33500 39.000
0.58500 42.000
0.83500 42.000
1.08500 39.000
1.33500 33.000
1.58500 52.000
1.83500 36.000
2.08500 30.000
2.33500 32.000
2.58500 37.000
2.83500 38.000
3.08500 49.000
3.33500 51.000
3.58500 40.000
3.83500 46.000
4.08500 37.000
4.33500 36.000
4.58500 27.000
4.83500 39.000
5.08500 39.000
5.33500 33.000
5.58500 33.000
5.83500 38.000
6.08500 37.000
6.33500 43.000
6.58500 27.000
6.83500 38.000
7.08500 42.000
7.33500 30.000
7.58500 35.000
7.83500 34.000
8.08500 41.000
8.33500 22.000
8.58500 33.000
8.83500 21.000
9.08500 31.000
9.33500 37.000
9.58500 25.000
9.83500 32.000
10.08500 32.000
10.33500 25.000
10.58500 20.000
10.83500 37.000
11.08500 26.000
11.33500 37.000
11.58500 36.000
11.83500 32.000
12.08500 43.000
12.33500 21.000
12.58500 30.000
12.83500 39.000
13.08500 35.000
13.33500 25.000
13.58500 37.000
13.83500 26.000
14.08500 28.000
14.33500 18.000
14.58500 25.000
14.83500 23.000
15.08500 28.000
15.33500 20.000
15.58500 33.000
15.83500 26.000
16.08500 23.000
16.33500 29.000
16.58500 34.000
16.83500 37.000
17.08500 36.000
17.33500 29.000
17.58500 25.000
17.83500 29.000
18.08500 33.000
18.33500 35.000
18.58500 22.000
18.83500 26.000
19.08500 34.000
19.33500 29.000
19.58500 28.000
19.83500 24.000
20.08500 44.000
20.33500 25.000
20.58500 21.000
20.83500 21.000
21.08500 33.000
21.33500 32.000
21.58500 28.000
21.83500 33.000
22.08500 27.000
22.33500 35.000
22.58500 39.000
22.83500 39.000
23.08500 27.000
23.33500 30.000
23.58500 35.000
23.83500 30.000
24.08500 29.000
24.33500 34.000
24.58500 37.000
24.83500 31.000
25.08500 21.000
25.33500 38.000
25.58500 56.000
25.83500 29.000
26.08500 18.000
26.33500 32.000
26.58500 43.000
26.83500 44.000
27.08500 35.000
27.33500 34.000
27.58500 32.000
27.83500 38.000
28.08500 46.000
28.33500 39.000
28.58500 30.000
28.83500 35.000
29.08500 31.000
29.33500 36.000
29.58500 41.000
29.83500 34.000
30.08500 40.000
30.33500 36.000
30.58500 32.000
30.83500 50.000
31.08500 28.000
31.33500 52.000
31.58500 49.000
31.83500 43.000
32.08500 50.000
32.33500 45.000
32.58500 48.000
32.83500 34.000
33.08500 38.000
33.33500 29.000
33.58500 39.000
33.83500 45.000
34.08500 52.000
34.33500 48.000
34.58500 45.000
34.83500 34.000
35.08500 35.000
35.33500 45.000
35.58500 51.000
35.83500 40.000
36.08500 43.000
36.33500 33.000
36.58500 46.000
36.83500 43.000
37.08500 43.000
37.33500 43.000
37.58500 43.000
37.83500 29.000
38.08500 43.000
38.33500 43.000
38.58500 42.000
38.83500 34.000
39.08500 45.000
39.33500 47.000
39.58500 50.000
39.83500 45.000
40.08500 56.000
40.33500 43.000
40.58500 62.000
40.83500 60.000
41.08500 39.000
41.33500 32.000
41.58500 41.000
41.83500 41.000
42.08500 46.000
42.33500 66.000
42.58500 49.000
42.83500 51.000
43.08500 59.000
43.33500 46.000
43.58500 47.000
43.83500 46.000
44.08500 67.000
44.33500 58.000
44.58500 39.000
44.83500 48.000
45.08500 57.000
45.33500 48.000
45.58500 42.000
45.83500 46.000
46.08500 47.000
46.33500 40.000
46.58500 51.000
46.83500 59.000
47.08500 39.000
47.33500 51.000
47.58500 54.000
47.83500 44.000
48.08500 61.000
48.33500 56.000
48.58500 45.000
48.83500 63.000
49.08500 64.000
49.33500 55.000
49.58500 58.000
49.83500 62.000
50.08500 61.000
50.33500 58.000
50.58500 67.000
50.83500 62.000
51.08500 70.000
51.33500 62.000
51.58500 75.000
51.83500 77.000
52.08500 72.000
52.33500 118.000
52.58500 2975.000
52.83500 283.000
53.08500 81.000
53.33500 84.000
53.58500 57.000
53.83500 59.000
54.08500 79.000
54.33500 52.000
54.58500 68.000
54.83500 44.000
55.08500 58.000
55.33500 53.000
55.58500 63.000
55.83500 63.000
56.08500 45.000
56.33500 45.000
56.58500 60.000
56.83500 51.000
57.08500 51.000
57.33500 40.000
57.58500 46.000
57.83500 51.000
58.08500 54.000
58.33500 43.000
58.58500 61.000
58.83500 39.000
59.08500 50.000
59.33500 42.000
59.58500 55.000
59.83500 38.000
60.08500 54.000
60.33500 57.000
60.58500 48.000
60.83500 39.000
61.08500 54.000
61.33500 45.000
61.58500 41.000
61.83500 56.000
62.08500 58.000
62.33500 48.000
62.58500 58.000
62.83500 55.000
63.08500 50.000
63.33500 61.000
63.58500 60.000
63.83500 49.000
64.08500 51.000
64.33500 51.000
64.58500 57.000
64.83500 43.000
65.08500 59.000
65.33500 39.000
65.58500 46.000
65.83500 48.000
66.08500 38.000
66.33500 47.000
66.58500 38.000
66.83500 53.000
67.08500 53.000
67.33500 50.000
67.58500 55.000
67.83500 57.000
68.08500 49.000
68.33500 47.000
68.58500 50.000
68.83500 47.000
69.08500 52.000
69.33500 56.000
69.58500 62.000
69.83500 54.000
70.08500 46.000
70.33500 43.000
70.58500 49.000
70.83500 48.000
71.08500 50.000
71.33500 45.000
71.58500 38.000
71.83500 46.000
72.08500 58.000
72.33500 58.000
72.58500 40.000
72.83500 44.000
73.08500 55.000
73.33500 46.000
73.58500 41.000
73.83500 40.000
74.08500 48.000
74.33500 40.000
74.58500 40.000
74.83500 60.000
75.08500 46.000
75.33500 49.000
75.58500 39.000
75.83500 31.000
76.08500 39.000
76.33500 36.000
76.58500 46.000
76.83500 64.000
77.08500 44.000
77.33500 40.000
77.58500 52.000
77.83500 40.000
78.08500 40.000
78.33500 42.000
78.58500 46.000
78.83500 62.000
79.08500 47.000
79.33500 46.000
79.58500 45.000
79.83500 41.000
80.08500 47.000
80.33500 51.000
80.58500 52.000
80.83500 44.000
81.08500 40.000
81.33500 45.000
81.58500 49.000
81.83500 35.000
82.08500 40.000
82.33500 49.000
82.58500 46.000
82.83500 42.000
83.08500 54.000
83.33500 49.000
83.58500 36.000
83.83500 44.000
84.08500 42.000
84.33500 56.000
84.58500 32.000
84.83500 39.000
85.08500 58.000
85.33500 46.000
85.58500 34.000
85.83500 44.000
86.08500 36.000
86.33500 52.000
86.58500 51.000
86.83500 57.000
87.08500 41.000
87.33500 42.000
87.58500 51.000
87.83500 47.000
88.08500 57.000
88.33500 61.000
88.58500 46.000
88.83500 49.000
89.08500 39.000
89.33500 57.000
89.58500 43.000
89.83500 51.000
90.08500 43.000
90.33500 56.000
90.58500 41.000
90.83500 59.000
91.08500 49.000
91.33500 47.000
91.58500 48.000
91.83500 45.000
92.08500 47.000
92.33500 59.000
92.58500 53.000
92.83500 47.000
93.08500 49.000
93.33500 53.000
93.58500 46.000
93.83500 51.000
94.08500 41.000
94.33500 43.000
94.58500 48.000
94.83500 57.000
95.08500 61.000
95.33500 59.000
95.58500 63.000
95.83500 49.000
96.08500 54.000
96.33500 55.000
96.58500 45.000
96.83500 44.000
97.08500 59.000
97.33500 54.000
97.58500 43.000
97.83500 50.000
98.08500 51.000
98.33500 40.000
98.58500 47.000
98.83500 53.000
99.08500 44.000
99.33500 49.000
99.58500 47.000
99.83500 42.000
100.085 51.000
100.335 55.000
100.585 49.000
100.835 51.000
101.085 62.000
101.335 48.000
101.585 54.000
101.835 51.000
102.085 51.000
102.335 51.000
102.585 41.000
102.835 71.000
103.085 63.000
103.335 51.000
103.585 66.000
103.835 60.000
104.085 66.000
104.335 57.000
104.585 47.000
104.835 61.000
105.085 61.000
105.335 61.000
105.585 57.000
105.835 70.000
106.085 52.000
106.335 52.000
106.585 73.000
106.835 54.000
107.085 70.000
107.335 51.000
107.585 56.000
107.835 63.000
108.085 54.000
108.335 42.000
108.585 50.000
108.835 67.000
109.085 56.000
109.335 58.000
109.585 57.000
109.835 64.000
110.085 51.000
110.335 47.000
110.585 61.000
110.835 62.000
111.085 52.000
111.335 69.000
111.585 56.000
111.835 53.000
112.085 58.000
112.335 62.000
112.585 42.000
112.835 70.000
113.085 56.000
113.335 46.000
113.585 58.000
113.835 54.000
114.085 60.000
114.335 49.000
114.585 58.000
114.835 56.000
115.085 62.000
115.335 61.000
115.585 71.000
115.835 54.000
116.085 56.000
116.335 45.000
116.585 57.000
116.835 43.000
117.085 68.000
117.335 46.000
117.585 59.000
117.835 61.000
118.085 66.000
118.335 62.000
118.585 58.000
118.835 54.000
119.085 71.000
119.335 60.000
119.585 61.000
119.835 62.000
120.085 63.000
120.335 58.000
120.585 53.000
120.835 50.000
121.085 49.000
121.335 55.000
121.585 46.000
121.835 44.000
122.085 55.000
122.335 58.000
122.585 63.000
122.835 64.000
123.085 62.000
123.335 69.000
123.585 57.000
123.835 48.000
124.085 66.000
124.335 63.000
124.585 55.000
124.835 44.000
125.085 53.000
125.335 56.000
125.585 41.000
125.835 44.000
126.085 48.000
126.335 45.000
126.585 59.000
126.835 68.000
127.085 55.000
127.335 46.000
127.585 54.000
127.835 57.000
128.085 52.000
128.335 51.000
128.585 60.000
128.835 50.000
129.085 43.000
129.335 39.000
129.585 77.000
129.835 56.000
130.085 68.000
130.335 63.000
130.585 58.000
130.835 58.000
131.085 53.000
131.335 48.000
131.585 65.000
131.835 51.000
132.085 44.000
132.335 54.000
132.585 43.000
132.835 47.000
133.085 60.000
133.335 46.000
133.585 43.000
133.835 42.000
134.085 53.000
134.335 46.000
134.585 44.000
134.835 50.000
135.085 42.000
135.335 55.000
135.585 56.000
135.835 45.000
136.085 46.000
136.335 53.000
136.585 40.000
136.835 51.000
137.085 50.000
137.335 44.000
137.585 44.000
137.835 46.000
138.085 52.000
138.335 55.000
138.585 56.000
138.835 52.000
139.085 36.000
139.335 48.000
139.585 48.000
139.835 51.000
140.085 50.000
140.335 52.000
140.585 59.000
140.835 36.000
141.085 54.000
141.335 45.000
141.585 46.000
141.835 38.000
142.085 54.000
142.335 45.000
142.585 51.000
142.835 44.000
143.085 44.000
143.335 49.000
143.585 33.000
143.835 45.000
144.085 52.000
144.335 35.000
144.585 42.000
144.835 61.000
145.085 48.000
145.335 33.000
145.585 38.000
145.835 61.000
146.085 46.000
146.335 48.000
146.585 48.000
146.835 35.000
147.085 44.000
147.335 42.000
147.585 45.000
147.835 45.000
148.085 47.000
148.335 43.000
148.585 44.000
148.835 39.000
149.085 47.000
149.335 58.000
149.585 48.000
149.835 38.000
150.085 48.000
150.335 57.000
150.585 41.000
150.835 48.000
151.085 36.000
151.335 45.000
151.585 51.000
151.835 52.000
152.085 55.000
152.335 32.000
152.585 44.000
152.835 54.000
153.085 43.000
153.335 40.000
153.585 50.000
153.835 40.000
154.085 37.000
154.335 60.000
154.585 54.000
154.835 44.000
155.085 49.000
155.335 36.000
155.585 58.000
155.835 46.000
156.085 45.000
156.335 48.000
156.585 47.000
156.835 47.000
157.085 49.000
157.335 39.000
157.585 41.000
157.835 57.000
158.085 33.000
158.335 47.000
158.585 43.000
158.835 52.000
159.085 50.000
159.335 48.000
159.585 47.000
159.835 42.000
160.085 48.000
160.335 41.000
160.585 46.000
160.835 34.000
161.085 42.000
161.335 50.000
161.585 36.000
161.835 42.000
162.085 50.000
162.335 47.000
162.585 38.000
162.835 46.000
163.085 47.000
163.335 32.000
163.585 59.000
163.835 43.000
164.085 40.000
164.335 40.000
164.585 47.000
164.835 32.000
165.085 40.000
165.335 34.000
165.585 34.000
165.835 59.000
166.085 35.000
166.335 46.000
166.585 53.000
166.835 42.000
167.085 45.000
167.335 37.000
167.585 47.000
167.835 50.000
168.085 40.000
168.335 49.000
168.585 31.000
168.835 46.000
169.085 57.000
169.335 54.000
169.585 39.000
169.835 39.000
170.085 47.000
170.335 51.000
170.585 39.000
170.835 38.000
171.085 48.000
171.335 52.000
171.585 43.000
171.835 56.000
172.085 28.000
172.335 47.000
172.585 44.000
172.835 49.000
173.085 39.000
173.335 40.000
173.585 50.000
173.835 55.000
174.085 46.000
174.335 45.000
174.585 44.000
174.835 33.000
175.085 44.000
175.335 32.000
175.585 33.000
175.835 35.000
176.085 37.000
176.335 42.000
176.585 34.000
176.835 36.000
177.085 39.000
177.335 37.000
177.585 39.000
177.835 55.000
178.085 33.000
178.335 34.000
178.585 27.000
178.835 46.000
179.085 35.000
179.335 43.000
179.585 41.000
179.835 30.000
180.085 37.000
180.335 40.000
180.585 32.000
180.835 30.000
181.085 38.000
181.335 24.000
181.585 30.000
181.835 38.000
182.085 38.000
182.335 41.000
182.585 33.000
182.835 36.000
183.085 30.000
183.335 41.000
183.585 22.000
183.835 27.000
184.085 23.000
184.335 35.000
184.585 31.000
184.835 24.000
185.085 26.000
185.335 35.000
185.585 29.000
185.835 32.000
186.085 28.000
186.335 24.000
186.585 32.000
186.835 37.000
187.085 25.000
187.335 23.000
187.585 25.000
187.835 32.000
188.085 36.000
188.335 28.000
188.585 33.000
188.835 28.000
189.085 27.000
189.335 35.000
189.585 27.000
189.835 40.000
190.085 27.000
190.335 21.000
190.585 30.000
190.835 32.000
191.085 24.000
191.335 28.000
191.585 34.000
191.835 32.000
192.085 29.000
192.335 32.000
192.585 29.000
192.835 38.000
193.085 29.000
193.335 31.000
193.585 33.000
193.835 21.000
194.085 31.000
194.335 34.000
194.585 36.000
194.835 25.000
195.085 35.000
195.335 22.000
195.585 36.000
195.835 26.000
196.085 28.000
196.335 29.000
196.585 30.000
196.835 31.000
197.085 28.000
197.335 29.000
197.585 35.000
197.835 24.000
198.085 35.000
198.335 35.000
198.585 30.000
198.835 30.000
199.085 33.000
199.335 30.000
199.585 37.000
199.835 26.000
200.085 39.000
200.335 26.000
200.585 36.000
200.835 20.000
201.085 41.000
201.335 39.000
201.585 25.000
201.835 52.000
202.085 34.000
202.335 37.000
202.585 34.000
202.835 39.000
203.085 37.000
203.335 41.000
203.585 38.000
203.835 42.000
204.085 47.000
204.335 40.000
204.585 38.000
204.835 36.000
205.085 45.000
205.335 44.000
205.585 34.000
205.835 32.000
206.085 47.000
206.335 30.000
206.585 37.000
206.835 39.000
207.085 44.000
207.335 31.000
207.585 38.000
207.835 33.000
208.085 34.000
208.335 45.000
208.585 31.000
208.835 39.000
209.085 34.000
209.335 42.000
209.585 43.000
209.835 34.000
210.085 44.000
210.335 40.000
210.585 37.000
210.835 53.000
211.085 48.000
211.335 39.000
211.585 46.000
211.835 46.000
212.085 50.000
212.335 54.000
212.585 61.000
212.835 51.000
213.085 53.000
213.335 48.000
213.585 47.000
213.835 35.000
214.085 45.000
214.335 50.000
214.585 55.000
214.835 57.000
215.085 64.000
215.335 44.000
215.585 46.000
215.835 46.000
216.085 48.000
216.335 45.000
216.585 48.000
216.835 49.000
217.085 56.000
217.335 53.000
217.585 60.000
217.835 44.000
218.085 50.000
218.335 60.000
218.585 53.000
218.835 71.000
219.085 59.000
219.335 67.000
219.585 50.000
219.835 53.000
220.085 48.000
220.335 56.000
220.585 39.000
220.835 53.000
221.085 58.000
221.335 43.000
221.585 44.000
221.835 51.000
222.085 42.000
222.335 46.000
222.585 60.000
222.835 50.000
223.085 50.000
223.335 41.000
223.585 51.000
223.835 42.000
224.085 56.000
224.335 54.000
224.585 48.000
224.835 55.000
225.085 49.000
225.335 48.000
225.585 60.000
225.835 49.000
226.085 46.000
226.335 41.000
226.585 47.000
226.835 47.000
227.085 50.000
227.335 45.000
227.585 53.000
227.835 48.000
228.085 54.000
228.335 68.000
228.585 61.000
228.835 53.000
229.085 54.000
229.335 52.000
229.585 71.000
229.835 41.000
230.085 43.000
230.335 57.000
230.585 63.000
230.835 62.000
231.085 52.000
231.335 47.000
231.585 57.000
231.835 67.000
232.085 53.000
232.235 74.000