File: data/W6777c/XRD_Omega/W6777c_Cr2O3_scan_omega_2deg_step_0.002deg0_8.xy
18.72960 730.0
18.73160 734.0
18.73360 767.0
18.73560 716.0
18.73760 763.0
18.73960 753.0
18.74160 703.0
18.74360 782.0
18.74560 789.0
18.74760 784.0
18.74960 744.0
18.75160 734.0
18.75360 760.0
18.75560 722.0
18.75760 808.0
18.75960 743.0
18.76160 759.0
18.76360 729.0
18.76560 810.0
18.76760 763.0
18.76960 783.0
18.77160 777.0
18.77360 739.0
18.77560 768.0
18.77760 804.0
18.77960 832.0
18.78160 802.0
18.78360 801.0
18.78560 823.0
18.78760 840.0
18.78960 793.0
18.79160 843.0
18.79360 801.0
18.79560 830.0
18.79760 787.0
18.79960 822.0
18.80160 832.0
18.80360 799.0
18.80560 843.0
18.80760 859.0
18.80960 848.0
18.81160 823.0
18.81360 856.0
18.81560 898.0
18.81760 861.0
18.81960 817.0
18.82160 819.0
18.82360 883.0
18.82560 865.0
18.82760 798.0
18.82960 843.0
18.83160 793.0
18.83360 864.0
18.83560 897.0
18.83760 865.0
18.83960 885.0
18.84160 853.0
18.84360 856.0
18.84560 913.0
18.84760 890.0
18.84960 853.0
18.85160 921.0
18.85360 905.0
18.85560 915.0
18.85760 905.0
18.85960 882.0
18.86160 919.0
18.86360 931.0
18.86560 927.0
18.86760 921.0
18.86960 936.0
18.87160 943.0
18.87360 945.0
18.87560 975.0
18.87760 931.0
18.87960 993.0
18.88160 1000.0
18.88360 963.0
18.88560 961.0
18.88760 943.0
18.88960 991.0
18.89160 942.0
18.89360 986.0
18.89560 1012.0
18.89760 952.0
18.89960 956.0
18.90160 1005.0
18.90360 1006.0
18.90560 994.0
18.90760 999.0
18.90960 970.0
18.91160 1033.0
18.91360 971.0
18.91560 1028.0
18.91760 1117.0
18.91960 981.0
18.92160 1063.0
18.92360 1055.0
18.92560 1055.0
18.92760 1023.0
18.92960 1078.0
18.93160 1132.0
18.93360 1029.0
18.93560 1059.0
18.93760 1055.0
18.93960 1128.0
18.94160 1094.0
18.94360 1112.0
18.94560 1121.0
18.94760 1086.0
18.94960 1159.0
18.95160 1119.0
18.95360 1095.0
18.95560 1044.0
18.95760 1138.0
18.95960 1110.0
18.96160 1202.0
18.96360 1131.0
18.96560 1188.0
18.96760 1179.0
18.96960 1168.0
18.97160 1119.0
18.97360 1128.0
18.97560 1135.0
18.97760 1183.0
18.97960 1196.0
18.98160 1199.0
18.98360 1180.0
18.98560 1211.0
18.98760 1179.0
18.98960 1208.0
18.99160 1225.0
18.99360 1208.0
18.99560 1212.0
18.99760 1184.0
18.99960 1255.0
19.00160 1268.0
19.00360 1321.0
19.00560 1243.0
19.00760 1272.0
19.00960 1324.0
19.01160 1324.0
19.01360 1279.0
19.01560 1282.0
19.01760 1346.0
19.01960 1307.0
19.02160 1371.0
19.02360 1338.0
19.02560 1394.0
19.02760 1392.0
19.02960 1356.0
19.03160 1412.0
19.03360 1430.0
19.03560 1411.0
19.03760 1483.0
19.03960 1337.0
19.04160 1448.0
19.04360 1354.0
19.04560 1477.0
19.04760 1445.0
19.04960 1413.0
19.05160 1497.0
19.05360 1438.0
19.05560 1510.0
19.05760 1419.0
19.05960 1531.0
19.06160 1529.0
19.06360 1552.0
19.06560 1532.0
19.06760 1583.0
19.06960 1597.0
19.07160 1551.0
19.07360 1611.0
19.07560 1616.0
19.07760 1657.0
19.07960 1632.0
19.08160 1657.0
19.08360 1617.0
19.08560 1702.0
19.08760 1719.0
19.08960 1691.0
19.09160 1697.0
19.09360 1624.0
19.09560 1673.0
19.09760 1706.0
19.09960 1684.0
19.10160 1828.0
19.10360 1699.0
19.10560 1760.0
19.10760 1699.0
19.10960 1855.0
19.11160 1757.0
19.11360 1814.0
19.11560 1843.0
19.11760 1892.0
19.11960 1795.0
19.12160 1849.0
19.12360 1916.0
19.12560 1878.0
19.12760 1978.0
19.12960 1974.0
19.13160 1946.0
19.13360 2030.0
19.13560 1996.0
19.13760 1984.0
19.13960 2016.0
19.14160 2048.0
19.14360 1969.0
19.14560 1987.0
19.14760 2096.0
19.14960 2137.0
19.15160 2147.0
19.15360 2037.0
19.15560 2036.0
19.15760 2073.0
19.15960 2089.0
19.16160 2151.0
19.16360 2191.0
19.16560 2233.0
19.16760 2261.0
19.16960 2230.0
19.17160 2292.0
19.17360 2227.0
19.17560 2197.0
19.17760 2402.0
19.17960 2337.0
19.18160 2317.0
19.18360 2367.0
19.18560 2426.0
19.18760 2412.0
19.18960 2380.0
19.19160 2389.0
19.19360 2346.0
19.19560 2431.0
19.19760 2466.0
19.19960 2438.0
19.20160 2450.0
19.20360 2539.0
19.20560 2559.0
19.20760 2561.0
19.20960 2591.0
19.21160 2632.0
19.21360 2625.0
19.21560 2590.0
19.21760 2626.0
19.21960 2658.0
19.22160 2774.0
19.22360 2756.0
19.22560 2777.0
19.22760 2767.0
19.22960 2741.0
19.23160 2806.0
19.23360 2791.0
19.23560 2867.0
19.23760 2974.0
19.23960 2889.0
19.24160 2874.0
19.24360 3002.0
19.24560 3037.0
19.24760 2974.0
19.24960 3035.0
19.25160 2952.0
19.25360 3002.0
19.25560 3131.0
19.25760 3020.0
19.25960 3155.0
19.26160 3097.0
19.26360 3085.0
19.26560 3245.0
19.26760 3221.0
19.26960 3341.0
19.27160 3281.0
19.27360 3297.0
19.27560 3214.0
19.27760 3290.0
19.27960 3349.0
19.28160 3290.0
19.28360 3437.0
19.28560 3349.0
19.28760 3507.0
19.28960 3416.0
19.29160 3570.0
19.29360 3479.0
19.29560 3613.0
19.29760 3724.0
19.29960 3545.0
19.30160 3746.0
19.30360 3614.0
19.30560 3708.0
19.30760 3716.0
19.30960 3725.0
19.31160 3757.0
19.31360 3901.0
19.31560 3907.0
19.31760 3895.0
19.31960 3920.0
19.32160 3943.0
19.32360 3990.0
19.32560 4185.0
19.32760 4105.0
19.32960 4099.0
19.33160 4110.0
19.33360 4221.0
19.33560 4198.0
19.33760 4162.0
19.33960 4239.0
19.34160 3995.0
19.34360 4324.0
19.34560 4349.0
19.34760 4356.0
19.34960 4279.0
19.35160 4479.0
19.35360 4448.0
19.35560 4623.0
19.35760 4457.0
19.35960 4592.0
19.36160 4633.0
19.36360 4594.0
19.36560 4664.0
19.36760 4614.0
19.36960 4732.0
19.37160 4809.0
19.37360 4734.0
19.37560 4910.0
19.37760 5016.0
19.37960 4989.0
19.38160 4920.0
19.38360 4952.0
19.38560 4980.0
19.38760 5098.0
19.38960 5180.0
19.39160 5315.0
19.39360 5189.0
19.39560 5189.0
19.39760 5178.0
19.39960 5416.0
19.40160 5308.0
19.40360 5329.0
19.40560 5437.0
19.40760 5473.0
19.40960 5276.0
19.41160 5431.0
19.41360 5384.0
19.41560 5473.0
19.41760 5510.0
19.41960 5632.0
19.42160 5725.0
19.42360 5721.0
19.42560 5650.0
19.42760 5788.0
19.42960 5913.0
19.43160 5724.0
19.43360 5961.0
19.43560 5875.0
19.43760 5962.0
19.43960 5973.0
19.44160 6092.0
19.44360 6094.0
19.44560 6198.0
19.44760 6148.0
19.44960 6180.0
19.45160 6217.0
19.45360 6227.0
19.45560 6287.0
19.45760 6292.0
19.45960 6276.0
19.46160 6421.0
19.46360 6533.0
19.46560 6460.0
19.46760 6424.0
19.46960 6516.0
19.47160 6446.0
19.47360 6754.0
19.47560 6651.0
19.47760 6808.0
19.47960 6819.0
19.48160 7013.0
19.48360 6893.0
19.48560 7042.0
19.48760 7055.0
19.48960 6922.0
19.49160 6953.0
19.49360 7038.0
19.49560 7041.0
19.49760 7387.0
19.49960 7187.0
19.50160 7141.0
19.50360 7237.0
19.50560 7429.0
19.50760 7295.0
19.50960 7226.0
19.51160 7458.0
19.51360 7428.0
19.51560 7478.0
19.51760 7279.0
19.51960 7473.0
19.52160 7568.0
19.52360 7759.0
19.52560 7864.0
19.52760 7653.0
19.52960 7925.0
19.53160 7840.0
19.53360 7905.0
19.53560 7863.0
19.53760 7966.0
19.53960 8051.0
19.54160 8189.0
19.54360 8016.0
19.54560 8207.0
19.54760 8034.0
19.54960 8227.0
19.55160 8200.0
19.55360 8371.0
19.55560 8255.0
19.55760 8499.0
19.55960 8347.0
19.56160 8351.0
19.56360 8358.0
19.56560 8256.0
19.56760 8540.0
19.56960 8553.0
19.57160 8517.0
19.57360 8706.0
19.57560 8497.0
19.57760 8727.0
19.57960 8632.0
19.58160 8582.0
19.58360 8862.0
19.58560 8664.0
19.58760 8879.0
19.58960 8754.0
19.59160 8825.0
19.59360 8985.0
19.59560 8640.0
19.59760 8734.0
19.59960 8984.0
19.60160 8810.0
19.60360 8841.0
19.60560 8870.0
19.60760 8912.0
19.60960 9082.0
19.61160 9077.0
19.61360 9134.0
19.61560 9167.0
19.61760 8972.0
19.61960 9174.0
19.62160 9275.0
19.62360 9172.0
19.62560 9393.0
19.62760 9258.0
19.62960 9397.0
19.63160 9340.0
19.63360 9309.0
19.63560 9604.0
19.63760 9497.0
19.63960 9558.0
19.64160 9676.0
19.64360 9607.0
19.64560 9394.0
19.64760 9683.0
19.64960 9618.0
19.65160 9618.0
19.65360 9703.0
19.65560 9643.0
19.65760 9824.0
19.65960 9732.0
19.66160 9713.0
19.66360 9699.0
19.66560 9755.0
19.66760 9700.0
19.66960 9872.0
19.67160 9682.0
19.67360 9795.0
19.67560 9840.0
19.67760 9829.0
19.67960 9952.0
19.68160 9940.0
19.68360 9736.0
19.68560 9859.0
19.68760 9817.0
19.68960 10040.0
19.69160 10012.0
19.69360 9957.0
19.69560 9852.0
19.69760 9779.0
19.69960 9969.0
19.70160 9784.0
19.70360 9894.0
19.70560 10066.0
19.70760 10015.0
19.70960 9652.0
19.71160 9779.0
19.71360 9804.0
19.71560 9849.0
19.71760 9960.0
19.71960 9799.0
19.72160 9823.0
19.72360 9969.0
19.72560 10007.0
19.72760 9935.0
19.72960 9947.0
19.73160 9947.0
19.73360 9890.0
19.73560 9838.0
19.73760 9909.0
19.73960 9922.0
19.74160 9785.0
19.74360 10083.0
19.74560 9766.0
19.74760 9866.0
19.74960 9828.0
19.75160 9671.0
19.75360 9658.0
19.75560 9515.0
19.75760 9604.0
19.75960 9553.0
19.76160 9709.0
19.76360 9638.0
19.76560 9818.0
19.76760 9786.0
19.76960 9656.0
19.77160 9730.0
19.77360 9828.0
19.77560 9940.0
19.77760 9636.0
19.77960 9602.0
19.78160 9505.0
19.78360 9433.0
19.78560 9628.0
19.78760 9425.0
19.78960 9575.0
19.79160 9451.0
19.79360 9483.0
19.79560 9413.0
19.79760 9350.0
19.79960 9313.0
19.80160 9469.0
19.80360 9363.0
19.80560 9397.0
19.80760 9461.0
19.80960 9464.0
19.81160 9511.0
19.81360 9352.0
19.81560 9354.0
19.81760 9143.0
19.81960 9223.0
19.82160 9262.0
19.82360 9207.0
19.82560 9179.0
19.82760 9287.0
19.82960 9219.0
19.83160 9279.0
19.83360 9151.0
19.83560 8945.0
19.83760 9003.0
19.83960 9016.0
19.84160 8906.0
19.84360 8806.0
19.84560 8724.0
19.84760 8781.0
19.84960 8841.0
19.85160 8735.0
19.85360 8602.0
19.85560 8874.0
19.85760 8566.0
19.85960 8396.0
19.86160 8645.0
19.86360 8625.0
19.86560 8564.0
19.86760 8701.0
19.86960 8505.0
19.87160 8263.0
19.87360 8366.0
19.87560 8359.0
19.87760 8246.0
19.87960 8345.0
19.88160 8338.0
19.88360 8198.0
19.88560 8207.0
19.88760 8038.0
19.88960 8111.0
19.89160 7922.0
19.89360 7881.0
19.89560 8055.0
19.89760 8018.0
19.89960 7873.0
19.90160 7849.0
19.90360 7923.0
19.90560 7535.0
19.90760 7627.0
19.90960 7700.0
19.91160 7569.0
19.91360 7668.0
19.91560 7385.0
19.91760 7696.0
19.91960 7449.0
19.92160 7483.0
19.92360 7278.0
19.92560 7335.0
19.92760 7414.0
19.92960 7394.0
19.93160 7209.0
19.93360 7362.0
19.93560 7417.0
19.93760 7088.0
19.93960 7109.0
19.94160 6977.0
19.94360 7067.0
19.94560 6938.0
19.94760 7039.0
19.94960 6865.0
19.95160 6821.0
19.95360 6814.0
19.95560 6767.0
19.95760 6766.0
19.95960 6576.0
19.96160 6540.0
19.96360 6475.0
19.96560 6596.0
19.96760 6585.0
19.96960 6492.0
19.97160 6325.0
19.97360 6597.0
19.97560 6483.0
19.97760 6463.0
19.97960 6285.0
19.98160 6177.0
19.98360 6115.0
19.98560 6108.0
19.98760 6216.0
19.98960 6018.0
19.99160 6081.0
19.99360 5994.0
19.99560 6043.0
19.99760 6022.0
19.99960 5968.0
20.00160 5861.0
20.00360 5830.0
20.00560 5735.0
20.00760 5821.0
20.00960 5691.0
20.01160 5674.0
20.01360 5630.0
20.01560 5414.0
20.01760 5353.0
20.01960 5448.0
20.02160 5467.0
20.02360 5416.0
20.02560 5442.0
20.02760 5337.0
20.02960 5242.0
20.03160 5203.0
20.03360 5281.0
20.03560 5233.0
20.03760 5228.0
20.03960 5056.0
20.04160 5107.0
20.04360 4996.0
20.04560 4953.0
20.04760 4936.0
20.04960 4917.0
20.05160 4977.0
20.05360 4782.0
20.05560 4805.0
20.05760 4802.0
20.05960 4833.0
20.06160 4612.0
20.06360 4754.0
20.06560 4541.0
20.06760 4614.0
20.06960 4502.0
20.07160 4586.0
20.07360 4549.0
20.07560 4480.0
20.07760 4351.0
20.07960 4404.0
20.08160 4336.0
20.08360 4268.0
20.08560 4390.0
20.08760 4299.0
20.08960 4306.0
20.09160 4237.0
20.09360 4158.0
20.09560 4222.0
20.09760 4162.0
20.09960 4000.0
20.10160 4094.0
20.10360 4035.0
20.10560 4007.0
20.10760 3840.0
20.10960 3998.0
20.11160 3904.0
20.11360 3886.0
20.11560 3910.0
20.11760 3804.0
20.11960 3798.0
20.12160 3698.0
20.12360 3743.0
20.12560 3749.0
20.12760 3606.0
20.12960 3493.0
20.13160 3656.0
20.13360 3493.0
20.13560 3521.0
20.13760 3462.0
20.13960 3435.0
20.14160 3470.0
20.14360 3534.0
20.14560 3453.0
20.14760 3471.0
20.14960 3406.0
20.15160 3387.0
20.15360 3262.0
20.15560 3297.0
20.15760 3357.0
20.15960 3163.0
20.16160 3239.0
20.16360 3167.0
20.16560 3239.0
20.16760 3182.0
20.16960 3142.0
20.17160 3002.0
20.17360 3054.0
20.17560 3044.0
20.17760 2987.0
20.17960 3041.0
20.18160 3088.0
20.18360 2980.0
20.18560 2985.0
20.18760 2925.0
20.18960 2859.0
20.19160 2788.0
20.19360 2820.0
20.19560 2786.0
20.19760 2788.0
20.19960 2808.0
20.20160 2770.0
20.20360 2797.0
20.20560 2706.0
20.20760 2669.0
20.20960 2598.0
20.21160 2729.0
20.21360 2639.0
20.21560 2636.0
20.21760 2713.0
20.21960 2572.0
20.22160 2628.0
20.22360 2523.0
20.22560 2563.0
20.22760 2618.0
20.22960 2551.0
20.23160 2616.0
20.23360 2470.0
20.23560 2616.0
20.23760 2471.0
20.23960 2470.0
20.24160 2419.0
20.24360 2407.0
20.24560 2459.0
20.24760 2396.0
20.24960 2311.0
20.25160 2241.0
20.25360 2314.0
20.25560 2271.0
20.25760 2320.0
20.25960 2215.0
20.26160 2178.0
20.26360 2294.0
20.26560 2240.0
20.26760 2242.0
20.26960 2237.0
20.27160 2127.0
20.27360 2155.0
20.27560 2149.0
20.27760 2117.0
20.27960 2123.0
20.28160 2142.0
20.28360 2161.0
20.28560 2069.0
20.28760 2075.0
20.28960 2054.0
20.29160 2098.0
20.29360 2066.0
20.29560 2000.0
20.29760 2097.0
20.29960 1993.0
20.30160 2019.0
20.30360 1986.0
20.30560 1908.0
20.30760 1976.0
20.30960 1986.0
20.31160 1935.0
20.31360 1905.0
20.31560 1936.0
20.31760 1882.0
20.31960 1826.0
20.32160 1785.0
20.32360 1873.0
20.32560 1864.0
20.32760 1857.0
20.32960 1835.0
20.33160 1811.0
20.33360 1835.0
20.33560 1828.0
20.33760 1797.0
20.33960 1789.0
20.34160 1732.0
20.34360 1729.0
20.34560 1805.0
20.34760 1740.0
20.34960 1704.0
20.35160 1653.0
20.35360 1679.0
20.35560 1592.0
20.35760 1597.0
20.35960 1557.0
20.36160 1591.0
20.36360 1562.0
20.36560 1531.0
20.36760 1590.0
20.36960 1506.0
20.37160 1496.0
20.37360 1501.0
20.37560 1517.0
20.37760 1501.0
20.37960 1379.0
20.38160 1469.0
20.38360 1415.0
20.38560 1388.0
20.38760 1344.0
20.38960 1403.0
20.39160 1411.0
20.39360 1367.0
20.39560 1400.0
20.39760 1322.0
20.39960 1299.0
20.40160 1338.0
20.40360 1348.0
20.40560 1281.0
20.40760 1349.0
20.40960 1250.0
20.41160 1266.0
20.41360 1215.0
20.41560 1326.0
20.41760 1329.0
20.41960 1330.0
20.42160 1311.0
20.42360 1196.0
20.42560 1220.0
20.42760 1180.0
20.42960 1226.0
20.43160 1199.0
20.43360 1141.0
20.43560 1189.0
20.43760 1190.0
20.43960 1199.0
20.44160 1173.0
20.44360 1160.0
20.44560 1090.0
20.44760 1163.0
20.44960 1222.0
20.45160 1160.0
20.45360 1111.0
20.45560 1097.0
20.45760 1124.0
20.45960 1194.0
20.46160 1108.0
20.46360 1067.0
20.46560 1087.0
20.46760 1139.0
20.46960 1116.0
20.47160 1067.0
20.47360 1055.0
20.47560 1068.0
20.47760 1055.0
20.47960 1118.0
20.48160 1071.0
20.48360 1003.0
20.48560 1026.0
20.48760 1000.0
20.48960 987.0
20.49160 996.0
20.49360 1035.0
20.49560 1007.0
20.49760 1038.0
20.49960 1048.0
20.50160 970.0
20.50360 948.0
20.50560 994.0
20.50760 1041.0
20.50960 999.0
20.51160 963.0
20.51360 991.0
20.51560 953.0
20.51760 953.0
20.51960 957.0
20.52160 990.0
20.52360 938.0
20.52560 995.0
20.52760 946.0
20.52960 898.0
20.53160 940.0
20.53360 919.0
20.53560 996.0
20.53760 946.0
20.53960 937.0
20.54160 883.0
20.54360 926.0
20.54560 919.0
20.54760 898.0
20.54960 880.0
20.55160 844.0
20.55360 911.0
20.55560 913.0
20.55760 894.0
20.55960 855.0
20.56160 883.0
20.56360 835.0
20.56560 872.0
20.56760 887.0
20.56960 839.0
20.57160 852.0
20.57360 845.0
20.57560 847.0
20.57760 803.0
20.57960 831.0
20.58160 843.0
20.58360 835.0
20.58560 834.0
20.58760 850.0
20.58960 797.0
20.59160 797.0
20.59360 813.0
20.59560 837.0
20.59760 774.0
20.59960 852.0
20.60160 798.0
20.60360 816.0
20.60560 797.0
20.60760 757.0
20.60960 819.0
20.61160 809.0
20.61360 780.0
20.61560 748.0
20.61760 742.0
20.61960 818.0
20.62160 787.0
20.62360 839.0
20.62560 725.0
20.62760 787.0
20.62960 726.0
20.63160 711.0
20.63360 717.0
20.63560 752.0
20.63760 778.0
20.63960 776.0
20.64160 709.0
20.64360 701.0
20.64560 763.0
20.64760 730.0
20.64960 686.0
20.65160 735.0
20.65360 713.0
20.65560 699.0
20.65760 712.0
20.65960 677.0
20.66160 738.0
20.66360 700.0
20.66560 743.0
20.66760 715.0
20.66960 740.0
20.67160 691.0
20.67360 694.0
20.67560 688.0
20.67760 712.0
20.67960 661.0
20.68160 691.0
20.68360 649.0
20.68560 701.0
20.68760 746.0
20.68960 679.0
20.69160 687.0
20.69360 723.0
20.69560 613.0
20.69760 686.0
20.69960 655.0
20.70160 715.0
20.70360 705.0
20.70560 657.0
20.70760 663.0
20.70960 641.0
20.71160 700.0
20.71360 620.0