File: data/W6932r/XRD_2ThetaOmega/scan_2th-om_r2_Cr2O3_45-55deg_PIXscan_5min.xy
45.0025 69.0
45.0123 56.0
45.0222 79.0
45.032 86.0
45.0419 86.0
45.0517 81.0
45.0615 74.0
45.0714 69.0
45.0812 63.0
45.0911 72.0
45.1009 71.0
45.1108 64.0
45.1206 72.0
45.1305 73.0
45.1403 70.0
45.1502 60.0
45.16 58.0
45.1699 67.0
45.1797 64.0
45.1896 64.0
45.1994 51.0
45.2093 75.0
45.2191 59.0
45.229 63.0
45.2388 66.0
45.2487 73.0
45.2585 51.0
45.2684 79.0
45.2782 73.0
45.288 66.0
45.2979 54.0
45.3077 74.0
45.3176 66.0
45.3274 62.0
45.3373 62.0
45.3471 65.0
45.357 57.0
45.3668 70.0
45.3767 74.0
45.3865 72.0
45.3964 52.0
45.4062 50.0
45.4161 57.0
45.4259 77.0
45.4358 54.0
45.4456 70.0
45.4555 55.0
45.4653 67.0
45.4752 66.0
45.485 53.0
45.4948 67.0
45.5047 58.0
45.5145 56.0
45.5244 77.0
45.5342 59.0
45.5441 72.0
45.5539 64.0
45.5638 64.0
45.5736 58.0
45.5835 61.0
45.5933 63.0
45.6032 71.0
45.613 62.0
45.6229 61.0
45.6327 65.0
45.6426 70.0
45.6524 43.0
45.6623 68.0
45.6721 71.0
45.682 60.0
45.6918 60.0
45.7016 60.0
45.7115 58.0
45.7213 60.0
45.7312 62.0
45.741 70.0
45.7509 73.0
45.7607 62.0
45.7706 72.0
45.7804 55.0
45.7903 61.0
45.8001 70.0
45.81 56.0
45.8198 66.0
45.8297 73.0
45.8395 69.0
45.8494 57.0
45.8592 74.0
45.8691 64.0
45.8789 73.0
45.8888 82.0
45.8986 52.0
45.9085 46.0
45.9183 63.0
45.9281 70.0
45.938 60.0
45.9478 77.0
45.9577 41.0
45.9675 58.0
45.9774 72.0
45.9872 62.0
45.9971 64.0
46.0069 74.0
46.0168 63.0
46.0266 54.0
46.0365 52.0
46.0463 59.0
46.0562 54.0
46.066 71.0
46.0759 62.0
46.0857 66.0
46.0956 63.0
46.1054 65.0
46.1153 77.0
46.1251 57.0
46.1349 55.0
46.1448 61.0
46.1546 50.0
46.1645 74.0
46.1743 61.0
46.1842 56.0
46.194 57.0
46.2039 59.0
46.2137 58.0
46.2236 57.0
46.2334 64.0
46.2433 60.0
46.2531 63.0
46.263 58.0
46.2728 61.0
46.2827 58.0
46.2925 77.0
46.3024 68.0
46.3122 59.0
46.3221 61.0
46.3319 63.0
46.3418 65.0
46.3516 61.0
46.3614 55.0
46.3713 57.0
46.3811 64.0
46.391 58.0
46.4008 73.0
46.4107 71.0
46.4205 57.0
46.4304 70.0
46.4402 58.0
46.4501 57.0
46.4599 78.0
46.4698 58.0
46.4796 55.0
46.4895 63.0
46.4993 56.0
46.5092 65.0
46.519 62.0
46.5289 59.0
46.5387 68.0
46.5486 71.0
46.5584 63.0
46.5682 72.0
46.5781 54.0
46.5879 56.0
46.5978 66.0
46.6076 77.0
46.6175 63.0
46.6273 72.0
46.6372 67.0
46.647 62.0
46.6569 73.0
46.6667 70.0
46.6766 79.0
46.6864 76.0
46.6963 81.0
46.7061 57.0
46.716 74.0
46.7258 62.0
46.7357 90.0
46.7455 70.0
46.7554 66.0
46.7652 73.0
46.7751 74.0
46.7849 79.0
46.7947 72.0
46.8046 67.0
46.8144 76.0
46.8243 68.0
46.8341 77.0
46.844 67.0
46.8538 70.0
46.8637 75.0
46.8735 84.0
46.8834 81.0
46.8932 71.0
46.9031 77.0
46.9129 63.0
46.9228 80.0
46.9326 74.0
46.9425 80.0
46.9523 70.0
46.9622 96.0
46.972 83.0
46.9819 79.0
46.9917 86.0
47.0015 88.0
47.0114 87.0
47.0212 99.0
47.0311 84.0
47.0409 125.0
47.0508 158.0
47.0606 173.0
47.0705 274.0
47.0803 374.0
47.0902 536.0
47.1 854.0
47.1099 1045.0
47.1197 1160.0
47.1296 960.0
47.1394 710.0
47.1493 465.0
47.1591 338.0
47.169 303.0
47.1788 256.0
47.1887 195.0
47.1985 159.0
47.2083 134.0
47.2182 115.0
47.228 112.0
47.2379 106.0
47.2477 92.0
47.2576 102.0
47.2674 103.0
47.2773 90.0
47.2871 99.0
47.297 94.0
47.3068 97.0
47.3167 82.0
47.3265 74.0
47.3364 98.0
47.3462 72.0
47.3561 77.0
47.3659 78.0
47.3758 81.0
47.3856 83.0
47.3955 73.0
47.4053 77.0
47.4152 71.0
47.425 95.0
47.4348 63.0
47.4447 71.0
47.4545 71.0
47.4644 78.0
47.4742 81.0
47.4841 88.0
47.4939 74.0
47.5038 74.0
47.5136 71.0
47.5235 80.0
47.5333 67.0
47.5432 75.0
47.553 68.0
47.5629 76.0
47.5727 76.0
47.5826 75.0
47.5924 64.0
47.6023 59.0
47.6121 74.0
47.622 73.0
47.6318 79.0
47.6416 57.0
47.6515 78.0
47.6613 68.0
47.6712 63.0
47.681 90.0
47.6909 74.0
47.7007 74.0
47.7106 80.0
47.7204 69.0
47.7303 69.0
47.7401 88.0
47.75 69.0
47.7598 84.0
47.7697 78.0
47.7795 88.0
47.7894 84.0
47.7992 82.0
47.8091 77.0
47.8189 81.0
47.8288 88.0
47.8386 91.0
47.8485 83.0
47.8583 82.0
47.8681 86.0
47.878 79.0
47.8878 67.0
47.8977 73.0
47.9075 77.0
47.9174 62.0
47.9272 68.0
47.9371 70.0
47.9469 83.0
47.9568 69.0
47.9666 72.0
47.9765 80.0
47.9863 86.0
47.9962 70.0
48.006 75.0
48.0159 79.0
48.0257 76.0
48.0356 63.0
48.0454 74.0
48.0553 84.0
48.0651 87.0
48.0749 74.0
48.0848 77.0
48.0946 64.0
48.1045 82.0
48.1143 73.0
48.1242 85.0
48.134 71.0
48.1439 81.0
48.1537 94.0
48.1636 83.0
48.1734 88.0
48.1833 67.0
48.1931 78.0
48.203 65.0
48.2128 55.0
48.2227 58.0
48.2325 78.0
48.2424 63.0
48.2522 60.0
48.2621 81.0
48.2719 77.0
48.2818 70.0
48.2916 66.0
48.3014 85.0
48.3113 56.0
48.3211 82.0
48.331 73.0
48.3408 63.0
48.3507 83.0
48.3605 89.0
48.3704 86.0
48.3802 79.0
48.3901 70.0
48.3999 65.0
48.4098 83.0
48.4196 67.0
48.4295 78.0
48.4393 87.0
48.4492 68.0
48.459 80.0
48.4689 87.0
48.4787 75.0
48.4886 83.0
48.4984 64.0
48.5082 86.0
48.5181 96.0
48.5279 59.0
48.5378 74.0
48.5476 66.0
48.5575 83.0
48.5673 81.0
48.5772 79.0
48.587 71.0
48.5969 94.0
48.6067 77.0
48.6166 82.0
48.6264 76.0
48.6363 86.0
48.6461 76.0
48.656 76.0
48.6658 79.0
48.6757 83.0
48.6855 82.0
48.6954 75.0
48.7052 68.0
48.715 78.0
48.7249 95.0
48.7347 93.0
48.7446 70.0
48.7544 92.0
48.7643 84.0
48.7741 90.0
48.784 89.0
48.7938 72.0
48.8037 81.0
48.8135 82.0
48.8234 71.0
48.8332 89.0
48.8431 72.0
48.8529 80.0
48.8628 74.0
48.8726 85.0
48.8825 94.0
48.8923 84.0
48.9022 86.0
48.912 88.0
48.9219 96.0
48.9317 108.0
48.9415 84.0
48.9514 78.0
48.9612 74.0
48.9711 90.0
48.9809 76.0
48.9908 90.0
49.0006 90.0
49.0105 87.0
49.0203 88.0
49.0302 75.0
49.04 96.0
49.0499 94.0
49.0597 89.0
49.0696 95.0
49.0794 84.0
49.0893 108.0
49.0991 86.0
49.109 113.0
49.1188 89.0
49.1287 93.0
49.1385 89.0
49.1483 81.0
49.1582 103.0
49.168 95.0
49.1779 92.0
49.1877 112.0
49.1976 90.0
49.2074 94.0
49.2173 96.0
49.2271 98.0
49.237 98.0
49.2468 96.0
49.2567 102.0
49.2665 102.0
49.2764 106.0
49.2862 124.0
49.2961 122.0
49.3059 118.0
49.3158 111.0
49.3256 115.0
49.3355 133.0
49.3453 124.0
49.3552 127.0
49.365 97.0
49.3748 131.0
49.3847 123.0
49.3945 120.0
49.4044 120.0
49.4142 135.0
49.4241 128.0
49.4339 122.0
49.4438 119.0
49.4536 141.0
49.4635 144.0
49.4733 136.0
49.4832 148.0
49.493 140.0
49.5029 167.0
49.5127 166.0
49.5226 180.0
49.5324 192.0
49.5423 194.0
49.5521 175.0
49.562 179.0
49.5718 211.0
49.5816 220.0
49.5915 217.0
49.6013 229.0
49.6112 226.0
49.621 243.0
49.6309 278.0
49.6407 285.0
49.6506 304.0
49.6604 295.0
49.6703 303.0
49.6801 308.0
49.69 308.0
49.6998 320.0
49.7097 370.0
49.7195 385.0
49.7294 415.0
49.7392 420.0
49.7491 414.0
49.7589 509.0
49.7688 527.0
49.7786 577.0
49.7884 594.0
49.7983 623.0
49.8081 623.0
49.818 709.0
49.8278 735.0
49.8377 812.0
49.8475 890.0
49.8574 956.0
49.8672 1033.0
49.8771 1094.0
49.8869 1182.0
49.8968 1345.0
49.9066 1359.0
49.9165 1511.0
49.9263 1638.0
49.9362 1803.0
49.946 1969.0
49.9559 2310.0
49.9657 2462.0
49.9756 2776.0
49.9854 2987.0
49.9953 3391.0
50.0051 3616.0
50.0149 3882.0
50.0248 4105.0
50.0346 4365.0
50.0445 4631.0
50.0543 4670.0
50.0642 4747.0
50.074 4699.0
50.0839 4619.0
50.0937 4491.0
50.1036 4301.0
50.1134 4341.0
50.1233 4017.0
50.1331 4002.0
50.143 3836.0
50.1528 3810.0
50.1627 3547.0
50.1725 3486.0
50.1824 3289.0
50.1922 3267.0
50.2021 2912.0
50.2119 2899.0
50.2217 2661.0
50.2316 2498.0
50.2414 2303.0
50.2513 2116.0
50.2611 1892.0
50.271 1767.0
50.2808 1461.0
50.2907 1319.0
50.3005 1253.0
50.3104 1094.0
50.3202 1016.0
50.3301 944.0
50.3399 799.0
50.3498 769.0
50.3596 724.0
50.3695 627.0
50.3793 586.0
50.3892 570.0
50.399 515.0
50.4089 458.0
50.4187 448.0
50.4286 377.0
50.4384 368.0
50.4482 372.0
50.4581 357.0
50.4679 319.0
50.4778 310.0
50.4876 298.0
50.4975 279.0
50.5073 286.0
50.5172 270.0
50.527 287.0
50.5369 260.0
50.5467 238.0
50.5566 238.0
50.5664 230.0
50.5763 222.0
50.5861 216.0
50.596 205.0
50.6058 200.0
50.6157 189.0
50.6255 211.0
50.6354 179.0
50.6452 182.0
50.655 177.0
50.6649 155.0
50.6747 205.0
50.6846 140.0
50.6944 183.0
50.7043 146.0
50.7141 182.0
50.724 192.0
50.7338 181.0
50.7437 156.0
50.7535 153.0
50.7634 151.0
50.7732 178.0
50.7831 146.0
50.7929 153.0
50.8028 165.0
50.8126 147.0
50.8225 179.0
50.8323 151.0
50.8422 156.0
50.852 148.0
50.8619 163.0
50.8717 164.0
50.8815 150.0
50.8914 145.0
50.9012 174.0
50.9111 128.0
50.9209 161.0
50.9308 138.0
50.9406 149.0
50.9505 146.0
50.9603 156.0
50.9702 151.0
50.98 153.0
50.9899 149.0
50.9997 159.0
51.0096 154.0
51.0194 152.0
51.0293 160.0
51.0391 131.0
51.049 183.0
51.0588 146.0
51.0687 168.0
51.0785 176.0
51.0883 166.0
51.0982 140.0
51.108 148.0
51.1179 129.0
51.1277 150.0
51.1376 171.0
51.1474 149.0
51.1573 162.0
51.1671 179.0
51.177 177.0
51.1868 183.0
51.1967 148.0
51.2065 170.0
51.2164 188.0
51.2262 173.0
51.2361 178.0
51.2459 167.0
51.2558 187.0
51.2656 175.0
51.2755 169.0
51.2853 180.0
51.2951 192.0
51.305 160.0
51.3148 218.0
51.3247 176.0
51.3345 214.0
51.3444 174.0
51.3542 204.0
51.3641 188.0
51.3739 195.0
51.3838 256.0
51.3936 266.0
51.4035 194.0
51.4133 207.0
51.4232 214.0
51.433 204.0
51.4429 256.0
51.4527 260.0
51.4626 192.0
51.4724 224.0
51.4823 211.0
51.4921 280.0
51.502 272.0
51.5118 261.0
51.5216 273.0
51.5315 266.0
51.5413 289.0
51.5512 213.0
51.561 289.0
51.5709 300.0
51.5807 266.0
51.5906 282.0
51.6004 304.0
51.6103 312.0
51.6201 282.0
51.63 322.0
51.6398 308.0
51.6497 319.0
51.6595 319.0
51.6694 323.0
51.6792 351.0
51.6891 335.0
51.6989 323.0
51.7088 333.0
51.7186 384.0
51.7284 322.0
51.7383 342.0
51.7481 340.0
51.758 321.0
51.7678 359.0
51.7777 385.0
51.7875 337.0
51.7974 358.0
51.8072 406.0
51.8171 379.0
51.8269 357.0
51.8368 393.0
51.8466 349.0
51.8565 391.0
51.8663 378.0
51.8762 404.0
51.886 400.0
51.8959 447.0
51.9057 404.0
51.9156 416.0
51.9254 430.0
51.9353 449.0
51.9451 442.0
51.9549 492.0
51.9648 491.0
51.9746 501.0
51.9845 521.0
51.9943 549.0
52.0042 499.0
52.014 513.0
52.0239 572.0
52.0337 605.0
52.0436 525.0
52.0534 590.0
52.0633 640.0
52.0731 692.0
52.083 695.0
52.0928 722.0
52.1027 717.0
52.1125 761.0
52.1224 822.0
52.1322 814.0
52.1421 820.0
52.1519 888.0
52.1617 946.0
52.1716 996.0
52.1814 1080.0
52.1913 1157.0
52.2011 1321.0
52.211 1444.0
52.2208 1717.0
52.2307 1992.0
52.2405 2306.0
52.2504 2561.0
52.2602 2626.0
52.2701 2789.0
52.2799 2802.0
52.2898 2836.0
52.2996 2774.0
52.3095 2686.0
52.3193 2674.0
52.3292 2509.0
52.339 2647.0
52.3489 2874.0
52.3587 2993.0
52.3686 3306.0
52.3784 3647.0
52.3882 4246.0
52.3981 4867.0
52.4079 5732.0
52.4178 7185.0
52.4276 8797.0
52.4375 11537.0
52.4473 15745.0
52.4572 23254.0
52.467 38310.0
52.4769 73619.0
52.4867 163138.0
52.4966 287637.0
52.5064 337366.0
52.5163 288875.0
52.5261 166161.0
52.536 84139.0
52.5458 46032.0
52.5557 28203.0
52.5655 19669.0
52.5754 16197.0
52.5852 15085.0
52.595 17332.0
52.6049 22992.0
52.6147 37321.0
52.6246 71850.0
52.6344 126402.0
52.6443 161306.0
52.6541 152689.0
52.664 103955.0
52.6738 56260.0
52.6837 30167.0
52.6935 17639.0
52.7034 11695.0
52.7132 8385.0
52.7231 6579.0
52.7329 5286.0
52.7428 4473.0
52.7526 3874.0
52.7625 3199.0
52.7723 3066.0
52.7822 2726.0
52.792 2526.0
52.8018 2324.0
52.8117 2140.0
52.8215 1933.0
52.8314 1841.0
52.8412 1699.0
52.8511 1562.0
52.8609 1516.0
52.8708 1362.0
52.8806 1281.0
52.8905 1297.0
52.9003 1258.0
52.9102 1176.0
52.92 1159.0
52.9299 1054.0
52.9397 955.0
52.9496 930.0
52.9594 867.0
52.9693 842.0
52.9791 844.0
52.989 812.0
52.9988 754.0
53.0087 729.0
53.0185 728.0
53.0283 676.0
53.0382 614.0
53.048 630.0
53.0579 589.0
53.0677 623.0
53.0776 604.0
53.0874 566.0
53.0973 551.0
53.1071 539.0
53.117 534.0
53.1268 547.0
53.1367 479.0
53.1465 475.0
53.1564 468.0
53.1662 469.0
53.1761 431.0
53.1859 387.0
53.1958 368.0
53.2056 411.0
53.2155 356.0
53.2253 376.0
53.2351 393.0
53.245 393.0
53.2548 373.0
53.2647 384.0
53.2745 381.0
53.2844 362.0
53.2942 346.0
53.3041 340.0
53.3139 307.0
53.3238 308.0
53.3336 315.0
53.3435 276.0
53.3533 315.0
53.3632 312.0
53.373 301.0
53.3829 316.0
53.3927 306.0
53.4026 286.0
53.4124 224.0
53.4223 266.0
53.4321 261.0
53.442 209.0
53.4518 259.0
53.4616 219.0
53.4715 216.0
53.4813 208.0
53.4912 213.0
53.501 192.0
53.5109 180.0
53.5207 201.0
53.5306 194.0
53.5404 187.0
53.5503 186.0
53.5601 179.0
53.57 177.0
53.5798 182.0
53.5897 187.0
53.5995 166.0
53.6094 188.0
53.6192 167.0
53.6291 166.0
53.6389 171.0
53.6488 163.0
53.6586 163.0
53.6684 163.0
53.6783 152.0
53.6881 158.0
53.698 129.0
53.7078 142.0
53.7177 155.0
53.7275 133.0
53.7374 170.0
53.7472 143.0
53.7571 136.0
53.7669 141.0
53.7768 155.0
53.7866 125.0
53.7965 155.0
53.8063 139.0
53.8162 135.0
53.826 130.0
53.8359 139.0
53.8457 107.0
53.8556 120.0
53.8654 117.0
53.8753 130.0
53.8851 119.0
53.8949 139.0
53.9048 124.0
53.9146 129.0
53.9245 114.0
53.9343 131.0
53.9442 140.0
53.954 123.0
53.9639 109.0
53.9737 111.0
53.9836 113.0
53.9934 104.0
54.0033 113.0
54.0131 118.0
54.023 106.0
54.0328 107.0
54.0427 112.0
54.0525 115.0
54.0624 99.0
54.0722 112.0
54.0821 116.0
54.0919 97.0
54.1017 122.0
54.1116 109.0
54.1214 111.0
54.1313 95.0
54.1411 110.0
54.151 117.0
54.1608 98.0
54.1707 108.0
54.1805 74.0
54.1904 82.0
54.2002 111.0
54.2101 105.0
54.2199 97.0
54.2298 90.0
54.2396 114.0
54.2495 111.0
54.2593 108.0
54.2692 90.0
54.279 85.0
54.2889 92.0
54.2987 113.0
54.3085 90.0
54.3184 77.0
54.3282 92.0
54.3381 89.0
54.3479 117.0
54.3578 106.0
54.3676 104.0
54.3775 97.0
54.3873 83.0
54.3972 87.0
54.407 91.0
54.4169 92.0
54.4267 88.0
54.4366 72.0
54.4464 83.0
54.4563 93.0
54.4661 76.0
54.476 93.0
54.4858 97.0
54.4957 91.0
54.5055 81.0
54.5154 75.0
54.5252 99.0
54.535 94.0
54.5449 96.0
54.5547 86.0
54.5646 74.0
54.5744 115.0
54.5843 93.0
54.5941 89.0
54.604 89.0
54.6138 88.0
54.6237 90.0
54.6335 96.0
54.6434 103.0
54.6532 69.0
54.6631 80.0
54.6729 72.0
54.6828 99.0
54.6926 89.0
54.7025 86.0
54.7123 91.0
54.7222 80.0
54.732 89.0
54.7418 78.0
54.7517 82.0
54.7615 85.0
54.7714 97.0
54.7812 91.0
54.7911 87.0
54.8009 85.0
54.8108 79.0
54.8206 84.0
54.8305 90.0
54.8403 89.0
54.8502 85.0
54.86 68.0
54.8699 96.0
54.8797 81.0
54.8896 96.0
54.8994 82.0
54.9093 89.0
54.9191 87.0
54.929 81.0
54.9388 79.0
54.9487 65.0
54.9585 84.0
54.9683 71.0
54.9782 86.0
54.988 76.0
54.9979 87.0