File: data/W6932m/XRD_2ThetaOmega/scan_2th-om_m_Cr2O3_55-75deg_PIXscan_4min.xy
55.0019 57.0
55.0166 43.0
55.0314 62.0
55.0462 66.0
55.0609 68.0
55.0757 66.0
55.0905 51.0
55.1053 70.0
55.12 61.0
55.1348 70.0
55.1496 64.0
55.1643 71.0
55.1791 77.0
55.1939 63.0
55.2087 55.0
55.2234 64.0
55.2382 68.0
55.253 55.0
55.2678 56.0
55.2825 60.0
55.2973 64.0
55.3121 73.0
55.3268 45.0
55.3416 67.0
55.3564 68.0
55.3712 65.0
55.3859 70.0
55.4007 75.0
55.4155 68.0
55.4302 66.0
55.445 66.0
55.4598 73.0
55.4746 69.0
55.4893 58.0
55.5041 67.0
55.5189 62.0
55.5336 63.0
55.5484 72.0
55.5632 74.0
55.578 78.0
55.5927 77.0
55.6075 71.0
55.6223 80.0
55.637 66.0
55.6518 56.0
55.6666 58.0
55.6814 69.0
55.6961 59.0
55.7109 72.0
55.7257 78.0
55.7404 60.0
55.7552 71.0
55.77 73.0
55.7848 59.0
55.7995 70.0
55.8143 61.0
55.8291 66.0
55.8438 58.0
55.8586 58.0
55.8734 57.0
55.8882 53.0
55.9029 63.0
55.9177 64.0
55.9325 68.0
55.9472 74.0
55.962 69.0
55.9768 79.0
55.9916 60.0
56.0063 60.0
56.0211 57.0
56.0359 54.0
56.0506 64.0
56.0654 87.0
56.0802 70.0
56.095 65.0
56.1097 68.0
56.1245 77.0
56.1393 77.0
56.154 86.0
56.1688 60.0
56.1836 58.0
56.1984 64.0
56.2131 69.0
56.2279 70.0
56.2427 64.0
56.2574 66.0
56.2722 61.0
56.287 78.0
56.3018 65.0
56.3165 60.0
56.3313 67.0
56.3461 55.0
56.3608 66.0
56.3756 87.0
56.3904 73.0
56.4052 56.0
56.4199 63.0
56.4347 59.0
56.4495 79.0
56.4642 54.0
56.479 56.0
56.4938 71.0
56.5086 72.0
56.5233 55.0
56.5381 77.0
56.5529 67.0
56.5676 50.0
56.5824 60.0
56.5972 61.0
56.612 52.0
56.6267 75.0
56.6415 52.0
56.6563 56.0
56.671 71.0
56.6858 77.0
56.7006 65.0
56.7154 63.0
56.7301 60.0
56.7449 84.0
56.7597 57.0
56.7745 54.0
56.7892 75.0
56.804 77.0
56.8188 69.0
56.8335 68.0
56.8483 64.0
56.8631 59.0
56.8779 54.0
56.8926 55.0
56.9074 68.0
56.9222 71.0
56.9369 62.0
56.9517 62.0
56.9665 52.0
56.9813 63.0
56.996 53.0
57.0108 57.0
57.0256 64.0
57.0403 42.0
57.0551 53.0
57.0699 70.0
57.0847 64.0
57.0994 60.0
57.1142 66.0
57.129 76.0
57.1437 66.0
57.1585 64.0
57.1733 71.0
57.1881 65.0
57.2028 46.0
57.2176 75.0
57.2324 64.0
57.2471 79.0
57.2619 65.0
57.2767 67.0
57.2915 60.0
57.3062 57.0
57.321 50.0
57.3358 68.0
57.3505 61.0
57.3653 57.0
57.3801 70.0
57.3949 62.0
57.4096 66.0
57.4244 88.0
57.4392 80.0
57.4539 54.0
57.4687 70.0
57.4835 75.0
57.4983 55.0
57.513 70.0
57.5278 48.0
57.5426 67.0
57.5573 69.0
57.5721 71.0
57.5869 70.0
57.6017 80.0
57.6164 68.0
57.6312 64.0
57.646 56.0
57.6607 77.0
57.6755 62.0
57.6903 69.0
57.7051 63.0
57.7198 57.0
57.7346 60.0
57.7494 58.0
57.7641 61.0
57.7789 87.0
57.7937 72.0
57.8085 75.0
57.8232 56.0
57.838 65.0
57.8528 62.0
57.8675 43.0
57.8823 72.0
57.8971 63.0
57.9119 73.0
57.9266 85.0
57.9414 73.0
57.9562 71.0
57.9709 72.0
57.9857 85.0
58.0005 86.0
58.0153 86.0
58.03 84.0
58.0448 76.0
58.0596 79.0
58.0743 86.0
58.0891 84.0
58.1039 86.0
58.1187 90.0
58.1334 84.0
58.1482 81.0
58.163 83.0
58.1777 62.0
58.1925 79.0
58.2073 65.0
58.2221 73.0
58.2368 66.0
58.2516 54.0
58.2664 79.0
58.2812 80.0
58.2959 60.0
58.3107 54.0
58.3255 61.0
58.3402 78.0
58.355 59.0
58.3698 78.0
58.3846 69.0
58.3993 69.0
58.4141 65.0
58.4289 56.0
58.4436 58.0
58.4584 62.0
58.4732 77.0
58.488 58.0
58.5027 60.0
58.5175 74.0
58.5323 72.0
58.547 55.0
58.5618 47.0
58.5766 68.0
58.5914 66.0
58.6061 76.0
58.6209 69.0
58.6357 71.0
58.6504 67.0
58.6652 70.0
58.68 72.0
58.6948 61.0
58.7095 59.0
58.7243 62.0
58.7391 66.0
58.7538 61.0
58.7686 61.0
58.7834 71.0
58.7982 62.0
58.8129 69.0
58.8277 63.0
58.8425 63.0
58.8572 76.0
58.872 51.0
58.8868 73.0
58.9016 61.0
58.9163 76.0
58.9311 69.0
58.9459 47.0
58.9606 56.0
58.9754 57.0
58.9902 77.0
59.005 70.0
59.0197 60.0
59.0345 76.0
59.0493 58.0
59.064 55.0
59.0788 72.0
59.0936 65.0
59.1084 72.0
59.1231 73.0
59.1379 88.0
59.1527 46.0
59.1674 61.0
59.1822 73.0
59.197 69.0
59.2118 71.0
59.2265 63.0
59.2413 61.0
59.2561 59.0
59.2708 70.0
59.2856 58.0
59.3004 57.0
59.3152 77.0
59.3299 68.0
59.3447 71.0
59.3595 79.0
59.3742 67.0
59.389 54.0
59.4038 61.0
59.4186 58.0
59.4333 63.0
59.4481 67.0
59.4629 40.0
59.4776 64.0
59.4924 77.0
59.5072 70.0
59.522 69.0
59.5367 80.0
59.5515 69.0
59.5663 69.0
59.581 78.0
59.5958 67.0
59.6106 64.0
59.6254 68.0
59.6401 61.0
59.6549 71.0
59.6697 76.0
59.6844 50.0
59.6992 64.0
59.714 63.0
59.7288 65.0
59.7435 68.0
59.7583 59.0
59.7731 69.0
59.7878 76.0
59.8026 58.0
59.8174 61.0
59.8322 60.0
59.8469 70.0
59.8617 58.0
59.8765 74.0
59.8913 63.0
59.906 64.0
59.9208 66.0
59.9356 58.0
59.9503 69.0
59.9651 66.0
59.9799 69.0
59.9947 67.0
60.0094 71.0
60.0242 66.0
60.039 65.0
60.0537 54.0
60.0685 74.0
60.0833 61.0
60.0981 65.0
60.1128 79.0
60.1276 66.0
60.1424 61.0
60.1571 69.0
60.1719 77.0
60.1867 73.0
60.2015 54.0
60.2162 80.0
60.231 55.0
60.2458 68.0
60.2605 61.0
60.2753 76.0
60.2901 75.0
60.3049 59.0
60.3196 68.0
60.3344 80.0
60.3492 78.0
60.3639 55.0
60.3787 68.0
60.3935 88.0
60.4083 77.0
60.423 67.0
60.4378 76.0
60.4526 48.0
60.4673 65.0
60.4821 74.0
60.4969 80.0
60.5117 62.0
60.5264 78.0
60.5412 77.0
60.556 67.0
60.5707 69.0
60.5855 58.0
60.6003 69.0
60.6151 64.0
60.6298 67.0
60.6446 92.0
60.6594 68.0
60.6741 88.0
60.6889 66.0
60.7037 81.0
60.7185 79.0
60.7332 82.0
60.748 93.0
60.7628 128.0
60.7775 137.0
60.7923 167.0
60.8071 282.0
60.8219 457.0
60.8366 703.0
60.8514 737.0
60.8662 663.0
60.8809 417.0
60.8957 333.0
60.9105 314.0
60.9253 355.0
60.94 290.0
60.9548 180.0
60.9696 149.0
60.9843 125.0
60.9991 109.0
61.0139 114.0
61.0287 92.0
61.0434 93.0
61.0582 78.0
61.073 86.0
61.0877 83.0
61.1025 84.0
61.1173 87.0
61.1321 75.0
61.1468 85.0
61.1616 77.0
61.1764 72.0
61.1911 75.0
61.2059 75.0
61.2207 76.0
61.2355 72.0
61.2502 86.0
61.265 82.0
61.2798 74.0
61.2945 83.0
61.3093 59.0
61.3241 66.0
61.3389 95.0
61.3536 62.0
61.3684 84.0
61.3832 65.0
61.398 60.0
61.4127 78.0
61.4275 78.0
61.4423 69.0
61.457 91.0
61.4718 65.0
61.4866 75.0
61.5014 61.0
61.5161 75.0
61.5309 75.0
61.5457 88.0
61.5604 77.0
61.5752 79.0
61.59 59.0
61.6048 81.0
61.6195 78.0
61.6343 83.0
61.6491 66.0
61.6638 66.0
61.6786 78.0
61.6934 69.0
61.7082 89.0
61.7229 73.0
61.7377 56.0
61.7525 69.0
61.7672 69.0
61.782 66.0
61.7968 77.0
61.8116 73.0
61.8263 72.0
61.8411 74.0
61.8559 61.0
61.8706 67.0
61.8854 71.0
61.9002 71.0
61.915 81.0
61.9297 72.0
61.9445 78.0
61.9593 68.0
61.974 85.0
61.9888 76.0
62.0036 82.0
62.0184 71.0
62.0331 79.0
62.0479 79.0
62.0627 81.0
62.0774 69.0
62.0922 77.0
62.107 80.0
62.1218 69.0
62.1365 72.0
62.1513 76.0
62.1661 60.0
62.1808 67.0
62.1956 62.0
62.2104 75.0
62.2252 87.0
62.2399 68.0
62.2547 71.0
62.2695 71.0
62.2842 85.0
62.299 76.0
62.3138 67.0
62.3286 94.0
62.3433 58.0
62.3581 70.0
62.3729 87.0
62.3876 80.0
62.4024 76.0
62.4172 65.0
62.432 83.0
62.4467 79.0
62.4615 90.0
62.4763 59.0
62.491 62.0
62.5058 83.0
62.5206 89.0
62.5354 69.0
62.5501 79.0
62.5649 69.0
62.5797 84.0
62.5944 77.0
62.6092 76.0
62.624 70.0
62.6388 96.0
62.6535 78.0
62.6683 75.0
62.6831 75.0
62.6978 73.0
62.7126 83.0
62.7274 66.0
62.7422 69.0
62.7569 68.0
62.7717 77.0
62.7865 84.0
62.8012 80.0
62.816 67.0
62.8308 83.0
62.8456 84.0
62.8603 80.0
62.8751 77.0
62.8899 88.0
62.9047 82.0
62.9194 66.0
62.9342 80.0
62.949 90.0
62.9637 88.0
62.9785 88.0
62.9933 77.0
63.0081 87.0
63.0228 82.0
63.0376 81.0
63.0524 81.0
63.0671 91.0
63.0819 78.0
63.0967 91.0
63.1115 59.0
63.1262 76.0
63.141 79.0
63.1558 88.0
63.1705 77.0
63.1853 90.0
63.2001 76.0
63.2149 81.0
63.2296 87.0
63.2444 90.0
63.2592 78.0
63.2739 85.0
63.2887 62.0
63.3035 84.0
63.3183 98.0
63.333 94.0
63.3478 76.0
63.3626 76.0
63.3773 80.0
63.3921 76.0
63.4069 89.0
63.4217 89.0
63.4364 83.0
63.4512 93.0
63.466 82.0
63.4807 96.0
63.4955 86.0
63.5103 85.0
63.5251 90.0
63.5398 87.0
63.5546 79.0
63.5694 78.0
63.5841 95.0
63.5989 106.0
63.6137 95.0
63.6285 98.0
63.6432 95.0
63.658 91.0
63.6728 98.0
63.6875 89.0
63.7023 91.0
63.7171 128.0
63.7319 92.0
63.7466 85.0
63.7614 95.0
63.7762 104.0
63.7909 118.0
63.8057 105.0
63.8205 99.0
63.8353 128.0
63.85 98.0
63.8648 95.0
63.8796 104.0
63.8943 103.0
63.9091 105.0
63.9239 94.0
63.9387 100.0
63.9534 88.0
63.9682 119.0
63.983 124.0
63.9977 103.0
64.0125 103.0
64.0273 111.0
64.0421 125.0
64.0568 128.0
64.0716 116.0
64.0864 128.0
64.1011 123.0
64.1159 131.0
64.1307 143.0
64.1455 109.0
64.1602 133.0
64.175 112.0
64.1898 115.0
64.2045 112.0
64.2193 139.0
64.2341 151.0
64.2489 153.0
64.2636 148.0
64.2784 148.0
64.2932 155.0
64.3079 152.0
64.3227 134.0
64.3375 163.0
64.3523 195.0
64.367 156.0
64.3818 184.0
64.3966 204.0
64.4114 181.0
64.4261 200.0
64.4409 211.0
64.4557 272.0
64.4704 272.0
64.4852 250.0
64.5 267.0
64.5148 302.0
64.5295 319.0
64.5443 334.0
64.5591 375.0
64.5738 368.0
64.5886 426.0
64.6034 456.0
64.6182 490.0
64.6329 515.0
64.6477 572.0
64.6625 651.0
64.6772 736.0
64.692 708.0
64.7068 858.0
64.7216 859.0
64.7363 1056.0
64.7511 1134.0
64.7659 1305.0
64.7806 1398.0
64.7954 1617.0
64.8102 1865.0
64.825 2068.0
64.8397 2494.0
64.8545 2785.0
64.8693 3109.0
64.884 3708.0
64.8988 4094.0
64.9136 4589.0
64.9284 4917.0
64.9431 5232.0
64.9579 5240.0
64.9727 5170.0
64.9874 5082.0
65.0022 4894.0
65.017 4535.0
65.0318 4280.0
65.0465 4104.0
65.0613 3781.0
65.0761 3717.0
65.0908 3500.0
65.1056 3468.0
65.1204 3330.0
65.1352 3272.0
65.1499 3042.0
65.1647 2762.0
65.1795 2567.0
65.1942 2352.0
65.209 2005.0
65.2238 1749.0
65.2386 1502.0
65.2533 1289.0
65.2681 1068.0
65.2829 965.0
65.2976 820.0
65.3124 680.0
65.3272 641.0
65.342 576.0
65.3567 491.0
65.3715 450.0
65.3863 368.0
65.401 354.0
65.4158 358.0
65.4306 287.0
65.4454 285.0
65.4601 260.0
65.4749 273.0
65.4897 217.0
65.5044 210.0
65.5192 222.0
65.534 208.0
65.5488 202.0
65.5635 193.0
65.5783 177.0
65.5931 175.0
65.6078 195.0
65.6226 156.0
65.6374 180.0
65.6522 166.0
65.6669 127.0
65.6817 158.0
65.6965 147.0
65.7112 169.0
65.726 153.0
65.7408 131.0
65.7556 150.0
65.7703 137.0
65.7851 159.0
65.7999 106.0
65.8146 153.0
65.8294 113.0
65.8442 130.0
65.859 150.0
65.8737 125.0
65.8885 129.0
65.9033 132.0
65.9181 126.0
65.9328 118.0
65.9476 113.0
65.9624 115.0
65.9771 112.0
65.9919 125.0
66.0067 106.0
66.0215 100.0
66.0362 114.0
66.051 107.0
66.0658 119.0
66.0805 112.0
66.0953 131.0
66.1101 139.0
66.1249 121.0
66.1396 130.0
66.1544 119.0
66.1692 115.0
66.1839 136.0
66.1987 123.0
66.2135 118.0
66.2283 141.0
66.243 125.0
66.2578 140.0
66.2726 137.0
66.2873 128.0
66.3021 141.0
66.3169 115.0
66.3317 131.0
66.3464 114.0
66.3612 147.0
66.376 153.0
66.3907 140.0
66.4055 143.0
66.4203 122.0
66.4351 138.0
66.4498 164.0
66.4646 143.0
66.4794 154.0
66.4941 129.0
66.5089 160.0
66.5237 153.0
66.5385 148.0
66.5532 159.0
66.568 147.0
66.5828 159.0
66.5975 154.0
66.6123 153.0
66.6271 133.0
66.6419 140.0
66.6566 156.0
66.6714 159.0
66.6862 175.0
66.7009 183.0
66.7157 157.0
66.7305 174.0
66.7453 168.0
66.76 167.0
66.7748 193.0
66.7896 159.0
66.8043 175.0
66.8191 161.0
66.8339 155.0
66.8487 162.0
66.8634 171.0
66.8782 183.0
66.893 154.0
66.9077 206.0
66.9225 215.0
66.9373 205.0
66.9521 199.0
66.9668 190.0
66.9816 191.0
66.9964 201.0
67.0111 208.0
67.0259 199.0
67.0407 219.0
67.0555 220.0
67.0702 191.0
67.085 208.0
67.0998 260.0
67.1145 196.0
67.1293 193.0
67.1441 267.0
67.1589 212.0
67.1736 206.0
67.1884 269.0
67.2032 295.0
67.2179 256.0
67.2327 298.0
67.2475 277.0
67.2623 278.0
67.277 283.0
67.2918 318.0
67.3066 293.0
67.3213 284.0
67.3361 310.0
67.3509 281.0
67.3657 346.0
67.3804 337.0
67.3952 377.0
67.41 356.0
67.4248 372.0
67.4395 347.0
67.4543 367.0
67.4691 393.0
67.4838 341.0
67.4986 374.0
67.5134 362.0
67.5282 413.0
67.5429 431.0
67.5577 412.0
67.5725 417.0
67.5872 440.0
67.602 442.0
67.6168 479.0
67.6316 469.0
67.6463 488.0
67.6611 554.0
67.6759 561.0
67.6906 551.0
67.7054 647.0
67.7202 644.0
67.735 744.0
67.7497 818.0
67.7645 941.0
67.7793 1116.0
67.794 1260.0
67.8088 1457.0
67.8236 1715.0
67.8384 1670.0
67.8531 1823.0
67.8679 1808.0
67.8827 1689.0
67.8974 1713.0
67.9122 1542.0
67.927 1710.0
67.9418 1728.0
67.9565 1782.0
67.9713 1989.0
67.9861 2131.0
68.0008 2271.0
68.0156 2742.0
68.0304 3420.0
68.0452 4001.0
68.0599 5313.0
68.0747 6561.0
68.0895 9526.0
68.1042 13313.0
68.119 24174.0
68.1338 45226.0
68.1486 125555.0
68.1633 225838.0
68.1781 188014.0
68.1929 91637.0
68.2076 47742.0
68.2224 22744.0
68.2372 14826.0
68.252 10346.0
68.2667 8459.0
68.2815 8869.0
68.2963 9986.0
68.311 14799.0
68.3258 26515.0
68.3406 60306.0
68.3554 99818.0
68.3701 93750.0
68.3849 53520.0
68.3997 26472.0
68.4144 13532.0
68.4292 8278.0
68.444 5697.0
68.4588 4066.0
68.4735 3373.0
68.4883 2595.0
68.5031 2378.0
68.5178 2070.0
68.5326 1845.0
68.5474 1650.0
68.5622 1491.0
68.5769 1394.0
68.5917 1246.0
68.6065 1157.0
68.6212 998.0
68.636 993.0
68.6508 969.0
68.6656 792.0
68.6803 825.0
68.6951 732.0
68.7099 778.0
68.7246 733.0
68.7394 652.0
68.7542 648.0
68.769 587.0
68.7837 585.0
68.7985 561.0
68.8133 569.0
68.828 531.0
68.8428 498.0
68.8576 431.0
68.8724 451.0
68.8871 443.0
68.9019 428.0
68.9167 418.0
68.9315 390.0
68.9462 355.0
68.961 363.0
68.9758 355.0
68.9905 335.0
69.0053 334.0
69.0201 339.0
69.0349 319.0
69.0496 354.0
69.0644 322.0
69.0792 311.0
69.0939 295.0
69.1087 283.0
69.1235 303.0
69.1383 268.0
69.153 219.0
69.1678 203.0
69.1826 210.0
69.1973 272.0
69.2121 208.0
69.2269 267.0
69.2417 219.0
69.2564 198.0
69.2712 198.0
69.286 196.0
69.3007 165.0
69.3155 198.0
69.3303 182.0
69.3451 173.0
69.3598 183.0
69.3746 180.0
69.3894 169.0
69.4041 166.0
69.4189 169.0
69.4337 152.0
69.4485 169.0
69.4632 140.0
69.478 165.0
69.4928 160.0
69.5075 162.0
69.5223 149.0
69.5371 154.0
69.5519 141.0
69.5666 136.0
69.5814 130.0
69.5962 134.0
69.6109 136.0
69.6257 114.0
69.6405 135.0
69.6553 125.0
69.67 116.0
69.6848 135.0
69.6996 123.0
69.7143 119.0
69.7291 132.0
69.7439 127.0
69.7587 116.0
69.7734 112.0
69.7882 131.0
69.803 120.0
69.8177 94.0
69.8325 112.0
69.8473 109.0
69.8621 97.0
69.8768 105.0
69.8916 116.0
69.9064 105.0
69.9211 115.0
69.9359 117.0
69.9507 104.0
69.9655 120.0
69.9802 114.0
69.995 96.0
70.0098 121.0
70.0245 96.0
70.0393 94.0
70.0541 89.0
70.0689 114.0
70.0836 105.0
70.0984 94.0
70.1132 122.0
70.1279 115.0
70.1427 97.0
70.1575 85.0
70.1723 80.0
70.187 91.0
70.2018 88.0
70.2166 84.0
70.2313 105.0
70.2461 78.0
70.2609 82.0
70.2757 93.0
70.2904 87.0
70.3052 112.0
70.32 78.0
70.3347 96.0
70.3495 81.0
70.3643 98.0
70.3791 91.0
70.3938 89.0
70.4086 85.0
70.4234 90.0
70.4382 88.0
70.4529 100.0
70.4677 96.0
70.4825 72.0
70.4972 97.0
70.512 80.0
70.5268 98.0
70.5416 88.0
70.5563 77.0
70.5711 87.0
70.5859 81.0
70.6006 85.0
70.6154 83.0
70.6302 83.0
70.645 97.0
70.6597 80.0
70.6745 88.0
70.6893 82.0
70.704 77.0
70.7188 75.0
70.7336 97.0
70.7484 87.0
70.7631 93.0
70.7779 95.0
70.7927 80.0
70.8074 103.0
70.8222 80.0
70.837 88.0
70.8518 86.0
70.8665 79.0
70.8813 64.0
70.8961 81.0
70.9108 102.0
70.9256 90.0
70.9404 90.0
70.9552 90.0
70.9699 78.0
70.9847 71.0
70.9995 93.0
71.0142 73.0
71.029 82.0
71.0438 82.0
71.0586 84.0
71.0733 87.0
71.0881 82.0
71.1029 91.0
71.1176 83.0
71.1324 67.0
71.1472 87.0
71.162 74.0
71.1767 88.0
71.1915 89.0
71.2063 72.0
71.221 80.0
71.2358 63.0
71.2506 86.0
71.2654 78.0
71.2801 76.0
71.2949 75.0
71.3097 75.0
71.3244 77.0
71.3392 86.0
71.354 92.0
71.3688 79.0
71.3835 75.0
71.3983 83.0
71.4131 72.0
71.4278 81.0
71.4426 92.0
71.4574 75.0
71.4722 79.0
71.4869 69.0
71.5017 79.0
71.5165 85.0
71.5312 75.0
71.546 62.0
71.5608 64.0
71.5756 89.0
71.5903 83.0
71.6051 81.0
71.6199 79.0
71.6346 79.0
71.6494 77.0
71.6642 82.0
71.679 61.0
71.6937 103.0
71.7085 65.0
71.7233 82.0
71.738 64.0
71.7528 70.0
71.7676 71.0
71.7824 80.0
71.7971 77.0
71.8119 68.0
71.8267 63.0
71.8414 87.0
71.8562 77.0
71.871 79.0
71.8858 75.0
71.9005 62.0
71.9153 84.0
71.9301 66.0
71.9449 74.0
71.9596 60.0
71.9744 58.0
71.9892 94.0
72.0039 68.0
72.0187 78.0
72.0335 81.0
72.0483 66.0
72.063 73.0
72.0778 74.0
72.0926 66.0
72.1073 67.0
72.1221 64.0
72.1369 57.0
72.1517 58.0
72.1664 79.0
72.1812 72.0
72.196 64.0
72.2107 91.0
72.2255 64.0
72.2403 81.0
72.2551 65.0
72.2698 78.0
72.2846 71.0
72.2994 73.0
72.3141 63.0
72.3289 61.0
72.3437 64.0
72.3585 71.0
72.3732 92.0
72.388 81.0
72.4028 87.0
72.4175 83.0
72.4323 66.0
72.4471 66.0
72.4619 70.0
72.4766 80.0
72.4914 65.0
72.5062 73.0
72.5209 57.0
72.5357 84.0
72.5505 63.0
72.5653 85.0
72.58 54.0
72.5948 71.0
72.6096 81.0
72.6243 70.0
72.6391 70.0
72.6539 75.0
72.6687 80.0
72.6834 86.0
72.6982 81.0
72.713 54.0
72.7277 73.0
72.7425 79.0
72.7573 66.0
72.7721 72.0
72.7868 63.0
72.8016 73.0
72.8164 66.0
72.8311 83.0
72.8459 81.0
72.8607 73.0
72.8755 75.0
72.8902 70.0
72.905 59.0
72.9198 70.0
72.9345 65.0
72.9493 63.0
72.9641 74.0
72.9789 72.0
72.9936 72.0
73.0084 68.0
73.0232 84.0
73.0379 70.0
73.0527 90.0
73.0675 83.0
73.0823 60.0
73.097 74.0
73.1118 66.0
73.1266 65.0
73.1413 52.0
73.1561 57.0
73.1709 66.0
73.1857 74.0
73.2004 60.0
73.2152 66.0
73.23 70.0
73.2447 66.0
73.2595 61.0
73.2743 85.0
73.2891 63.0
73.3038 69.0
73.3186 73.0
73.3334 78.0
73.3481 73.0
73.3629 82.0
73.3777 65.0
73.3925 78.0
73.4072 61.0
73.422 68.0
73.4368 72.0
73.4516 60.0
73.4663 74.0
73.4811 79.0
73.4959 83.0
73.5106 69.0
73.5254 78.0
73.5402 80.0
73.555 61.0
73.5697 60.0
73.5845 72.0
73.5993 87.0
73.614 70.0
73.6288 67.0
73.6436 80.0
73.6584 77.0
73.6731 76.0
73.6879 78.0
73.7027 78.0
73.7174 52.0
73.7322 65.0
73.747 89.0
73.7618 80.0
73.7765 71.0
73.7913 65.0
73.8061 67.0
73.8208 70.0
73.8356 63.0
73.8504 78.0
73.8652 70.0
73.8799 77.0
73.8947 65.0
73.9095 68.0
73.9242 73.0
73.939 72.0
73.9538 66.0
73.9686 76.0
73.9833 78.0
73.9981 75.0
74.0129 62.0
74.0276 69.0
74.0424 54.0
74.0572 59.0
74.072 66.0
74.0867 73.0
74.1015 65.0
74.1163 66.0
74.131 75.0
74.1458 62.0
74.1606 63.0
74.1754 76.0
74.1901 64.0
74.2049 76.0
74.2197 54.0
74.2344 58.0
74.2492 63.0
74.264 84.0
74.2788 82.0
74.2935 78.0
74.3083 45.0
74.3231 67.0
74.3378 49.0
74.3526 71.0
74.3674 64.0
74.3822 69.0
74.3969 74.0
74.4117 64.0
74.4265 72.0
74.4412 52.0
74.456 65.0
74.4708 62.0
74.4856 52.0
74.5003 68.0
74.5151 55.0
74.5299 67.0
74.5446 74.0
74.5594 57.0
74.5742 59.0
74.589 62.0
74.6037 66.0
74.6185 66.0
74.6333 77.0
74.648 69.0
74.6628 74.0
74.6776 64.0
74.6924 65.0
74.7071 68.0
74.7219 70.0
74.7367 78.0
74.7514 63.0
74.7662 68.0
74.781 68.0
74.7958 58.0
74.8105 61.0
74.8253 78.0
74.8401 67.0
74.8548 72.0
74.8696 79.0
74.8844 83.0
74.8992 68.0
74.9139 69.0
74.9287 74.0
74.9435 66.0
74.9583 77.0
74.973 77.0
74.9878 74.0
74.9976 70.0