File: data/W6814c2/XRD_Omega/W6814c2_Omega-Scan_2deg_0.002_0_5.xy
18.76530 258.0
18.76730 269.0
18.76930 264.0
18.77130 267.0
18.77330 264.0
18.77530 255.0
18.77730 289.0
18.77930 239.0
18.78130 234.0
18.78330 257.0
18.78530 252.0
18.78730 254.0
18.78930 251.0
18.79130 277.0
18.79330 273.0
18.79530 292.0
18.79730 272.0
18.79930 268.0
18.80130 270.0
18.80330 285.0
18.80530 283.0
18.80730 297.0
18.80930 256.0
18.81130 271.0
18.81330 285.0
18.81530 275.0
18.81730 255.0
18.81930 285.0
18.82130 288.0
18.82330 256.0
18.82530 290.0
18.82730 277.0
18.82930 280.0
18.83130 279.0
18.83330 295.0
18.83530 290.0
18.83730 289.0
18.83930 304.0
18.84130 267.0
18.84330 270.0
18.84530 267.0
18.84730 264.0
18.84930 284.0
18.85130 276.0
18.85330 271.0
18.85530 286.0
18.85730 283.0
18.85930 316.0
18.86130 327.0
18.86330 303.0
18.86530 302.0
18.86730 283.0
18.86930 300.0
18.87130 318.0
18.87330 313.0
18.87530 319.0
18.87730 308.0
18.87930 333.0
18.88130 297.0
18.88330 319.0
18.88530 351.0
18.88730 319.0
18.88930 293.0
18.89130 332.0
18.89330 323.0
18.89530 309.0
18.89730 299.0
18.89930 307.0
18.90130 291.0
18.90330 290.0
18.90530 345.0
18.90730 304.0
18.90930 326.0
18.91130 322.0
18.91330 350.0
18.91530 319.0
18.91730 320.0
18.91930 326.0
18.92130 296.0
18.92330 334.0
18.92530 330.0
18.92730 335.0
18.92930 334.0
18.93130 370.0
18.93330 360.0
18.93530 356.0
18.93730 368.0
18.93930 337.0
18.94130 354.0
18.94330 336.0
18.94530 337.0
18.94730 374.0
18.94930 384.0
18.95130 327.0
18.95330 327.0
18.95530 380.0
18.95730 379.0
18.95930 396.0
18.96130 363.0
18.96330 351.0
18.96530 359.0
18.96730 346.0
18.96930 355.0
18.97130 365.0
18.97330 375.0
18.97530 347.0
18.97730 317.0
18.97930 374.0
18.98130 374.0
18.98330 397.0
18.98530 354.0
18.98730 437.0
18.98930 370.0
18.99130 386.0
18.99330 406.0
18.99530 405.0
18.99730 360.0
18.99930 347.0
19.00130 401.0
19.00330 383.0
19.00530 413.0
19.00730 352.0
19.00930 403.0
19.01130 399.0
19.01330 383.0
19.01530 409.0
19.01730 393.0
19.01930 424.0
19.02130 414.0
19.02330 417.0
19.02530 405.0
19.02730 379.0
19.02930 401.0
19.03130 445.0
19.03330 387.0
19.03530 426.0
19.03730 414.0
19.03930 439.0
19.04130 424.0
19.04330 452.0
19.04530 455.0
19.04730 480.0
19.04930 458.0
19.05130 433.0
19.05330 456.0
19.05530 492.0
19.05730 450.0
19.05930 470.0
19.06130 450.0
19.06330 484.0
19.06530 496.0
19.06730 479.0
19.06930 448.0
19.07130 495.0
19.07330 446.0
19.07530 484.0
19.07730 434.0
19.07930 462.0
19.08130 498.0
19.08330 458.0
19.08530 496.0
19.08730 491.0
19.08930 449.0
19.09130 483.0
19.09330 498.0
19.09530 489.0
19.09730 509.0
19.09930 518.0
19.10130 500.0
19.10330 541.0
19.10530 500.0
19.10730 497.0
19.10930 535.0
19.11130 534.0
19.11330 548.0
19.11530 537.0
19.11730 569.0
19.11930 551.0
19.12130 535.0
19.12330 524.0
19.12530 590.0
19.12730 516.0
19.12930 560.0
19.13130 587.0
19.13330 558.0
19.13530 569.0
19.13730 560.0
19.13930 603.0
19.14130 618.0
19.14330 597.0
19.14530 595.0
19.14730 584.0
19.14930 630.0
19.15130 629.0
19.15330 578.0
19.15530 618.0
19.15730 619.0
19.15930 606.0
19.16130 609.0
19.16330 625.0
19.16530 601.0
19.16730 641.0
19.16930 649.0
19.17130 635.0
19.17330 638.0
19.17530 639.0
19.17730 651.0
19.17930 614.0
19.18130 624.0
19.18330 578.0
19.18530 619.0
19.18730 665.0
19.18930 694.0
19.19130 663.0
19.19330 704.0
19.19530 689.0
19.19730 653.0
19.19930 727.0
19.20130 690.0
19.20330 720.0
19.20530 764.0
19.20730 726.0
19.20930 693.0
19.21130 704.0
19.21330 744.0
19.21530 707.0
19.21730 703.0
19.21930 716.0
19.22130 748.0
19.22330 752.0
19.22530 779.0
19.22730 769.0
19.22930 811.0
19.23130 725.0
19.23330 786.0
19.23530 768.0
19.23730 827.0
19.23930 832.0
19.24130 782.0
19.24330 779.0
19.24530 797.0
19.24730 778.0
19.24930 823.0
19.25130 828.0
19.25330 837.0
19.25530 860.0
19.25730 828.0
19.25930 868.0
19.26130 900.0
19.26330 854.0
19.26530 853.0
19.26730 846.0
19.26930 913.0
19.27130 859.0
19.27330 852.0
19.27530 882.0
19.27730 934.0
19.27930 902.0
19.28130 905.0
19.28330 921.0
19.28530 956.0
19.28730 961.0
19.28930 936.0
19.29130 894.0
19.29330 967.0
19.29530 966.0
19.29730 958.0
19.29930 1009.0
19.30130 943.0
19.30330 912.0
19.30530 1013.0
19.30730 1015.0
19.30930 960.0
19.31130 1041.0
19.31330 1005.0
19.31530 1073.0
19.31730 1056.0
19.31930 1091.0
19.32130 1057.0
19.32330 1069.0
19.32530 1079.0
19.32730 1105.0
19.32930 1111.0
19.33130 1083.0
19.33330 1160.0
19.33530 1136.0
19.33730 1143.0
19.33930 1099.0
19.34130 1157.0
19.34330 1133.0
19.34530 1143.0
19.34730 1207.0
19.34930 1116.0
19.35130 1238.0
19.35330 1170.0
19.35530 1188.0
19.35730 1223.0
19.35930 1200.0
19.36130 1266.0
19.36330 1162.0
19.36530 1220.0
19.36730 1277.0
19.36930 1279.0
19.37130 1289.0
19.37330 1196.0
19.37530 1308.0
19.37730 1272.0
19.37930 1348.0
19.38130 1260.0
19.38330 1400.0
19.38530 1356.0
19.38730 1377.0
19.38930 1400.0
19.39130 1367.0
19.39330 1341.0
19.39530 1456.0
19.39730 1362.0
19.39930 1448.0
19.40130 1440.0
19.40330 1448.0
19.40530 1451.0
19.40730 1474.0
19.40930 1487.0
19.41130 1466.0
19.41330 1465.0
19.41530 1460.0
19.41730 1544.0
19.41930 1626.0
19.42130 1562.0
19.42330 1435.0
19.42530 1516.0
19.42730 1574.0
19.42930 1562.0
19.43130 1584.0
19.43330 1634.0
19.43530 1635.0
19.43730 1614.0
19.43930 1570.0
19.44130 1705.0
19.44330 1714.0
19.44530 1641.0
19.44730 1654.0
19.44930 1790.0
19.45130 1703.0
19.45330 1737.0
19.45530 1640.0
19.45730 1694.0
19.45930 1733.0
19.46130 1722.0
19.46330 1890.0
19.46530 1780.0
19.46730 1815.0
19.46930 1825.0
19.47130 1833.0
19.47330 1832.0
19.47530 1814.0
19.47730 1807.0
19.47930 1893.0
19.48130 1848.0
19.48330 1946.0
19.48530 1895.0
19.48730 1929.0
19.48930 1956.0
19.49130 1986.0
19.49330 1906.0
19.49530 1994.0
19.49730 1968.0
19.49930 1975.0
19.50130 2141.0
19.50330 2089.0
19.50530 2092.0
19.50730 2024.0
19.50930 2050.0
19.51130 2095.0
19.51330 2186.0
19.51530 2074.0
19.51730 2210.0
19.51930 2159.0
19.52130 2272.0
19.52330 2284.0
19.52530 2191.0
19.52730 2228.0
19.52930 2198.0
19.53130 2242.0
19.53330 2198.0
19.53530 2255.0
19.53730 2250.0
19.53930 2351.0
19.54130 2258.0
19.54330 2272.0
19.54530 2329.0
19.54730 2330.0
19.54930 2322.0
19.55130 2408.0
19.55330 2347.0
19.55530 2412.0
19.55730 2350.0
19.55930 2435.0
19.56130 2463.0
19.56330 2396.0
19.56530 2382.0
19.56730 2454.0
19.56930 2506.0
19.57130 2468.0
19.57330 2467.0
19.57530 2498.0
19.57730 2541.0
19.57930 2484.0
19.58130 2482.0
19.58330 2606.0
19.58530 2553.0
19.58730 2596.0
19.58930 2547.0
19.59130 2690.0
19.59330 2635.0
19.59530 2688.0
19.59730 2677.0
19.59930 2649.0
19.60130 2597.0
19.60330 2660.0
19.60530 2601.0
19.60730 2767.0
19.60930 2704.0
19.61130 2765.0
19.61330 2632.0
19.61530 2708.0
19.61730 2736.0
19.61930 2774.0
19.62130 2743.0
19.62330 2683.0
19.62530 2810.0
19.62730 2761.0
19.62930 2784.0
19.63130 2724.0
19.63330 2706.0
19.63530 2847.0
19.63730 2790.0
19.63930 2884.0
19.64130 2899.0
19.64330 2839.0
19.64530 2883.0
19.64730 2841.0
19.64930 2922.0
19.65130 2877.0
19.65330 2846.0
19.65530 2813.0
19.65730 2930.0
19.65930 2933.0
19.66130 2881.0
19.66330 2956.0
19.66530 2924.0
19.66730 2949.0
19.66930 2921.0
19.67130 3010.0
19.67330 2939.0
19.67530 2897.0
19.67730 2980.0
19.67930 2945.0
19.68130 2970.0
19.68330 2853.0
19.68530 2905.0
19.68730 2864.0
19.68930 2922.0
19.69130 2867.0
19.69330 2829.0
19.69530 2873.0
19.69730 2923.0
19.69930 2869.0
19.70130 2882.0
19.70330 2918.0
19.70530 2906.0
19.70730 2916.0
19.70930 2846.0
19.71130 2945.0
19.71330 2755.0
19.71530 2918.0
19.71730 2975.0
19.71930 2846.0
19.72130 2867.0
19.72330 2854.0
19.72530 2865.0
19.72730 2902.0
19.72930 2891.0
19.73130 2714.0
19.73330 2780.0
19.73530 2820.0
19.73730 2831.0
19.73930 2928.0
19.74130 2767.0
19.74330 2750.0
19.74530 2749.0
19.74730 2683.0
19.74930 2716.0
19.75130 2689.0
19.75330 2727.0
19.75530 2677.0
19.75730 2667.0
19.75930 2679.0
19.76130 2709.0
19.76330 2700.0
19.76530 2745.0
19.76730 2680.0
19.76930 2681.0
19.77130 2652.0
19.77330 2654.0
19.77530 2670.0
19.77730 2669.0
19.77930 2724.0
19.78130 2755.0
19.78330 2573.0
19.78530 2617.0
19.78730 2680.0
19.78930 2639.0
19.79130 2590.0
19.79330 2610.0
19.79530 2723.0
19.79730 2768.0
19.79930 2746.0
19.80130 2725.0
19.80330 2690.0
19.80530 2714.0
19.80730 2586.0
19.80930 2665.0
19.81130 2644.0
19.81330 2627.0
19.81530 2540.0
19.81730 2599.0
19.81930 2583.0
19.82130 2476.0
19.82330 2568.0
19.82530 2561.0
19.82730 2406.0
19.82930 2379.0
19.83130 2355.0
19.83330 2409.0
19.83530 2411.0
19.83730 2380.0
19.83930 2379.0
19.84130 2309.0
19.84330 2260.0
19.84530 2242.0
19.84730 2179.0
19.84930 2221.0
19.85130 2204.0
19.85330 2249.0
19.85530 2179.0
19.85730 2139.0
19.85930 2160.0
19.86130 2076.0
19.86330 2162.0
19.86530 2165.0
19.86730 2067.0
19.86930 2054.0
19.87130 2018.0
19.87330 2062.0
19.87530 2073.0
19.87730 2020.0
19.87930 2038.0
19.88130 2021.0
19.88330 1997.0
19.88530 2032.0
19.88730 2011.0
19.88930 1958.0
19.89130 1993.0
19.89330 1913.0
19.89530 1904.0
19.89730 1833.0
19.89930 1817.0
19.90130 1836.0
19.90330 1767.0
19.90530 1723.0
19.90730 1797.0
19.90930 1791.0
19.91130 1779.0
19.91330 1761.0
19.91530 1692.0
19.91730 1630.0
19.91930 1688.0
19.92130 1765.0
19.92330 1685.0
19.92530 1687.0
19.92730 1669.0
19.92930 1700.0
19.93130 1607.0
19.93330 1577.0
19.93530 1583.0
19.93730 1570.0
19.93930 1586.0
19.94130 1643.0
19.94330 1600.0
19.94530 1506.0
19.94730 1527.0
19.94930 1573.0
19.95130 1547.0
19.95330 1505.0
19.95530 1492.0
19.95730 1439.0
19.95930 1564.0
19.96130 1430.0
19.96330 1511.0
19.96530 1467.0
19.96730 1441.0
19.96930 1423.0
19.97130 1448.0
19.97330 1367.0
19.97530 1406.0
19.97730 1408.0
19.97930 1341.0
19.98130 1299.0
19.98330 1365.0
19.98530 1310.0
19.98730 1283.0
19.98930 1279.0
19.99130 1294.0
19.99330 1274.0
19.99530 1198.0
19.99730 1239.0
19.99930 1195.0
20.00130 1252.0
20.00330 1181.0
20.00530 1182.0
20.00730 1150.0
20.00930 1185.0
20.01130 1207.0
20.01330 1084.0
20.01530 1113.0
20.01730 1043.0
20.01930 1070.0
20.02130 1133.0
20.02330 1020.0
20.02530 1110.0
20.02730 1078.0
20.02930 1075.0
20.03130 1008.0
20.03330 1030.0
20.03530 1046.0
20.03730 1030.0
20.03930 1053.0
20.04130 1029.0
20.04330 1028.0
20.04530 1037.0
20.04730 987.0
20.04930 996.0
20.05130 950.0
20.05330 991.0
20.05530 931.0
20.05730 926.0
20.05930 974.0
20.06130 933.0
20.06330 904.0
20.06530 952.0
20.06730 863.0
20.06930 881.0
20.07130 885.0
20.07330 893.0
20.07530 854.0
20.07730 923.0
20.07930 901.0
20.08130 885.0
20.08330 861.0
20.08530 832.0
20.08730 825.0
20.08930 916.0
20.09130 831.0
20.09330 811.0
20.09530 786.0
20.09730 829.0
20.09930 736.0
20.10130 788.0
20.10330 813.0
20.10530 814.0
20.10730 787.0
20.10930 830.0
20.11130 740.0
20.11330 754.0
20.11530 749.0
20.11730 770.0
20.11930 776.0
20.12130 723.0
20.12330 759.0
20.12530 758.0
20.12730 793.0
20.12930 741.0
20.13130 687.0
20.13330 744.0
20.13530 715.0
20.13730 726.0
20.13930 711.0
20.14130 722.0
20.14330 704.0
20.14530 697.0
20.14730 712.0
20.14930 711.0
20.15130 703.0
20.15330 661.0
20.15530 665.0
20.15730 685.0
20.15930 650.0
20.16130 685.0
20.16330 626.0
20.16530 616.0
20.16730 660.0
20.16930 639.0
20.17130 594.0
20.17330 605.0
20.17530 649.0
20.17730 587.0
20.17930 648.0
20.18130 636.0
20.18330 600.0
20.18530 600.0
20.18730 609.0
20.18930 630.0
20.19130 579.0
20.19330 629.0
20.19530 574.0
20.19730 588.0
20.19930 562.0
20.20130 573.0
20.20330 539.0
20.20530 602.0
20.20730 544.0
20.20930 557.0
20.21130 570.0
20.21330 549.0
20.21530 568.0
20.21730 569.0
20.21930 528.0
20.22130 585.0
20.22330 534.0
20.22530 566.0
20.22730 565.0
20.22930 565.0
20.23130 521.0
20.23330 525.0
20.23530 493.0
20.23730 529.0
20.23930 509.0
20.24130 521.0
20.24330 474.0
20.24530 514.0
20.24730 535.0
20.24930 504.0
20.25130 507.0
20.25330 500.0
20.25530 535.0
20.25730 451.0
20.25930 486.0
20.26130 489.0
20.26330 524.0
20.26530 446.0
20.26730 499.0
20.26930 517.0
20.27130 487.0
20.27330 483.0
20.27530 487.0
20.27730 511.0
20.27930 483.0
20.28130 442.0
20.28330 494.0
20.28530 475.0
20.28730 457.0
20.28930 478.0
20.29130 495.0
20.29330 487.0
20.29530 476.0
20.29730 490.0
20.29930 440.0
20.30130 483.0
20.30330 488.0
20.30530 482.0
20.30730 473.0
20.30930 480.0
20.31130 466.0
20.31330 475.0
20.31530 423.0
20.31730 427.0
20.31930 446.0
20.32130 428.0
20.32330 465.0
20.32530 460.0
20.32730 448.0
20.32930 398.0
20.33130 461.0
20.33330 444.0
20.33530 443.0
20.33730 471.0
20.33930 416.0
20.34130 383.0
20.34330 421.0
20.34530 442.0
20.34730 395.0
20.34930 425.0
20.35130 461.0
20.35330 417.0
20.35530 447.0
20.35730 409.0
20.35930 411.0
20.36130 427.0
20.36330 411.0
20.36530 418.0
20.36730 420.0
20.36930 451.0
20.37130 363.0
20.37330 444.0
20.37530 387.0
20.37730 404.0
20.37930 413.0
20.38130 410.0
20.38330 427.0
20.38530 457.0
20.38730 441.0
20.38930 464.0
20.39130 396.0
20.39330 395.0
20.39530 442.0
20.39730 401.0
20.39930 409.0
20.40130 360.0
20.40330 452.0
20.40530 414.0
20.40730 424.0
20.40930 387.0
20.41130 398.0
20.41330 358.0
20.41530 388.0
20.41730 368.0
20.41930 370.0
20.42130 368.0
20.42330 345.0
20.42530 347.0
20.42730 358.0
20.42930 347.0
20.43130 366.0
20.43330 310.0
20.43530 325.0
20.43730 313.0
20.43930 309.0
20.44130 305.0
20.44330 313.0
20.44530 277.0
20.44730 326.0
20.44930 298.0
20.45130 305.0
20.45330 312.0
20.45530 278.0
20.45730 330.0
20.45930 274.0
20.46130 285.0
20.46330 301.0
20.46530 288.0
20.46730 307.0
20.46930 276.0
20.47130 279.0
20.47330 315.0
20.47530 288.0
20.47730 306.0
20.47930 268.0
20.48130 267.0
20.48330 288.0
20.48530 289.0
20.48730 306.0
20.48930 290.0
20.49130 277.0
20.49330 283.0
20.49530 290.0
20.49730 261.0
20.49930 288.0
20.50130 268.0
20.50330 277.0
20.50530 267.0
20.50730 254.0
20.50930 270.0
20.51130 281.0
20.51330 266.0
20.51530 268.0
20.51730 269.0
20.51930 298.0
20.52130 257.0
20.52330 257.0
20.52530 279.0
20.52730 294.0
20.52930 274.0
20.53130 264.0
20.53330 273.0
20.53530 270.0
20.53730 257.0
20.53930 258.0
20.54130 265.0
20.54330 297.0
20.54530 273.0
20.54730 302.0
20.54930 263.0
20.55130 251.0
20.55330 238.0
20.55530 253.0
20.55730 239.0
20.55930 263.0
20.56130 279.0
20.56330 243.0
20.56530 253.0
20.56730 275.0
20.56930 224.0
20.57130 244.0
20.57330 249.0
20.57530 251.0
20.57730 257.0
20.57930 257.0
20.58130 261.0
20.58330 250.0
20.58530 217.0
20.58730 274.0
20.58930 246.0
20.59130 245.0
20.59330 237.0
20.59530 242.0
20.59730 230.0
20.59930 229.0
20.60130 252.0
20.60330 268.0
20.60530 262.0
20.60730 261.0
20.60930 229.0
20.61130 268.0
20.61330 249.0
20.61530 291.0
20.61730 246.0
20.61930 214.0
20.62130 229.0
20.62330 246.0
20.62530 237.0
20.62730 248.0
20.62930 236.0
20.63130 249.0
20.63330 241.0
20.63530 242.0
20.63730 236.0
20.63930 217.0
20.64130 218.0
20.64330 220.0
20.64530 227.0
20.64730 239.0
20.64930 200.0
20.65130 248.0
20.65330 228.0
20.65530 217.0
20.65730 251.0
20.65930 228.0
20.66130 244.0
20.66330 214.0
20.66530 210.0
20.66730 242.0
20.66930 229.0
20.67130 228.0
20.67330 273.0
20.67530 235.0
20.67730 232.0
20.67930 220.0
20.68130 205.0
20.68330 247.0
20.68530 201.0
20.68730 226.0
20.68930 249.0
20.69130 231.0
20.69330 215.0
20.69530 222.0
20.69730 226.0
20.69930 219.0
20.70130 223.0
20.70330 214.0
20.70530 203.0
20.70730 195.0
20.70930 228.0
20.71130 241.0
20.71330 204.0
20.71530 238.0
20.71730 226.0
20.71930 239.0
20.72130 211.0
20.72330 221.0
20.72530 211.0
20.72730 211.0
20.72930 219.0
20.73130 196.0
20.73330 218.0
20.73530 219.0
20.73730 196.0
20.73930 217.0
20.74130 221.0
20.74330 224.0
20.74530 238.0
20.74730 208.0
20.74930 222.0