File: data/W6814c2/XRD_Omega/W6814c2_Cr2O3_scan_omega_2deg_step_0.002deg0_1_new.xy
18.70240 248.0
18.70440 231.0
18.70640 232.0
18.70840 254.0
18.71040 230.0
18.71240 243.0
18.71440 245.0
18.71640 258.0
18.71840 263.0
18.72040 264.0
18.72240 247.0
18.72440 272.0
18.72640 250.0
18.72840 266.0
18.73040 253.0
18.73240 261.0
18.73440 269.0
18.73640 242.0
18.73840 259.0
18.74040 263.0
18.74240 279.0
18.74440 272.0
18.74640 293.0
18.74840 231.0
18.75040 266.0
18.75240 300.0
18.75440 248.0
18.75640 271.0
18.75840 263.0
18.76040 266.0
18.76240 253.0
18.76440 253.0
18.76640 266.0
18.76840 262.0
18.77040 265.0
18.77240 228.0
18.77440 292.0
18.77640 257.0
18.77840 275.0
18.78040 276.0
18.78240 301.0
18.78440 239.0
18.78640 285.0
18.78840 270.0
18.79040 276.0
18.79240 257.0
18.79440 290.0
18.79640 272.0
18.79840 255.0
18.80040 294.0
18.80240 289.0
18.80440 290.0
18.80640 290.0
18.80840 298.0
18.81040 281.0
18.81240 285.0
18.81440 270.0
18.81640 302.0
18.81840 289.0
18.82040 252.0
18.82240 308.0
18.82440 272.0
18.82640 272.0
18.82840 302.0
18.83040 297.0
18.83240 299.0
18.83440 308.0
18.83640 296.0
18.83840 271.0
18.84040 273.0
18.84240 289.0
18.84440 300.0
18.84640 289.0
18.84840 306.0
18.85040 299.0
18.85240 295.0
18.85440 325.0
18.85640 307.0
18.85840 315.0
18.86040 326.0
18.86240 305.0
18.86440 334.0
18.86640 308.0
18.86840 308.0
18.87040 302.0
18.87240 313.0
18.87440 310.0
18.87640 308.0
18.87840 323.0
18.88040 328.0
18.88240 320.0
18.88440 338.0
18.88640 302.0
18.88840 334.0
18.89040 333.0
18.89240 348.0
18.89440 326.0
18.89640 300.0
18.89840 335.0
18.90040 344.0
18.90240 327.0
18.90440 346.0
18.90640 289.0
18.90840 334.0
18.91040 337.0
18.91240 345.0
18.91440 317.0
18.91640 291.0
18.91840 340.0
18.92040 342.0
18.92240 338.0
18.92440 324.0
18.92640 352.0
18.92840 340.0
18.93040 334.0
18.93240 347.0
18.93440 347.0
18.93640 325.0
18.93840 402.0
18.94040 346.0
18.94240 386.0
18.94440 350.0
18.94640 347.0
18.94840 370.0
18.95040 379.0
18.95240 339.0
18.95440 343.0
18.95640 372.0
18.95840 367.0
18.96040 339.0
18.96240 385.0
18.96440 361.0
18.96640 350.0
18.96840 351.0
18.97040 340.0
18.97240 389.0
18.97440 390.0
18.97640 381.0
18.97840 377.0
18.98040 383.0
18.98240 363.0
18.98440 373.0
18.98640 390.0
18.98840 373.0
18.99040 353.0
18.99240 400.0
18.99440 362.0
18.99640 386.0
18.99840 398.0
19.00040 371.0
19.00240 380.0
19.00440 397.0
19.00640 421.0
19.00840 381.0
19.01040 399.0
19.01240 418.0
19.01440 367.0
19.01640 413.0
19.01840 416.0
19.02040 392.0
19.02240 404.0
19.02440 459.0
19.02640 387.0
19.02840 448.0
19.03040 438.0
19.03240 418.0
19.03440 421.0
19.03640 494.0
19.03840 428.0
19.04040 426.0
19.04240 515.0
19.04440 410.0
19.04640 406.0
19.04840 419.0
19.05040 416.0
19.05240 452.0
19.05440 438.0
19.05640 482.0
19.05840 451.0
19.06040 462.0
19.06240 460.0
19.06440 460.0
19.06640 482.0
19.06840 459.0
19.07040 463.0
19.07240 498.0
19.07440 474.0
19.07640 502.0
19.07840 510.0
19.08040 449.0
19.08240 463.0
19.08440 526.0
19.08640 533.0
19.08840 507.0
19.09040 457.0
19.09240 548.0
19.09440 496.0
19.09640 481.0
19.09840 490.0
19.10040 507.0
19.10240 561.0
19.10440 494.0
19.10640 527.0
19.10840 493.0
19.11040 510.0
19.11240 509.0
19.11440 502.0
19.11640 539.0
19.11840 487.0
19.12040 567.0
19.12240 597.0
19.12440 586.0
19.12640 603.0
19.12840 568.0
19.13040 577.0
19.13240 543.0
19.13440 554.0
19.13640 581.0
19.13840 610.0
19.14040 582.0
19.14240 632.0
19.14440 563.0
19.14640 544.0
19.14840 630.0
19.15040 589.0
19.15240 602.0
19.15440 599.0
19.15640 636.0
19.15840 624.0
19.16040 610.0
19.16240 552.0
19.16440 606.0
19.16640 641.0
19.16840 619.0
19.17040 616.0
19.17240 658.0
19.17440 646.0
19.17640 662.0
19.17840 639.0
19.18040 641.0
19.18240 646.0
19.18440 716.0
19.18640 660.0
19.18840 656.0
19.19040 679.0
19.19240 703.0
19.19440 689.0
19.19640 692.0
19.19840 701.0
19.20040 744.0
19.20240 730.0
19.20440 686.0
19.20640 733.0
19.20840 743.0
19.21040 774.0
19.21240 691.0
19.21440 778.0
19.21640 752.0
19.21840 756.0
19.22040 733.0
19.22240 766.0
19.22440 753.0
19.22640 768.0
19.22840 724.0
19.23040 747.0
19.23240 799.0
19.23440 796.0
19.23640 810.0
19.23840 817.0
19.24040 812.0
19.24240 750.0
19.24440 849.0
19.24640 840.0
19.24840 883.0
19.25040 822.0
19.25240 861.0
19.25440 844.0
19.25640 850.0
19.25840 854.0
19.26040 855.0
19.26240 893.0
19.26440 867.0
19.26640 862.0
19.26840 840.0
19.27040 863.0
19.27240 905.0
19.27440 926.0
19.27640 879.0
19.27840 888.0
19.28040 893.0
19.28240 920.0
19.28440 970.0
19.28640 960.0
19.28840 958.0
19.29040 968.0
19.29240 1028.0
19.29440 1005.0
19.29640 1028.0
19.29840 965.0
19.30040 978.0
19.30240 973.0
19.30440 1009.0
19.30640 1011.0
19.30840 1027.0
19.31040 1073.0
19.31240 1032.0
19.31440 1068.0
19.31640 1049.0
19.31840 1110.0
19.32040 1092.0
19.32240 1041.0
19.32440 1063.0
19.32640 1075.0
19.32840 1083.0
19.33040 1086.0
19.33240 1118.0
19.33440 1087.0
19.33640 1137.0
19.33840 1114.0
19.34040 1155.0
19.34240 1183.0
19.34440 1163.0
19.34640 1228.0
19.34840 1157.0
19.35040 1151.0
19.35240 1174.0
19.35440 1225.0
19.35640 1118.0
19.35840 1213.0
19.36040 1187.0
19.36240 1209.0
19.36440 1277.0
19.36640 1246.0
19.36840 1319.0
19.37040 1221.0
19.37240 1305.0
19.37440 1254.0
19.37640 1323.0
19.37840 1307.0
19.38040 1312.0
19.38240 1333.0
19.38440 1336.0
19.38640 1366.0
19.38840 1375.0
19.39040 1415.0
19.39240 1411.0
19.39440 1400.0
19.39640 1427.0
19.39840 1300.0
19.40040 1364.0
19.40240 1475.0
19.40440 1386.0
19.40640 1445.0
19.40840 1415.0
19.41040 1504.0
19.41240 1474.0
19.41440 1530.0
19.41640 1472.0
19.41840 1512.0
19.42040 1455.0
19.42240 1570.0
19.42440 1533.0
19.42640 1570.0
19.42840 1580.0
19.43040 1551.0
19.43240 1535.0
19.43440 1650.0
19.43640 1677.0
19.43840 1647.0
19.44040 1608.0
19.44240 1629.0
19.44440 1593.0
19.44640 1768.0
19.44840 1591.0
19.45040 1693.0
19.45240 1667.0
19.45440 1730.0
19.45640 1720.0
19.45840 1728.0
19.46040 1693.0
19.46240 1733.0
19.46440 1720.0
19.46640 1823.0
19.46840 1759.0
19.47040 1789.0
19.47240 1812.0
19.47440 1811.0
19.47640 1900.0
19.47840 1883.0
19.48040 1890.0
19.48240 1862.0
19.48440 1930.0
19.48640 1837.0
19.48840 1914.0
19.49040 1991.0
19.49240 1939.0
19.49440 1942.0
19.49640 1945.0
19.49840 1962.0
19.50040 2076.0
19.50240 1979.0
19.50440 2001.0
19.50640 2021.0
19.50840 1972.0
19.51040 2045.0
19.51240 1983.0
19.51440 2163.0
19.51640 2085.0
19.51840 2104.0
19.52040 2103.0
19.52240 2132.0
19.52440 2170.0
19.52640 2179.0
19.52840 2128.0
19.53040 2217.0
19.53240 2187.0
19.53440 2130.0
19.53640 2193.0
19.53840 2296.0
19.54040 2251.0
19.54240 2311.0
19.54440 2290.0
19.54640 2378.0
19.54840 2367.0
19.55040 2365.0
19.55240 2264.0
19.55440 2365.0
19.55640 2402.0
19.55840 2385.0
19.56040 2370.0
19.56240 2375.0
19.56440 2457.0
19.56640 2392.0
19.56840 2455.0
19.57040 2341.0
19.57240 2434.0
19.57440 2524.0
19.57640 2561.0
19.57840 2458.0
19.58040 2536.0
19.58240 2487.0
19.58440 2524.0
19.58640 2522.0
19.58840 2510.0
19.59040 2409.0
19.59240 2532.0
19.59440 2619.0
19.59640 2604.0
19.59840 2618.0
19.60040 2577.0
19.60240 2614.0
19.60440 2631.0
19.60640 2623.0
19.60840 2685.0
19.61040 2639.0
19.61240 2685.0
19.61440 2693.0
19.61640 2711.0
19.61840 2811.0
19.62040 2787.0
19.62240 2764.0
19.62440 2737.0
19.62640 2883.0
19.62840 2754.0
19.63040 2821.0
19.63240 2751.0
19.63440 2843.0
19.63640 2784.0
19.63840 2815.0
19.64040 2737.0
19.64240 2760.0
19.64440 2786.0
19.64640 2892.0
19.64840 2836.0
19.65040 2808.0
19.65240 2831.0
19.65440 2826.0
19.65640 2891.0
19.65840 2911.0
19.66040 2874.0
19.66240 2853.0
19.66440 2896.0
19.66640 2828.0
19.66840 2826.0
19.67040 2868.0
19.67240 2912.0
19.67440 2950.0
19.67640 2874.0
19.67840 2850.0
19.68040 2897.0
19.68240 2905.0
19.68440 2865.0
19.68640 2919.0
19.68840 2872.0
19.69040 2899.0
19.69240 2862.0
19.69440 2861.0
19.69640 2843.0
19.69840 2821.0
19.70040 2901.0
19.70240 2934.0
19.70440 2847.0
19.70640 2797.0
19.70840 2864.0
19.71040 2927.0
19.71240 2896.0
19.71440 2836.0
19.71640 2895.0
19.71840 2848.0
19.72040 2876.0
19.72240 2732.0
19.72440 2921.0
19.72640 2924.0
19.72840 2815.0
19.73040 2771.0
19.73240 2757.0
19.73440 2848.0
19.73640 2879.0
19.73840 2789.0
19.74040 2744.0
19.74240 2730.0
19.74440 2695.0
19.74640 2894.0
19.74840 2788.0
19.75040 2697.0
19.75240 2710.0
19.75440 2822.0
19.75640 2753.0
19.75840 2742.0
19.76040 2674.0
19.76240 2703.0
19.76440 2742.0
19.76640 2700.0
19.76840 2744.0
19.77040 2637.0
19.77240 2648.0
19.77440 2721.0
19.77640 2533.0
19.77840 2579.0
19.78040 2674.0
19.78240 2650.0
19.78440 2651.0
19.78640 2650.0
19.78840 2536.0
19.79040 2622.0
19.79240 2682.0
19.79440 2760.0
19.79640 2591.0
19.79840 2705.0
19.80040 2662.0
19.80240 2740.0
19.80440 2676.0
19.80640 2668.0
19.80840 2662.0
19.81040 2744.0
19.81240 2753.0
19.81440 2606.0
19.81640 2743.0
19.81840 2630.0
19.82040 2629.0
19.82240 2454.0
19.82440 2557.0
19.82640 2494.0
19.82840 2422.0
19.83040 2561.0
19.83240 2502.0
19.83440 2403.0
19.83640 2412.0
19.83840 2461.0
19.84040 2344.0
19.84240 2393.0
19.84440 2426.0
19.84640 2268.0
19.84840 2258.0
19.85040 2262.0
19.85240 2249.0
19.85440 2105.0
19.85640 2179.0
19.85840 2124.0
19.86040 2164.0
19.86240 2130.0
19.86440 2187.0
19.86640 2042.0
19.86840 2141.0
19.87040 2091.0
19.87240 2108.0
19.87440 2067.0
19.87640 2040.0
19.87840 2059.0
19.88040 2020.0
19.88240 1962.0
19.88440 2059.0
19.88640 2006.0
19.88840 2005.0
19.89040 1942.0
19.89240 1871.0
19.89440 1899.0
19.89640 1938.0
19.89840 1844.0
19.90040 1880.0
19.90240 1880.0
19.90440 1843.0
19.90640 1860.0
19.90840 1857.0
19.91040 1884.0
19.91240 1745.0
19.91440 1769.0
19.91640 1726.0
19.91840 1688.0
19.92040 1783.0
19.92240 1681.0
19.92440 1685.0
19.92640 1625.0
19.92840 1640.0
19.93040 1701.0
19.93240 1699.0
19.93440 1652.0
19.93640 1614.0
19.93840 1578.0
19.94040 1572.0
19.94240 1541.0
19.94440 1581.0
19.94640 1609.0
19.94840 1491.0
19.95040 1553.0
19.95240 1508.0
19.95440 1442.0
19.95640 1507.0
19.95840 1457.0
19.96040 1469.0
19.96240 1448.0
19.96440 1398.0
19.96640 1426.0
19.96840 1470.0
19.97040 1409.0
19.97240 1363.0
19.97440 1445.0
19.97640 1414.0
19.97840 1371.0
19.98040 1349.0
19.98240 1285.0
19.98440 1332.0
19.98640 1354.0
19.98840 1317.0
19.99040 1255.0
19.99240 1297.0
19.99440 1284.0
19.99640 1264.0
19.99840 1200.0
20.00040 1165.0
20.00240 1211.0
20.00440 1157.0
20.00640 1213.0
20.00840 1132.0
20.01040 1154.0
20.01240 1157.0
20.01440 1159.0
20.01640 1191.0
20.01840 1082.0
20.02040 1069.0
20.02240 1117.0
20.02440 1095.0
20.02640 1071.0
20.02840 1043.0
20.03040 1053.0
20.03240 1095.0
20.03440 1051.0
20.03640 1032.0
20.03840 1017.0
20.04040 1009.0
20.04240 1002.0
20.04440 1015.0
20.04640 1009.0
20.04840 933.0
20.05040 988.0
20.05240 979.0
20.05440 956.0
20.05640 961.0
20.05840 892.0
20.06040 952.0
20.06240 901.0
20.06440 954.0
20.06640 889.0
20.06840 902.0
20.07040 897.0
20.07240 841.0
20.07440 947.0
20.07640 913.0
20.07840 869.0
20.08040 884.0
20.08240 895.0
20.08440 869.0
20.08640 791.0
20.08840 846.0
20.09040 884.0
20.09240 836.0
20.09440 814.0
20.09640 810.0
20.09840 804.0
20.10040 780.0
20.10240 792.0
20.10440 723.0
20.10640 766.0
20.10840 800.0
20.11040 779.0
20.11240 729.0
20.11440 763.0
20.11640 769.0
20.11840 720.0
20.12040 719.0
20.12240 746.0
20.12440 725.0
20.12640 714.0
20.12840 681.0
20.13040 660.0
20.13240 715.0
20.13440 657.0
20.13640 725.0
20.13840 698.0
20.14040 783.0
20.14240 673.0
20.14440 658.0
20.14640 638.0
20.14840 713.0
20.15040 690.0
20.15240 644.0
20.15440 655.0
20.15640 630.0
20.15840 644.0
20.16040 646.0
20.16240 646.0
20.16440 582.0
20.16640 630.0
20.16840 627.0
20.17040 637.0
20.17240 634.0
20.17440 601.0
20.17640 618.0
20.17840 654.0
20.18040 609.0
20.18240 613.0
20.18440 586.0
20.18640 592.0
20.18840 564.0
20.19040 591.0
20.19240 593.0
20.19440 551.0
20.19640 543.0
20.19840 573.0
20.20040 579.0
20.20240 582.0
20.20440 576.0
20.20640 579.0
20.20840 548.0
20.21040 567.0
20.21240 576.0
20.21440 572.0
20.21640 510.0
20.21840 513.0
20.22040 534.0
20.22240 534.0
20.22440 487.0
20.22640 526.0
20.22840 514.0
20.23040 545.0
20.23240 499.0
20.23440 525.0
20.23640 542.0
20.23840 491.0
20.24040 510.0
20.24240 483.0
20.24440 504.0
20.24640 498.0
20.24840 491.0
20.25040 494.0
20.25240 502.0
20.25440 482.0
20.25640 468.0
20.25840 488.0
20.26040 472.0
20.26240 493.0
20.26440 498.0
20.26640 480.0
20.26840 542.0
20.27040 422.0
20.27240 471.0
20.27440 463.0
20.27640 468.0
20.27840 472.0
20.28040 474.0
20.28240 487.0
20.28440 460.0
20.28640 471.0
20.28840 405.0
20.29040 404.0
20.29240 434.0
20.29440 442.0
20.29640 427.0
20.29840 419.0
20.30040 424.0
20.30240 424.0
20.30440 444.0
20.30640 448.0
20.30840 430.0
20.31040 405.0
20.31240 411.0
20.31440 427.0
20.31640 397.0
20.31840 410.0
20.32040 423.0
20.32240 411.0
20.32440 366.0
20.32640 377.0
20.32840 402.0
20.33040 345.0
20.33240 377.0
20.33440 363.0
20.33640 331.0
20.33840 360.0
20.34040 376.0
20.34240 344.0
20.34440 351.0
20.34640 353.0
20.34840 346.0
20.35040 361.0
20.35240 339.0
20.35440 337.0
20.35640 384.0
20.35840 344.0
20.36040 323.0
20.36240 324.0
20.36440 313.0
20.36640 354.0
20.36840 344.0
20.37040 349.0
20.37240 323.0
20.37440 342.0
20.37640 343.0
20.37840 362.0
20.38040 320.0
20.38240 329.0
20.38440 344.0
20.38640 294.0
20.38840 332.0
20.39040 341.0
20.39240 336.0
20.39440 333.0
20.39640 305.0
20.39840 314.0
20.40040 328.0
20.40240 366.0
20.40440 296.0
20.40640 321.0
20.40840 286.0
20.41040 330.0
20.41240 317.0
20.41440 305.0
20.41640 332.0
20.41840 288.0
20.42040 290.0
20.42240 331.0
20.42440 306.0
20.42640 289.0
20.42840 280.0
20.43040 289.0
20.43240 303.0
20.43440 305.0
20.43640 282.0
20.43840 312.0
20.44040 279.0
20.44240 281.0
20.44440 283.0
20.44640 322.0
20.44840 296.0
20.45040 296.0
20.45240 297.0
20.45440 291.0
20.45640 266.0
20.45840 284.0
20.46040 296.0
20.46240 277.0
20.46440 258.0
20.46640 267.0
20.46840 282.0
20.47040 277.0
20.47240 298.0
20.47440 275.0
20.47640 241.0
20.47840 287.0
20.48040 271.0
20.48240 267.0
20.48440 267.0
20.48640 291.0
20.48840 284.0
20.49040 266.0
20.49240 281.0
20.49440 254.0
20.49640 281.0
20.49840 239.0
20.50040 255.0
20.50240 243.0
20.50440 251.0
20.50640 258.0
20.50840 237.0
20.51040 253.0
20.51240 288.0
20.51440 260.0
20.51640 251.0
20.51840 272.0
20.52040 262.0
20.52240 251.0
20.52440 234.0
20.52640 248.0
20.52840 274.0
20.53040 280.0
20.53240 222.0
20.53440 236.0
20.53640 230.0
20.53840 259.0
20.54040 275.0
20.54240 256.0
20.54440 243.0
20.54640 241.0
20.54840 258.0
20.55040 259.0
20.55240 260.0
20.55440 251.0
20.55640 250.0
20.55840 256.0
20.56040 230.0
20.56240 241.0
20.56440 260.0
20.56640 242.0
20.56840 246.0
20.57040 223.0
20.57240 243.0
20.57440 273.0
20.57640 262.0
20.57840 223.0
20.58040 272.0
20.58240 238.0
20.58440 221.0
20.58640 219.0
20.58840 230.0
20.59040 235.0
20.59240 243.0
20.59440 229.0
20.59640 233.0
20.59840 235.0
20.60040 247.0
20.60240 239.0
20.60440 242.0
20.60640 228.0
20.60840 221.0
20.61040 246.0
20.61240 232.0
20.61440 233.0
20.61640 249.0
20.61840 234.0
20.62040 239.0
20.62240 217.0
20.62440 218.0
20.62640 226.0
20.62840 213.0
20.63040 212.0
20.63240 226.0
20.63440 211.0
20.63640 236.0
20.63840 229.0
20.64040 249.0
20.64240 236.0
20.64440 219.0
20.64640 224.0
20.64840 247.0
20.65040 222.0
20.65240 212.0
20.65440 211.0
20.65640 238.0
20.65840 230.0
20.66040 224.0
20.66240 223.0
20.66440 207.0
20.66640 281.0
20.66840 233.0
20.67040 245.0
20.67240 223.0
20.67440 214.0
20.67640 218.0
20.67840 199.0
20.68040 207.0
20.68240 224.0
20.68440 222.0
20.68640 221.0