File: data/W6858r/XRD_2ThetaOmega/W6858r_absolute_2th-om_10-130deg_PIXscan_17min_10.xy
10.0035 28.0
10.0872 19.0
10.1709 12.0
10.2546 18.0
10.3383 18.0
10.422 14.0
10.5057 17.0
10.5894 22.0
10.6731 19.0
10.7568 14.0
10.8405 18.0
10.9242 24.0
11.0079 21.0
11.0916 31.0
11.1753 19.0
11.259 15.0
11.3428 16.0
11.4265 14.0
11.5102 19.0
11.5939 14.0
11.6776 20.0
11.7613 11.0
11.845 15.0
11.9287 16.0
12.0124 22.0
12.0961 16.0
12.1798 21.0
12.2635 13.0
12.3472 15.0
12.4309 20.0
12.5146 15.0
12.5983 11.0
12.682 16.0
12.7657 14.0
12.8495 20.0
12.9332 16.0
13.0169 21.0
13.1006 13.0
13.1843 17.0
13.268 23.0
13.3517 16.0
13.4354 19.0
13.5191 18.0
13.6028 12.0
13.6865 11.0
13.7702 13.0
13.8539 16.0
13.9376 17.0
14.0213 22.0
14.105 11.0
14.1887 26.0
14.2724 18.0
14.3562 25.0
14.4399 15.0
14.5236 12.0
14.6073 18.0
14.691 14.0
14.7747 17.0
14.8584 12.0
14.9421 21.0
15.0258 19.0
15.1095 16.0
15.1932 19.0
15.2769 17.0
15.3606 14.0
15.4443 13.0
15.528 13.0
15.6117 14.0
15.6954 22.0
15.7791 25.0
15.8629 20.0
15.9466 15.0
16.0303 10.0
16.114 19.0
16.1977 17.0
16.2814 12.0
16.3651 22.0
16.4488 16.0
16.5325 14.0
16.6162 14.0
16.6999 22.0
16.7836 13.0
16.8673 18.0
16.951 14.0
17.0347 12.0
17.1184 14.0
17.2021 16.0
17.2858 13.0
17.3696 16.0
17.4533 12.0
17.537 15.0
17.6207 21.0
17.7044 25.0
17.7881 13.0
17.8718 17.0
17.9555 18.0
18.0392 23.0
18.1229 19.0
18.2066 15.0
18.2903 16.0
18.374 18.0
18.4577 12.0
18.5414 15.0
18.6251 15.0
18.7088 17.0
18.7925 9.0
18.8763 13.0
18.96 13.0
19.0437 12.0
19.1274 14.0
19.2111 11.0
19.2948 16.0
19.3785 20.0
19.4622 17.0
19.5459 17.0
19.6296 22.0
19.7133 16.0
19.797 14.0
19.8807 16.0
19.9644 13.0
20.0481 9.0
20.1318 11.0
20.2155 19.0
20.2992 10.0
20.383 15.0
20.4667 12.0
20.5504 13.0
20.6341 9.0
20.7178 11.0
20.8015 18.0
20.8852 20.0
20.9689 9.0
21.0526 17.0
21.1363 11.0
21.22 12.0
21.3037 14.0
21.3874 14.0
21.4711 17.0
21.5548 11.0
21.6385 14.0
21.7222 17.0
21.8059 12.0
21.8897 18.0
21.9734 11.0
22.0571 13.0
22.1408 12.0
22.2245 14.0
22.3082 16.0
22.3919 17.0
22.4756 12.0
22.5593 16.0
22.643 19.0
22.7267 14.0
22.8104 16.0
22.8941 16.0
22.9778 36.0
23.0615 31.0
23.1452 17.0
23.2289 12.0
23.3126 12.0
23.3964 21.0
23.4801 25.0
23.5638 17.0
23.6475 25.0
23.7312 27.0
23.8149 37.0
23.8986 47.0
23.9823 76.0
24.066 122.0
24.1497 200.0
24.2334 527.0
24.3171 663.0
24.4008 529.0
24.4845 277.0
24.5682 128.0
24.6519 116.0
24.7356 59.0
24.8193 51.0
24.9031 46.0
24.9868 59.0
25.0705 57.0
25.1542 89.0
25.2379 104.0
25.3216 172.0
25.4053 686.0
25.489 14003.0
25.5727 23250.0
25.6564 940.0
25.7401 376.0
25.8238 265.0
25.9075 183.0
25.9912 151.0
26.0749 128.0
26.1586 101.0
26.2423 66.0
26.326 61.0
26.4098 51.0
26.4935 32.0
26.5772 24.0
26.6609 37.0
26.7446 28.0
26.8283 21.0
26.912 21.0
26.9957 27.0
27.0794 17.0
27.1631 25.0
27.2468 11.0
27.3305 16.0
27.4142 12.0
27.4979 17.0
27.5816 14.0
27.6653 14.0
27.749 15.0
27.8327 20.0
27.9165 15.0
28.0002 23.0
28.0839 21.0
28.1676 13.0
28.2513 23.0
28.335 19.0
28.4187 7.0
28.5024 8.0
28.5861 6.0
28.6698 12.0
28.7535 11.0
28.8372 18.0
28.9209 11.0
29.0046 9.0
29.0883 8.0
29.172 12.0
29.2557 10.0
29.3394 10.0
29.4232 10.0
29.5069 14.0
29.5906 11.0
29.6743 12.0
29.758 10.0
29.8417 15.0
29.9254 14.0
30.0091 4.0
30.0928 14.0
30.1765 12.0
30.2602 9.0
30.3439 21.0
30.4276 12.0
30.5113 15.0
30.595 5.0
30.6787 16.0
30.7624 11.0
30.8461 9.0
30.9298 15.0
31.0136 13.0
31.0973 8.0
31.181 15.0
31.2647 8.0
31.3484 8.0
31.4321 17.0
31.5158 12.0
31.5995 10.0
31.6832 16.0
31.7669 10.0
31.8506 13.0
31.9343 12.0
32.018 17.0
32.1017 7.0
32.1854 11.0
32.2691 13.0
32.3528 12.0
32.4365 5.0
32.5203 12.0
32.604 12.0
32.6877 11.0
32.7714 14.0
32.8551 11.0
32.9388 19.0
33.0225 9.0
33.1062 11.0
33.1899 13.0
33.2736 14.0
33.3573 15.0
33.441 14.0
33.5247 8.0
33.6084 12.0
33.6921 5.0
33.7758 11.0
33.8595 13.0
33.9432 8.0
34.027 12.0
34.1107 9.0
34.1944 15.0
34.2781 15.0
34.3618 4.0
34.4455 10.0
34.5292 8.0
34.6129 7.0
34.6966 12.0
34.7803 10.0
34.864 8.0
34.9477 10.0
35.0314 12.0
35.1151 10.0
35.1988 20.0
35.2825 11.0
35.3662 9.0
35.4499 14.0
35.5337 9.0
35.6174 7.0
35.7011 15.0
35.7848 15.0
35.8685 12.0
35.9522 10.0
36.0359 9.0
36.1196 17.0
36.2033 10.0
36.287 12.0
36.3707 14.0
36.4544 13.0
36.5381 6.0
36.6218 17.0
36.7055 7.0
36.7892 10.0
36.8729 12.0
36.9566 7.0
37.0404 12.0
37.1241 8.0
37.2078 6.0
37.2915 16.0
37.3752 3.0
37.4589 9.0
37.5426 8.0
37.6263 7.0
37.71 11.0
37.7937 12.0
37.8774 6.0
37.9611 10.0
38.0448 12.0
38.1285 18.0
38.2122 14.0
38.2959 15.0
38.3796 17.0
38.4633 11.0
38.5471 15.0
38.6308 13.0
38.7145 11.0
38.7982 14.0
38.8819 10.0
38.9656 13.0
39.0493 16.0
39.133 13.0
39.2167 10.0
39.3004 14.0
39.3841 10.0
39.4678 11.0
39.5515 18.0
39.6352 8.0
39.7189 7.0
39.8026 12.0
39.8863 12.0
39.97 8.0
40.0538 13.0
40.1375 8.0
40.2212 12.0
40.3049 17.0
40.3886 12.0
40.4723 12.0
40.556 13.0
40.6397 13.0
40.7234 13.0
40.8071 6.0
40.8908 14.0
40.9745 8.0
41.0582 13.0
41.1419 10.0
41.2256 11.0
41.3093 10.0
41.393 9.0
41.4767 6.0
41.5605 10.0
41.6442 3.0
41.7279 16.0
41.8116 10.0
41.8953 15.0
41.979 22.0
42.0627 10.0
42.1464 12.0
42.2301 6.0
42.3138 10.0
42.3975 12.0
42.4812 8.0
42.5649 6.0
42.6486 15.0
42.7323 10.0
42.816 13.0
42.8997 12.0
42.9834 11.0
43.0672 9.0
43.1509 15.0
43.2346 16.0
43.3183 11.0
43.402 17.0
43.4857 12.0
43.5694 13.0
43.6531 11.0
43.7368 13.0
43.8205 15.0
43.9042 12.0
43.9879 15.0
44.0716 13.0
44.1553 18.0
44.239 10.0
44.3227 22.0
44.4064 25.0
44.4901 18.0
44.5739 16.0
44.6576 10.0
44.7413 18.0
44.825 9.0
44.9087 15.0
44.9924 16.0
45.0761 12.0
45.1598 12.0
45.2435 18.0
45.3272 10.0
45.4109 11.0
45.4946 8.0
45.5783 14.0
45.662 16.0
45.7457 15.0
45.8294 15.0
45.9131 10.0
45.9968 20.0
46.0806 12.0
46.1643 13.0
46.248 11.0
46.3317 13.0
46.4154 8.0
46.4991 21.0
46.5828 15.0
46.6665 14.0
46.7502 20.0
46.8339 17.0
46.9176 17.0
47.0013 14.0
47.085 67.0
47.1687 38.0
47.2524 15.0
47.3361 20.0
47.4198 15.0
47.5035 4.0
47.5873 15.0
47.671 16.0
47.7547 18.0
47.8384 14.0
47.9221 12.0
48.0058 15.0
48.0895 16.0
48.1732 21.0
48.2569 31.0
48.3406 11.0
48.4243 16.0
48.508 17.0
48.5917 18.0
48.6754 11.0
48.7591 9.0
48.8428 14.0
48.9265 8.0
49.0102 11.0
49.094 14.0
49.1777 28.0
49.2614 21.0
49.3451 26.0
49.4288 43.0
49.5125 46.0
49.5962 75.0
49.6799 105.0
49.7636 172.0
49.8473 225.0
49.931 249.0
50.0147 207.0
50.0984 216.0
50.1821 296.0
50.2658 90.0
50.3495 64.0
50.4332 55.0
50.5169 39.0
50.6007 42.0
50.6844 38.0
50.7681 32.0
50.8518 28.0
50.9355 17.0
51.0192 21.0
51.1029 31.0
51.1866 22.0
51.2703 22.0
51.354 30.0
51.4377 28.0
51.5214 26.0
51.6051 43.0
51.6888 45.0
51.7725 65.0
51.8562 51.0
51.9399 59.0
52.0236 64.0
52.1074 91.0
52.1911 187.0
52.2748 453.0
52.3585 532.0
52.4422 3424.0
52.5259 24596.0
52.6096 11768.0
52.6933 3051.0
52.777 586.0
52.8607 347.0
52.9444 197.0
53.0281 171.0
53.1118 130.0
53.1955 131.0
53.2792 113.0
53.3629 87.0
53.4466 91.0
53.5303 92.0
53.6141 63.0
53.6978 60.0
53.7815 67.0
53.8652 67.0
53.9489 36.0
54.0326 58.0
54.1163 41.0
54.2 35.0
54.2837 35.0
54.3674 32.0
54.4511 29.0
54.5348 18.0
54.6185 24.0
54.7022 13.0
54.7859 22.0
54.8696 23.0
54.9533 21.0
55.037 18.0
55.1208 20.0
55.2045 16.0
55.2882 17.0
55.3719 21.0
55.4556 22.0
55.5393 12.0
55.623 13.0
55.7067 15.0
55.7904 19.0
55.8741 11.0
55.9578 15.0
56.0415 13.0
56.1252 18.0
56.2089 20.0
56.2926 21.0
56.3763 18.0
56.46 16.0
56.5437 22.0
56.6275 11.0
56.7112 10.0
56.7949 16.0
56.8786 18.0
56.9623 10.0
57.046 10.0
57.1297 12.0
57.2134 20.0
57.2971 10.0
57.3808 15.0
57.4645 16.0
57.5482 18.0
57.6319 17.0
57.7156 8.0
57.7993 15.0
57.883 5.0
57.9667 16.0
58.0504 16.0
58.1342 14.0
58.2179 19.0
58.3016 12.0
58.3853 12.0
58.469 15.0
58.5527 9.0
58.6364 6.0
58.7201 19.0
58.8038 11.0
58.8875 7.0
58.9712 16.0
59.0549 11.0
59.1386 11.0
59.2223 19.0
59.306 10.0
59.3897 15.0
59.4734 10.0
59.5571 11.0
59.6409 11.0
59.7246 8.0
59.8083 12.0
59.892 13.0
59.9757 8.0
60.0594 12.0
60.1431 14.0
60.2268 15.0
60.3105 11.0
60.3942 10.0
60.4779 15.0
60.5616 15.0
60.6453 17.0
60.729 10.0
60.8127 13.0
60.8964 11.0
60.9801 11.0
61.0638 20.0
61.1476 12.0
61.2313 8.0
61.315 12.0
61.3987 11.0
61.4824 7.0
61.5661 17.0
61.6498 12.0
61.7335 20.0
61.8172 17.0
61.9009 14.0
61.9846 7.0
62.0683 14.0
62.152 7.0
62.2357 15.0
62.3194 12.0
62.4031 12.0
62.4868 14.0
62.5705 12.0
62.6543 6.0
62.738 12.0
62.8217 4.0
62.9054 18.0
62.9891 11.0
63.0728 11.0
63.1565 12.0
63.2402 15.0
63.3239 17.0
63.4076 19.0
63.4913 16.0
63.575 5.0
63.6587 14.0
63.7424 11.0
63.8261 9.0
63.9098 11.0
63.9935 15.0
64.0772 9.0
64.161 4.0
64.2447 7.0
64.3284 13.0
64.4121 10.0
64.4958 13.0
64.5795 14.0
64.6632 15.0
64.7469 16.0
64.8306 9.0
64.9143 12.0
64.998 18.0
65.0817 9.0
65.1654 15.0
65.2491 14.0
65.3328 12.0
65.4165 10.0
65.5002 3.0
65.5839 15.0
65.6677 18.0
65.7514 11.0
65.8351 7.0
65.9188 13.0
66.0025 15.0
66.0862 7.0
66.1699 10.0
66.2536 7.0
66.3373 10.0
66.421 17.0
66.5047 7.0
66.5884 2.0
66.6721 9.0
66.7558 14.0
66.8395 15.0
66.9232 20.0
67.0069 13.0
67.0906 13.0
67.1744 10.0
67.2581 8.0
67.3418 12.0
67.4255 9.0
67.5092 9.0
67.5929 12.0
67.6766 9.0
67.7603 12.0
67.844 13.0
67.9277 9.0
68.0114 8.0
68.0951 13.0
68.1788 8.0
68.2625 10.0
68.3462 8.0
68.4299 9.0
68.5136 20.0
68.5973 9.0
68.6811 9.0
68.7648 12.0
68.8485 10.0
68.9322 12.0
69.0159 14.0
69.0996 17.0
69.1833 16.0
69.267 17.0
69.3507 12.0
69.4344 16.0
69.5181 12.0
69.6018 16.0
69.6855 16.0
69.7692 20.0
69.8529 14.0
69.9366 12.0
70.0203 12.0
70.104 13.0
70.1878 14.0
70.2715 8.0
70.3552 8.0
70.4389 7.0
70.5226 13.0
70.6063 9.0
70.69 11.0
70.7737 21.0
70.8574 17.0
70.9411 18.0
71.0248 10.0
71.1085 15.0
71.1922 15.0
71.2759 7.0
71.3596 13.0
71.4433 8.0
71.527 9.0
71.6107 13.0
71.6945 8.0
71.7782 12.0
71.8619 13.0
71.9456 14.0
72.0293 15.0
72.113 14.0
72.1967 17.0
72.2804 8.0
72.3641 13.0
72.4478 6.0
72.5315 10.0
72.6152 13.0
72.6989 13.0
72.7826 9.0
72.8663 18.0
72.95 15.0
73.0337 9.0
73.1174 4.0
73.2012 12.0
73.2849 15.0
73.3686 8.0
73.4523 9.0
73.536 10.0
73.6197 11.0
73.7034 22.0
73.7871 13.0
73.8708 9.0
73.9545 16.0
74.0382 6.0
74.1219 13.0
74.2056 6.0
74.2893 18.0
74.373 13.0
74.4567 12.0
74.5404 12.0
74.6241 13.0
74.7079 11.0
74.7916 17.0
74.8753 16.0
74.959 15.0
75.0427 11.0
75.1264 13.0
75.2101 12.0
75.2938 12.0
75.3775 17.0
75.4612 7.0
75.5449 18.0
75.6286 14.0
75.7123 9.0
75.796 21.0
75.8797 13.0
75.9634 13.0
76.0471 12.0
76.1308 13.0
76.2146 8.0
76.2983 12.0
76.382 14.0
76.4657 19.0
76.5494 6.0
76.6331 15.0
76.7168 17.0
76.8005 11.0
76.8842 14.0
76.9679 12.0
77.0516 6.0
77.1353 20.0
77.219 12.0
77.3027 9.0
77.3864 14.0
77.4701 12.0
77.5538 17.0
77.6375 16.0
77.7213 19.0
77.805 16.0
77.8887 17.0
77.9724 11.0
78.0561 15.0
78.1398 12.0
78.2235 15.0
78.3072 24.0
78.3909 27.0
78.4746 23.0
78.5583 19.0
78.642 26.0
78.7257 26.0
78.8094 14.0
78.8931 29.0
78.9768 18.0
79.0605 16.0
79.1442 6.0
79.228 12.0
79.3117 14.0
79.3954 10.0
79.4791 10.0
79.5628 11.0
79.6465 17.0
79.7302 9.0
79.8139 17.0
79.8976 9.0
79.9813 8.0
80.065 13.0
80.1487 10.0
80.2324 11.0
80.3161 15.0
80.3998 11.0
80.4835 12.0
80.5672 8.0
80.6509 11.0
80.7347 14.0
80.8184 9.0
80.9021 6.0
80.9858 10.0
81.0695 9.0
81.1532 16.0
81.2369 10.0
81.3206 13.0
81.4043 14.0
81.488 16.0
81.5717 13.0
81.6554 14.0
81.7391 18.0
81.8228 15.0
81.9065 26.0
81.9902 12.0
82.0739 19.0
82.1576 16.0
82.2414 21.0
82.3251 19.0
82.4088 12.0
82.4925 15.0
82.5762 16.0
82.6599 15.0
82.7436 27.0
82.8273 33.0
82.911 31.0
82.9947 53.0
83.0784 114.0
83.1621 1877.0
83.2458 265.0
83.3295 91.0
83.4132 1029.0
83.4969 141.0
83.5806 43.0
83.6643 21.0
83.7481 27.0
83.8318 24.0
83.9155 16.0
83.9992 11.0
84.0829 15.0
84.1666 27.0
84.2503 15.0
84.334 14.0
84.4177 13.0
84.5014 9.0
84.5851 17.0
84.6688 16.0
84.7525 14.0
84.8362 24.0
84.9199 14.0
85.0036 22.0
85.0873 11.0
85.171 12.0
85.2548 11.0
85.3385 15.0
85.4222 15.0
85.5059 12.0
85.5896 18.0
85.6733 10.0
85.757 11.0
85.8407 12.0
85.9244 10.0
86.0081 17.0
86.0918 16.0
86.1755 16.0
86.2592 20.0
86.3429 15.0
86.4266 18.0
86.5103 13.0
86.594 14.0
86.6777 13.0
86.7615 10.0
86.8452 11.0
86.9289 10.0
87.0126 18.0
87.0963 19.0
87.18 11.0
87.2637 16.0
87.3474 9.0
87.4311 12.0
87.5148 10.0
87.5985 16.0
87.6822 12.0
87.7659 21.0
87.8496 15.0
87.9333 11.0
88.017 9.0
88.1007 15.0
88.1844 14.0
88.2682 9.0
88.3519 11.0
88.4356 19.0
88.5193 15.0
88.603 13.0
88.6867 10.0
88.7704 16.0
88.8541 14.0
88.9378 16.0
89.0215 11.0
89.1052 10.0
89.1889 10.0
89.2726 10.0
89.3563 9.0
89.44 10.0
89.5237 14.0
89.6074 8.0
89.6911 13.0
89.7749 7.0
89.8586 8.0
89.9423 9.0
90.026 8.0
90.1097 13.0
90.1934 10.0
90.2771 21.0
90.3608 10.0
90.4445 15.0
90.5282 8.0
90.6119 11.0
90.6956 18.0
90.7793 8.0
90.863 13.0
90.9467 10.0
91.0304 16.0
91.1141 15.0
91.1978 13.0
91.2816 8.0
91.3653 25.0
91.449 19.0
91.5327 12.0
91.6164 11.0
91.7001 13.0
91.7838 16.0
91.8675 16.0
91.9512 12.0
92.0349 20.0
92.1186 8.0
92.2023 12.0
92.286 11.0
92.3697 16.0
92.4534 8.0
92.5371 10.0
92.6208 13.0
92.7045 10.0
92.7883 17.0
92.872 12.0
92.9557 16.0
93.0394 7.0
93.1231 10.0
93.2068 16.0
93.2905 11.0
93.3742 10.0
93.4579 14.0
93.5416 9.0
93.6253 15.0
93.709 11.0
93.7927 9.0
93.8764 13.0
93.9601 18.0
94.0438 12.0
94.1275 8.0
94.2112 16.0
94.295 22.0
94.3787 7.0
94.4624 12.0
94.5461 13.0
94.6298 8.0
94.7135 20.0
94.7972 11.0
94.8809 12.0
94.9646 7.0
95.0483 11.0
95.132 10.0
95.2157 9.0
95.2994 6.0
95.3831 7.0
95.4668 18.0
95.5505 16.0
95.6342 14.0
95.7179 12.0
95.8017 11.0
95.8854 14.0
95.9691 13.0
96.0528 9.0
96.1365 15.0
96.2202 11.0
96.3039 10.0
96.3876 10.0
96.4713 12.0
96.555 17.0
96.6387 12.0
96.7224 15.0
96.8061 12.0
96.8898 8.0
96.9735 13.0
97.0572 15.0
97.1409 9.0
97.2246 15.0
97.3084 17.0
97.3921 12.0
97.4758 9.0
97.5595 12.0
97.6432 12.0
97.7269 8.0
97.8106 10.0
97.8943 16.0
97.978 8.0
98.0617 7.0
98.1454 11.0
98.2291 15.0
98.3128 15.0
98.3965 8.0
98.4802 21.0
98.5639 10.0
98.6476 13.0
98.7313 10.0
98.8151 7.0
98.8988 23.0
98.9825 8.0
99.0662 13.0
99.1499 11.0
99.2336 13.0
99.3173 12.0
99.401 16.0
99.4847 19.0
99.5684 8.0
99.6521 16.0
99.7358 7.0
99.8195 12.0
99.9032 19.0
99.9869 10.0
100.071 17.0
100.154 11.0
100.238 17.0
100.322 14.0
100.405 17.0
100.489 16.0
100.573 10.0
100.657 15.0
100.74 10.0
100.824 9.0
100.908 13.0
100.991 3.0
101.075 8.0
101.159 14.0
101.243 17.0
101.326 15.0
101.41 11.0
101.494 14.0
101.577 15.0
101.661 12.0
101.745 8.0
101.828 12.0
101.912 12.0
101.996 12.0
102.08 8.0
102.163 10.0
102.247 16.0
102.331 15.0
102.414 10.0
102.498 10.0
102.582 15.0
102.666 10.0
102.749 6.0
102.833 14.0
102.917 19.0
103 15.0
103.084 11.0
103.168 14.0
103.251 8.0
103.335 12.0
103.419 12.0
103.503 15.0
103.586 7.0
103.67 14.0
103.754 4.0
103.837 15.0
103.921 7.0
104.005 8.0
104.089 11.0
104.172 11.0
104.256 7.0
104.34 25.0
104.423 7.0
104.507 13.0
104.591 16.0
104.674 9.0
104.758 11.0
104.842 14.0
104.926 19.0
105.009 11.0
105.093 13.0
105.177 13.0
105.26 10.0
105.344 9.0
105.428 20.0
105.511 14.0
105.595 18.0
105.679 13.0
105.763 12.0
105.846 17.0
105.93 4.0
106.014 13.0
106.097 11.0
106.181 18.0
106.265 14.0
106.349 13.0
106.432 16.0
106.516 19.0
106.6 16.0
106.683 14.0
106.767 13.0
106.851 20.0
106.934 10.0
107.018 23.0
107.102 13.0
107.186 12.0
107.269 13.0
107.353 13.0
107.437 14.0
107.52 12.0
107.604 12.0
107.688 3.0
107.772 13.0
107.855 17.0
107.939 10.0
108.023 13.0
108.106 12.0
108.19 5.0
108.274 12.0
108.357 12.0
108.441 13.0
108.525 7.0
108.609 23.0
108.692 11.0
108.776 13.0
108.86 16.0
108.943 17.0
109.027 21.0
109.111 10.0
109.195 18.0
109.278 11.0
109.362 13.0
109.446 10.0
109.529 20.0
109.613 8.0
109.697 10.0
109.78 22.0
109.864 6.0
109.948 17.0
110.032 20.0
110.115 11.0
110.199 8.0
110.283 12.0
110.366 11.0
110.45 15.0
110.534 11.0
110.618 11.0
110.701 19.0
110.785 15.0
110.869 17.0
110.952 8.0
111.036 15.0
111.12 13.0
111.203 19.0
111.287 13.0
111.371 17.0
111.455 5.0
111.538 12.0
111.622 12.0
111.706 12.0
111.789 15.0
111.873 11.0
111.957 11.0
112.041 10.0
112.124 16.0
112.208 13.0
112.292 14.0
112.375 8.0
112.459 11.0
112.543 18.0
112.626 12.0
112.71 11.0
112.794 16.0
112.878 6.0
112.961 12.0
113.045 23.0
113.129 15.0
113.212 13.0
113.296 14.0
113.38 4.0
113.464 11.0
113.547 14.0
113.631 17.0
113.715 17.0
113.798 6.0
113.882 10.0
113.966 12.0
114.049 17.0
114.133 10.0
114.217 17.0
114.301 14.0
114.384 16.0
114.468 16.0
114.552 15.0
114.635 21.0
114.719 20.0
114.803 11.0
114.887 18.0
114.97 15.0
115.054 16.0
115.138 18.0
115.221 16.0
115.305 17.0
115.389 8.0
115.472 21.0
115.556 6.0
115.64 11.0
115.724 13.0
115.807 18.0
115.891 17.0
115.975 18.0
116.058 38.0
116.142 35.0
116.226 21.0
116.31 22.0
116.393 14.0
116.477 18.0
116.561 20.0
116.644 16.0
116.728 9.0
116.812 10.0
116.895 12.0
116.979 15.0
117.063 17.0
117.147 7.0
117.23 21.0
117.314 17.0
117.398 14.0
117.481 19.0
117.565 15.0
117.649 15.0
117.733 8.0
117.816 16.0
117.9 11.0
117.984 15.0
118.067 14.0
118.151 18.0
118.235 14.0
118.318 13.0
118.402 22.0
118.486 15.0
118.57 10.0
118.653 15.0
118.737 11.0
118.821 21.0
118.904 15.0
118.988 15.0
119.072 11.0
119.156 17.0
119.239 9.0
119.323 13.0
119.407 21.0
119.49 12.0
119.574 15.0
119.658 6.0
119.741 23.0
119.825 11.0
119.909 14.0
119.993 13.0
120.076 15.0
120.16 20.0
120.244 10.0
120.327 12.0
120.411 14.0
120.495 11.0
120.578 15.0
120.662 13.0
120.746 10.0
120.83 17.0
120.913 17.0
120.997 8.0
121.081 13.0
121.164 10.0
121.248 24.0
121.332 23.0
121.416 14.0
121.499 9.0
121.583 11.0
121.667 27.0
121.75 14.0
121.834 6.0
121.918 19.0
122.001 18.0
122.085 16.0
122.169 17.0
122.253 12.0
122.336 22.0
122.42 23.0
122.504 21.0
122.587 25.0
122.671 11.0
122.755 17.0
122.839 17.0
122.922 18.0
123.006 21.0
123.09 22.0
123.173 22.0
123.257 23.0
123.341 22.0
123.424 36.0
123.508 47.0
123.592 36.0
123.676 44.0
123.759 48.0
123.843 47.0
123.927 57.0
124.01 50.0
124.094 89.0
124.178 88.0
124.262 133.0
124.345 285.0
124.429 562.0
124.513 2326.0
124.596 8520.0
124.68 1868.0
124.764 581.0
124.847 310.0
124.931 342.0
125.015 657.0
125.099 3609.0
125.182 2481.0
125.266 606.0
125.35 212.0
125.433 130.0
125.517 61.0
125.601 85.0
125.685 59.0
125.768 53.0
125.852 47.0
125.936 46.0
126.019 42.0
126.103 45.0
126.187 35.0
126.27 41.0
126.354 26.0
126.438 24.0
126.522 36.0
126.605 30.0
126.689 31.0
126.773 21.0
126.856 22.0
126.94 23.0
127.024 23.0
127.108 34.0
127.191 20.0
127.275 23.0
127.359 21.0
127.442 27.0
127.526 22.0
127.61 24.0
127.693 25.0
127.777 22.0
127.861 22.0
127.945 25.0
128.028 21.0
128.112 26.0
128.196 14.0
128.279 22.0
128.363 19.0
128.447 21.0
128.531 19.0
128.614 17.0
128.698 20.0
128.782 23.0
128.865 14.0
128.949 24.0
129.033 20.0
129.116 20.0
129.2 16.0
129.284 13.0
129.368 16.0
129.451 29.0
129.535 18.0
129.619 15.0
129.702 15.0
129.786 14.0
129.87 22.0
129.954 16.0
129.998 24.0