File: data/W6959m/XRD_2ThetaOmega/m_scan_2th-om_10-130deg_PIXscan_17min_C2.xy
10.0035 46.0
10.0872 34.0
10.1709 35.0
10.2546 52.0
10.3383 48.0
10.422 50.0
10.5057 46.0
10.5894 40.0
10.6731 43.0
10.7568 42.0
10.8405 32.0
10.9242 42.0
11.0079 42.0
11.0916 43.0
11.1753 47.0
11.259 44.0
11.3428 50.0
11.4265 53.0
11.5102 59.0
11.5939 58.0
11.6776 57.0
11.7613 40.0
11.845 40.0
11.9287 57.0
12.0124 33.0
12.0961 48.0
12.1798 36.0
12.2635 34.0
12.3472 45.0
12.4309 42.0
12.5146 43.0
12.5983 35.0
12.682 40.0
12.7657 42.0
12.8495 43.0
12.9332 32.0
13.0169 37.0
13.1006 40.0
13.1843 31.0
13.268 34.0
13.3517 38.0
13.4354 29.0
13.5191 45.0
13.6028 35.0
13.6865 22.0
13.7702 43.0
13.8539 42.0
13.9376 35.0
14.0213 36.0
14.105 26.0
14.1887 39.0
14.2724 39.0
14.3562 36.0
14.4399 36.0
14.5236 32.0
14.6073 38.0
14.691 35.0
14.7747 43.0
14.8584 45.0
14.9421 33.0
15.0258 46.0
15.1095 39.0
15.1932 37.0
15.2769 45.0
15.3606 39.0
15.4443 28.0
15.528 34.0
15.6117 36.0
15.6954 20.0
15.7791 33.0
15.8629 26.0
15.9466 30.0
16.0303 30.0
16.114 28.0
16.1977 46.0
16.2814 31.0
16.3651 27.0
16.4488 39.0
16.5325 34.0
16.6162 33.0
16.6999 35.0
16.7836 39.0
16.8673 29.0
16.951 27.0
17.0347 39.0
17.1184 32.0
17.2021 18.0
17.2858 21.0
17.3696 36.0
17.4533 30.0
17.537 37.0
17.6207 25.0
17.7044 38.0
17.7881 38.0
17.8718 33.0
17.9555 31.0
18.0392 24.0
18.1229 20.0
18.2066 28.0
18.2903 22.0
18.374 30.0
18.4577 27.0
18.5414 20.0
18.6251 26.0
18.7088 32.0
18.7925 25.0
18.8763 22.0
18.96 32.0
19.0437 21.0
19.1274 31.0
19.2111 26.0
19.2948 26.0
19.3785 39.0
19.4622 30.0
19.5459 31.0
19.6296 31.0
19.7133 27.0
19.797 33.0
19.8807 40.0
19.9644 18.0
20.0481 28.0
20.1318 27.0
20.2155 32.0
20.2992 34.0
20.383 30.0
20.4667 33.0
20.5504 29.0
20.6341 25.0
20.7178 40.0
20.8015 23.0
20.8852 24.0
20.9689 26.0
21.0526 19.0
21.1363 24.0
21.22 27.0
21.3037 30.0
21.3874 25.0
21.4711 39.0
21.5548 33.0
21.6385 26.0
21.7222 29.0
21.8059 28.0
21.8897 18.0
21.9734 34.0
22.0571 19.0
22.1408 25.0
22.2245 32.0
22.3082 27.0
22.3919 27.0
22.4756 28.0
22.5593 31.0
22.643 28.0
22.7267 35.0
22.8104 39.0
22.8941 27.0
22.9778 27.0
23.0615 33.0
23.1452 31.0
23.2289 26.0
23.3126 22.0
23.3964 19.0
23.4801 28.0
23.5638 31.0
23.6475 27.0
23.7312 29.0
23.8149 37.0
23.8986 16.0
23.9823 31.0
24.066 35.0
24.1497 22.0
24.2334 21.0
24.3171 27.0
24.4008 27.0
24.4845 24.0
24.5682 26.0
24.6519 30.0
24.7356 26.0
24.8193 30.0
24.9031 24.0
24.9868 23.0
25.0705 27.0
25.1542 24.0
25.2379 26.0
25.3216 27.0
25.4053 24.0
25.489 27.0
25.5727 21.0
25.6564 22.0
25.7401 27.0
25.8238 23.0
25.9075 30.0
25.9912 21.0
26.0749 30.0
26.1586 29.0
26.2423 22.0
26.326 30.0
26.4098 25.0
26.4935 19.0
26.5772 26.0
26.6609 23.0
26.7446 16.0
26.8283 21.0
26.912 28.0
26.9957 24.0
27.0794 26.0
27.1631 26.0
27.2468 33.0
27.3305 18.0
27.4142 24.0
27.4979 23.0
27.5816 20.0
27.6653 24.0
27.749 28.0
27.8327 27.0
27.9165 20.0
28.0002 23.0
28.0839 22.0
28.1676 15.0
28.2513 22.0
28.335 19.0
28.4187 11.0
28.5024 23.0
28.5861 16.0
28.6698 27.0
28.7535 29.0
28.8372 30.0
28.9209 30.0
29.0046 27.0
29.0883 27.0
29.172 15.0
29.2557 21.0
29.3394 30.0
29.4232 20.0
29.5069 23.0
29.5906 30.0
29.6743 17.0
29.758 30.0
29.8417 25.0
29.9254 23.0
30.0091 9.0
30.0928 20.0
30.1765 24.0
30.2602 33.0
30.3439 24.0
30.4276 27.0
30.5113 26.0
30.595 21.0
30.6787 19.0
30.7624 23.0
30.8461 27.0
30.9298 21.0
31.0136 31.0
31.0973 21.0
31.181 30.0
31.2647 15.0
31.3484 22.0
31.4321 25.0
31.5158 23.0
31.5995 22.0
31.6832 23.0
31.7669 30.0
31.8506 17.0
31.9343 24.0
32.018 20.0
32.1017 37.0
32.1854 26.0
32.2691 15.0
32.3528 22.0
32.4365 18.0
32.5203 31.0
32.604 25.0
32.6877 24.0
32.7714 22.0
32.8551 25.0
32.9388 32.0
33.0225 26.0
33.1062 23.0
33.1899 25.0
33.2736 16.0
33.3573 23.0
33.441 20.0
33.5247 23.0
33.6084 21.0
33.6921 19.0
33.7758 28.0
33.8595 20.0
33.9432 19.0
34.027 29.0
34.1107 18.0
34.1944 12.0
34.2781 18.0
34.3618 24.0
34.4455 29.0
34.5292 27.0
34.6129 21.0
34.6966 28.0
34.7803 19.0
34.864 29.0
34.9477 23.0
35.0314 29.0
35.1151 20.0
35.1988 16.0
35.2825 22.0
35.3662 29.0
35.4499 18.0
35.5337 17.0
35.6174 20.0
35.7011 36.0
35.7848 18.0
35.8685 29.0
35.9522 22.0
36.0359 22.0
36.1196 27.0
36.2033 25.0
36.287 25.0
36.3707 22.0
36.4544 18.0
36.5381 17.0
36.6218 23.0
36.7055 25.0
36.7892 28.0
36.8729 28.0
36.9566 20.0
37.0404 19.0
37.1241 27.0
37.2078 21.0
37.2915 31.0
37.3752 26.0
37.4589 20.0
37.5426 20.0
37.6263 21.0
37.71 31.0
37.7937 23.0
37.8774 33.0
37.9611 21.0
38.0448 23.0
38.1285 24.0
38.2122 25.0
38.2959 25.0
38.3796 18.0
38.4633 26.0
38.5471 29.0
38.6308 27.0
38.7145 17.0
38.7982 26.0
38.8819 24.0
38.9656 32.0
39.0493 23.0
39.133 25.0
39.2167 18.0
39.3004 32.0
39.3841 21.0
39.4678 27.0
39.5515 24.0
39.6352 13.0
39.7189 24.0
39.8026 30.0
39.8863 31.0
39.97 22.0
40.0538 33.0
40.1375 22.0
40.2212 30.0
40.3049 28.0
40.3886 28.0
40.4723 26.0
40.556 24.0
40.6397 15.0
40.7234 16.0
40.8071 31.0
40.8908 23.0
40.9745 22.0
41.0582 27.0
41.1419 25.0
41.2256 21.0
41.3093 24.0
41.393 24.0
41.4767 20.0
41.5605 26.0
41.6442 36.0
41.7279 30.0
41.8116 25.0
41.8953 30.0
41.979 15.0
42.0627 29.0
42.1464 20.0
42.2301 17.0
42.3138 29.0
42.3975 18.0
42.4812 22.0
42.5649 21.0
42.6486 19.0
42.7323 21.0
42.816 22.0
42.8997 26.0
42.9834 30.0
43.0672 37.0
43.1509 29.0
43.2346 19.0
43.3183 33.0
43.402 23.0
43.4857 25.0
43.5694 29.0
43.6531 30.0
43.7368 29.0
43.8205 21.0
43.9042 17.0
43.9879 31.0
44.0716 31.0
44.1553 23.0
44.239 37.0
44.3227 45.0
44.4064 46.0
44.4901 38.0
44.5739 27.0
44.6576 28.0
44.7413 31.0
44.825 28.0
44.9087 20.0
44.9924 20.0
45.0761 19.0
45.1598 29.0
45.2435 30.0
45.3272 26.0
45.4109 26.0
45.4946 24.0
45.5783 28.0
45.662 27.0
45.7457 26.0
45.8294 23.0
45.9131 22.0
45.9968 32.0
46.0806 23.0
46.1643 21.0
46.248 19.0
46.3317 38.0
46.4154 26.0
46.4991 27.0
46.5828 33.0
46.6665 27.0
46.7502 28.0
46.8339 15.0
46.9176 24.0
47.0013 24.0
47.085 26.0
47.1687 27.0
47.2524 27.0
47.3361 18.0
47.4198 27.0
47.5035 26.0
47.5873 16.0
47.671 18.0
47.7547 15.0
47.8384 27.0
47.9221 27.0
48.0058 23.0
48.0895 28.0
48.1732 23.0
48.2569 28.0
48.3406 27.0
48.4243 25.0
48.508 22.0
48.5917 27.0
48.6754 26.0
48.7591 31.0
48.8428 36.0
48.9265 25.0
49.0102 25.0
49.094 22.0
49.1777 30.0
49.2614 30.0
49.3451 25.0
49.4288 21.0
49.5125 22.0
49.5962 19.0
49.6799 22.0
49.7636 30.0
49.8473 24.0
49.931 23.0
50.0147 30.0
50.0984 19.0
50.1821 36.0
50.2658 27.0
50.3495 22.0
50.4332 19.0
50.5169 25.0
50.6007 23.0
50.6844 22.0
50.7681 21.0
50.8518 31.0
50.9355 18.0
51.0192 27.0
51.1029 25.0
51.1866 19.0
51.2703 25.0
51.354 27.0
51.4377 29.0
51.5214 23.0
51.6051 25.0
51.6888 15.0
51.7725 35.0
51.8562 23.0
51.9399 29.0
52.0236 20.0
52.1074 20.0
52.1911 23.0
52.2748 28.0
52.3585 26.0
52.4422 32.0
52.5259 16.0
52.6096 22.0
52.6933 30.0
52.777 22.0
52.8607 28.0
52.9444 33.0
53.0281 31.0
53.1118 26.0
53.1955 24.0
53.2792 27.0
53.3629 20.0
53.4466 24.0
53.5303 28.0
53.6141 27.0
53.6978 25.0
53.7815 17.0
53.8652 32.0
53.9489 21.0
54.0326 22.0
54.1163 24.0
54.2 25.0
54.2837 25.0
54.3674 17.0
54.4511 19.0
54.5348 22.0
54.6185 32.0
54.7022 32.0
54.7859 23.0
54.8696 24.0
54.9533 25.0
55.037 28.0
55.1208 32.0
55.2045 21.0
55.2882 26.0
55.3719 25.0
55.4556 27.0
55.5393 25.0
55.623 23.0
55.7067 22.0
55.7904 26.0
55.8741 34.0
55.9578 32.0
56.0415 34.0
56.1252 27.0
56.2089 27.0
56.2926 26.0
56.3763 23.0
56.46 36.0
56.5437 18.0
56.6275 25.0
56.7112 27.0
56.7949 36.0
56.8786 30.0
56.9623 35.0
57.046 17.0
57.1297 24.0
57.2134 25.0
57.2971 27.0
57.3808 28.0
57.4645 25.0
57.5482 24.0
57.6319 34.0
57.7156 48.0
57.7993 75.0
57.883 56.0
57.9667 48.0
58.0504 38.0
58.1342 27.0
58.2179 26.0
58.3016 26.0
58.3853 25.0
58.469 29.0
58.5527 22.0
58.6364 24.0
58.7201 23.0
58.8038 22.0
58.8875 27.0
58.9712 27.0
59.0549 35.0
59.1386 20.0
59.2223 29.0
59.306 26.0
59.3897 28.0
59.4734 25.0
59.5571 28.0
59.6409 36.0
59.7246 27.0
59.8083 22.0
59.892 27.0
59.9757 19.0
60.0594 31.0
60.1431 29.0
60.2268 37.0
60.3105 33.0
60.3942 32.0
60.4779 37.0
60.5616 41.0
60.6453 41.0
60.729 51.0
60.8127 265.0
60.8964 352.0
60.9801 93.0
61.0638 56.0
61.1476 56.0
61.2313 42.0
61.315 55.0
61.3987 40.0
61.4824 28.0
61.5661 32.0
61.6498 45.0
61.7335 20.0
61.8172 26.0
61.9009 30.0
61.9846 34.0
62.0683 26.0
62.152 31.0
62.2357 31.0
62.3194 34.0
62.4031 45.0
62.4868 45.0
62.5705 41.0
62.6543 33.0
62.738 34.0
62.8217 42.0
62.9054 37.0
62.9891 51.0
63.0728 51.0
63.1565 44.0
63.2402 54.0
63.3239 59.0
63.4076 50.0
63.4913 54.0
63.575 60.0
63.6587 67.0
63.7424 64.0
63.8261 61.0
63.9098 89.0
63.9935 90.0
64.0772 123.0
64.161 150.0
64.2447 178.0
64.3284 287.0
64.4121 481.0
64.4958 973.0
64.5795 3361.0
64.6632 9587.0
64.7469 4771.0
64.8306 5654.0
64.9143 2637.0
64.998 1066.0
65.0817 495.0
65.1654 310.0
65.2491 199.0
65.3328 142.0
65.4165 102.0
65.5002 102.0
65.5839 83.0
65.6677 75.0
65.7514 79.0
65.8351 91.0
65.9188 74.0
66.0025 76.0
66.0862 78.0
66.1699 64.0
66.2536 88.0
66.3373 98.0
66.421 98.0
66.5047 94.0
66.5884 82.0
66.6721 102.0
66.7558 104.0
66.8395 117.0
66.9232 131.0
67.0069 146.0
67.0906 154.0
67.1744 170.0
67.2581 198.0
67.3418 188.0
67.4255 215.0
67.5092 280.0
67.5929 316.0
67.6766 420.0
67.7603 722.0
67.844 1366.0
67.9277 1351.0
68.0114 2228.0
68.0951 9614.0
68.1788 134292.0
68.2625 9880.0
68.3462 51856.0
68.4299 10995.0
68.5136 1837.0
68.5973 990.0
68.6811 648.0
68.7648 408.0
68.8485 383.0
68.9322 286.0
69.0159 211.0
69.0996 213.0
69.1833 148.0
69.267 134.0
69.3507 127.0
69.4344 99.0
69.5181 84.0
69.6018 59.0
69.6855 75.0
69.7692 61.0
69.8529 69.0
69.9366 53.0
70.0203 48.0
70.104 53.0
70.1878 40.0
70.2715 40.0
70.3552 46.0
70.4389 43.0
70.5226 39.0
70.6063 39.0
70.69 41.0
70.7737 39.0
70.8574 38.0
70.9411 37.0
71.0248 35.0
71.1085 44.0
71.1922 38.0
71.2759 35.0
71.3596 39.0
71.4433 35.0
71.527 40.0
71.6107 36.0
71.6945 31.0
71.7782 29.0
71.8619 29.0
71.9456 30.0
72.0293 32.0
72.113 30.0
72.1967 32.0
72.2804 36.0
72.3641 36.0
72.4478 30.0
72.5315 44.0
72.6152 38.0
72.6989 23.0
72.7826 30.0
72.8663 30.0
72.95 18.0
73.0337 39.0
73.1174 24.0
73.2012 42.0
73.2849 30.0
73.3686 43.0
73.4523 28.0
73.536 21.0
73.6197 34.0
73.7034 21.0
73.7871 29.0
73.8708 19.0
73.9545 26.0
74.0382 31.0
74.1219 25.0
74.2056 24.0
74.2893 26.0
74.373 28.0
74.4567 22.0
74.5404 36.0
74.6241 26.0
74.7079 34.0
74.7916 34.0
74.8753 15.0
74.959 20.0
75.0427 21.0
75.1264 23.0
75.2101 26.0
75.2938 23.0
75.3775 34.0
75.4612 23.0
75.5449 25.0
75.6286 27.0
75.7123 34.0
75.796 26.0
75.8797 33.0
75.9634 29.0
76.0471 25.0
76.1308 34.0
76.2146 22.0
76.2983 33.0
76.382 27.0
76.4657 26.0
76.5494 31.0
76.6331 27.0
76.7168 30.0
76.8005 30.0
76.8842 27.0
76.9679 25.0
77.0516 26.0
77.1353 35.0
77.219 19.0
77.3027 39.0
77.3864 27.0
77.4701 38.0
77.5538 33.0
77.6375 21.0
77.7213 18.0
77.805 28.0
77.8887 37.0
77.9724 24.0
78.0561 21.0
78.1398 27.0
78.2235 21.0
78.3072 26.0
78.3909 31.0
78.4746 45.0
78.5583 30.0
78.642 21.0
78.7257 29.0
78.8094 26.0
78.8931 22.0
78.9768 18.0
79.0605 29.0
79.1442 33.0
79.228 19.0
79.3117 32.0
79.3954 27.0
79.4791 27.0
79.5628 39.0
79.6465 24.0
79.7302 20.0
79.8139 28.0
79.8976 18.0
79.9813 28.0
80.065 29.0
80.1487 30.0
80.2324 29.0
80.3161 26.0
80.3998 29.0
80.4835 27.0
80.5672 25.0
80.6509 25.0
80.7347 26.0
80.8184 22.0
80.9021 28.0
80.9858 21.0
81.0695 27.0
81.1532 29.0
81.2369 30.0
81.3206 21.0
81.4043 33.0
81.488 23.0
81.5717 24.0
81.6554 14.0
81.7391 32.0
81.8228 34.0
81.9065 37.0
81.9902 35.0
82.0739 25.0
82.1576 28.0
82.2414 30.0
82.3251 33.0
82.4088 22.0
82.4925 23.0
82.5762 36.0
82.6599 29.0
82.7436 23.0
82.8273 35.0
82.911 38.0
82.9947 30.0
83.0784 29.0
83.1621 29.0
83.2458 28.0
83.3295 38.0
83.4132 25.0
83.4969 27.0
83.5806 14.0
83.6643 31.0
83.7481 34.0
83.8318 26.0
83.9155 25.0
83.9992 23.0
84.0829 33.0
84.1666 29.0
84.2503 34.0
84.334 36.0
84.4177 25.0
84.5014 33.0
84.5851 24.0
84.6688 23.0
84.7525 36.0
84.8362 25.0
84.9199 31.0
85.0036 20.0
85.0873 26.0
85.171 39.0
85.2548 28.0
85.3385 28.0
85.4222 35.0
85.5059 31.0
85.5896 27.0
85.6733 24.0
85.757 32.0
85.8407 23.0
85.9244 33.0
86.0081 33.0
86.0918 28.0
86.1755 21.0
86.2592 31.0
86.3429 29.0
86.4266 23.0
86.5103 22.0
86.594 34.0
86.6777 21.0
86.7615 26.0
86.8452 32.0
86.9289 29.0
87.0126 20.0
87.0963 32.0
87.18 21.0
87.2637 22.0
87.3474 29.0
87.4311 23.0
87.5148 21.0
87.5985 28.0
87.6822 30.0
87.7659 27.0
87.8496 23.0
87.9333 31.0
88.017 23.0
88.1007 24.0
88.1844 25.0
88.2682 30.0
88.3519 27.0
88.4356 29.0
88.5193 30.0
88.603 14.0
88.6867 36.0
88.7704 32.0
88.8541 26.0
88.9378 27.0
89.0215 22.0
89.1052 24.0
89.1889 25.0
89.2726 24.0
89.3563 16.0
89.44 31.0
89.5237 23.0
89.6074 30.0
89.6911 27.0
89.7749 35.0
89.8586 27.0
89.9423 28.0
90.026 24.0
90.1097 28.0
90.1934 34.0
90.2771 29.0
90.3608 28.0
90.4445 23.0
90.5282 27.0
90.6119 25.0
90.6956 25.0
90.7793 31.0
90.863 30.0
90.9467 29.0
91.0304 31.0
91.1141 24.0
91.1978 35.0
91.2816 27.0
91.3653 17.0
91.449 40.0
91.5327 18.0
91.6164 25.0
91.7001 18.0
91.7838 27.0
91.8675 28.0
91.9512 29.0
92.0349 27.0
92.1186 33.0
92.2023 25.0
92.286 25.0
92.3697 22.0
92.4534 20.0
92.5371 23.0
92.6208 20.0
92.7045 23.0
92.7883 34.0
92.872 31.0
92.9557 28.0
93.0394 23.0
93.1231 24.0
93.2068 31.0
93.2905 29.0
93.3742 34.0
93.4579 17.0
93.5416 25.0
93.6253 33.0
93.709 34.0
93.7927 28.0
93.8764 32.0
93.9601 38.0
94.0438 24.0
94.1275 18.0
94.2112 26.0
94.295 27.0
94.3787 24.0
94.4624 21.0
94.5461 20.0
94.6298 23.0
94.7135 27.0
94.7972 24.0
94.8809 31.0
94.9646 29.0
95.0483 33.0
95.132 22.0
95.2157 27.0
95.2994 23.0
95.3831 27.0
95.4668 27.0
95.5505 19.0
95.6342 23.0
95.7179 27.0
95.8017 24.0
95.8854 20.0
95.9691 24.0
96.0528 27.0
96.1365 22.0
96.2202 29.0
96.3039 27.0
96.3876 24.0
96.4713 27.0
96.555 25.0
96.6387 17.0
96.7224 32.0
96.8061 23.0
96.8898 18.0
96.9735 30.0
97.0572 20.0
97.1409 24.0
97.2246 23.0
97.3084 30.0
97.3921 31.0
97.4758 35.0
97.5595 25.0
97.6432 26.0
97.7269 32.0
97.8106 32.0
97.8943 33.0
97.978 26.0
98.0617 27.0
98.1454 23.0
98.2291 25.0
98.3128 21.0
98.3965 29.0
98.4802 31.0
98.5639 25.0
98.6476 35.0
98.7313 32.0
98.8151 31.0
98.8988 27.0
98.9825 22.0
99.0662 32.0
99.1499 35.0
99.2336 28.0
99.3173 25.0
99.401 28.0
99.4847 28.0
99.5684 25.0
99.6521 31.0
99.7358 24.0
99.8195 30.0
99.9032 37.0
99.9869 28.0
100.071 29.0
100.154 29.0
100.238 25.0
100.322 23.0
100.405 24.0
100.489 30.0
100.573 29.0
100.657 27.0
100.74 35.0
100.824 19.0
100.908 24.0
100.991 21.0
101.075 17.0
101.159 25.0
101.243 16.0
101.326 31.0
101.41 21.0
101.494 28.0
101.577 31.0
101.661 29.0
101.745 29.0
101.828 36.0
101.912 25.0
101.996 32.0
102.08 24.0
102.163 29.0
102.247 34.0
102.331 25.0
102.414 32.0
102.498 23.0
102.582 38.0
102.666 23.0
102.749 25.0
102.833 26.0
102.917 26.0
103 17.0
103.084 25.0
103.168 29.0
103.251 22.0
103.335 26.0
103.419 25.0
103.503 36.0
103.586 29.0
103.67 32.0
103.754 28.0
103.837 19.0
103.921 25.0
104.005 27.0
104.089 32.0
104.172 20.0
104.256 29.0
104.34 20.0
104.423 23.0
104.507 27.0
104.591 27.0
104.674 27.0
104.758 25.0
104.842 27.0
104.926 20.0
105.009 36.0
105.093 31.0
105.177 37.0
105.26 23.0
105.344 25.0
105.428 20.0
105.511 25.0
105.595 30.0
105.679 31.0
105.763 27.0
105.846 22.0
105.93 21.0
106.014 25.0
106.097 22.0
106.181 18.0
106.265 25.0
106.349 28.0
106.432 24.0
106.516 23.0
106.6 27.0
106.683 30.0
106.767 24.0
106.851 25.0
106.934 33.0
107.018 22.0
107.102 18.0
107.186 43.0
107.269 23.0
107.353 27.0
107.437 28.0
107.52 21.0
107.604 18.0
107.688 28.0
107.772 22.0
107.855 28.0
107.939 26.0
108.023 31.0
108.106 30.0
108.19 27.0
108.274 23.0
108.357 30.0
108.441 23.0
108.525 25.0
108.609 26.0
108.692 24.0
108.776 22.0
108.86 25.0
108.943 23.0
109.027 29.0
109.111 33.0
109.195 25.0
109.278 38.0
109.362 22.0
109.446 21.0
109.529 29.0
109.613 20.0
109.697 21.0
109.78 18.0
109.864 25.0
109.948 39.0
110.032 35.0
110.115 36.0
110.199 35.0
110.283 25.0
110.366 30.0
110.45 23.0
110.534 28.0
110.618 38.0
110.701 21.0
110.785 22.0
110.869 31.0
110.952 20.0
111.036 24.0
111.12 15.0
111.203 23.0
111.287 24.0
111.371 16.0
111.455 25.0
111.538 32.0
111.622 34.0
111.706 29.0
111.789 33.0
111.873 34.0
111.957 24.0
112.041 33.0
112.124 39.0
112.208 30.0
112.292 31.0
112.375 36.0
112.459 27.0
112.543 28.0
112.626 27.0
112.71 28.0
112.794 19.0
112.878 35.0
112.961 25.0
113.045 25.0
113.129 32.0
113.212 15.0
113.296 30.0
113.38 26.0
113.464 33.0
113.547 31.0
113.631 38.0
113.715 28.0
113.798 37.0
113.882 35.0
113.966 23.0
114.049 32.0
114.133 27.0
114.217 27.0
114.301 25.0
114.384 40.0
114.468 15.0
114.552 22.0
114.635 23.0
114.719 33.0
114.803 28.0
114.887 24.0
114.97 28.0
115.054 20.0
115.138 29.0
115.221 26.0
115.305 22.0
115.389 28.0
115.472 28.0
115.556 29.0
115.64 30.0
115.724 34.0
115.807 31.0
115.891 25.0
115.975 35.0
116.058 35.0
116.142 36.0
116.226 21.0
116.31 22.0
116.393 40.0
116.477 28.0
116.561 32.0
116.644 28.0
116.728 28.0
116.812 28.0
116.895 26.0
116.979 26.0
117.063 29.0
117.147 27.0
117.23 25.0
117.314 32.0
117.398 16.0
117.481 29.0
117.565 22.0
117.649 24.0
117.733 27.0
117.816 24.0
117.9 26.0
117.984 23.0
118.067 37.0
118.151 22.0
118.235 33.0
118.318 25.0
118.402 34.0
118.486 29.0
118.57 28.0
118.653 26.0
118.737 24.0
118.821 25.0
118.904 24.0
118.988 17.0
119.072 32.0
119.156 24.0
119.239 27.0
119.323 36.0
119.407 46.0
119.49 36.0
119.574 36.0
119.658 23.0
119.741 34.0
119.825 29.0
119.909 22.0
119.993 28.0
120.076 22.0
120.16 16.0
120.244 34.0
120.327 27.0
120.411 36.0
120.495 34.0
120.578 31.0
120.662 24.0
120.746 29.0
120.83 27.0
120.913 25.0
120.997 27.0
121.081 24.0
121.164 29.0
121.248 22.0
121.332 23.0
121.416 30.0
121.499 36.0
121.583 35.0
121.667 17.0
121.75 21.0
121.834 35.0
121.918 20.0
122.001 27.0
122.085 34.0
122.169 22.0
122.253 30.0
122.336 20.0
122.42 34.0
122.504 30.0
122.587 25.0
122.671 30.0
122.755 26.0
122.839 31.0
122.922 29.0
123.006 35.0
123.09 33.0
123.173 27.0
123.257 14.0
123.341 30.0
123.424 34.0
123.508 33.0
123.592 34.0
123.676 24.0
123.759 26.0
123.843 36.0
123.927 22.0
124.01 30.0
124.094 21.0
124.178 32.0
124.262 25.0
124.345 24.0
124.429 30.0
124.513 25.0
124.596 34.0
124.68 28.0
124.764 23.0
124.847 27.0
124.931 20.0
125.015 19.0
125.099 24.0
125.182 21.0
125.266 21.0
125.35 26.0
125.433 27.0
125.517 34.0
125.601 32.0
125.685 28.0
125.768 38.0
125.852 35.0
125.936 30.0
126.019 25.0
126.103 30.0
126.187 23.0
126.27 34.0
126.354 31.0
126.438 43.0
126.522 22.0
126.605 25.0
126.689 34.0
126.773 29.0
126.856 31.0
126.94 29.0
127.024 34.0
127.108 28.0
127.191 24.0
127.275 26.0
127.359 18.0
127.442 27.0
127.526 25.0
127.61 28.0
127.693 27.0
127.777 29.0
127.861 27.0
127.945 19.0
128.028 27.0
128.112 32.0
128.196 25.0
128.279 28.0
128.363 31.0
128.447 28.0
128.531 39.0
128.614 34.0
128.698 30.0
128.782 30.0
128.865 34.0
128.949 29.0
129.033 42.0
129.116 38.0
129.2 34.0
129.284 27.0
129.368 33.0
129.451 26.0
129.535 35.0
129.619 30.0
129.702 24.0
129.786 21.0
129.87 31.0
129.954 25.0
129.998 26.0