File: data/W6854c/XRD_2ThetaOmega/W6854c_absolute_2th-om_10-130deg_PIXscan_17min_2.xy
10.0035 22.0
10.0872 28.0
10.1709 23.0
10.2546 24.0
10.3383 19.0
10.422 23.0
10.5057 23.0
10.5894 22.0
10.6731 19.0
10.7568 21.0
10.8405 16.0
10.9242 19.0
11.0079 22.0
11.0916 20.0
11.1753 19.0
11.259 24.0
11.3428 23.0
11.4265 19.0
11.5102 23.0
11.5939 17.0
11.6776 24.0
11.7613 22.0
11.845 16.0
11.9287 23.0
12.0124 19.0
12.0961 26.0
12.1798 19.0
12.2635 20.0
12.3472 24.0
12.4309 14.0
12.5146 21.0
12.5983 28.0
12.682 14.0
12.7657 28.0
12.8495 18.0
12.9332 14.0
13.0169 25.0
13.1006 19.0
13.1843 4.0
13.268 26.0
13.3517 17.0
13.4354 21.0
13.5191 19.0
13.6028 17.0
13.6865 15.0
13.7702 14.0
13.8539 22.0
13.9376 16.0
14.0213 14.0
14.105 18.0
14.1887 19.0
14.2724 13.0
14.3562 21.0
14.4399 19.0
14.5236 20.0
14.6073 24.0
14.691 12.0
14.7747 13.0
14.8584 16.0
14.9421 14.0
15.0258 15.0
15.1095 18.0
15.1932 17.0
15.2769 15.0
15.3606 17.0
15.4443 10.0
15.528 21.0
15.6117 18.0
15.6954 21.0
15.7791 21.0
15.8629 9.0
15.9466 15.0
16.0303 8.0
16.114 17.0
16.1977 17.0
16.2814 18.0
16.3651 10.0
16.4488 17.0
16.5325 10.0
16.6162 14.0
16.6999 11.0
16.7836 14.0
16.8673 24.0
16.951 14.0
17.0347 14.0
17.1184 19.0
17.2021 13.0
17.2858 13.0
17.3696 11.0
17.4533 14.0
17.537 16.0
17.6207 18.0
17.7044 13.0
17.7881 11.0
17.8718 9.0
17.9555 9.0
18.0392 12.0
18.1229 12.0
18.2066 13.0
18.2903 15.0
18.374 14.0
18.4577 9.0
18.5414 17.0
18.6251 8.0
18.7088 15.0
18.7925 17.0
18.8763 16.0
18.96 12.0
19.0437 20.0
19.1274 9.0
19.2111 13.0
19.2948 12.0
19.3785 20.0
19.4622 18.0
19.5459 17.0
19.6296 10.0
19.7133 19.0
19.797 7.0
19.8807 10.0
19.9644 9.0
20.0481 13.0
20.1318 9.0
20.2155 15.0
20.2992 18.0
20.383 18.0
20.4667 45.0
20.5504 11.0
20.6341 14.0
20.7178 9.0
20.8015 7.0
20.8852 10.0
20.9689 10.0
21.0526 10.0
21.1363 13.0
21.22 12.0
21.3037 12.0
21.3874 6.0
21.4711 11.0
21.5548 15.0
21.6385 18.0
21.7222 9.0
21.8059 15.0
21.8897 8.0
21.9734 11.0
22.0571 15.0
22.1408 13.0
22.2245 3.0
22.3082 6.0
22.3919 7.0
22.4756 16.0
22.5593 9.0
22.643 13.0
22.7267 10.0
22.8104 11.0
22.8941 12.0
22.9778 8.0
23.0615 14.0
23.1452 13.0
23.2289 8.0
23.3126 12.0
23.3964 3.0
23.4801 8.0
23.5638 9.0
23.6475 9.0
23.7312 10.0
23.8149 11.0
23.8986 10.0
23.9823 2.0
24.066 10.0
24.1497 15.0
24.2334 8.0
24.3171 5.0
24.4008 11.0
24.4845 8.0
24.5682 15.0
24.6519 16.0
24.7356 13.0
24.8193 9.0
24.9031 6.0
24.9868 10.0
25.0705 9.0
25.1542 6.0
25.2379 12.0
25.3216 10.0
25.4053 9.0
25.489 8.0
25.5727 12.0
25.6564 16.0
25.7401 11.0
25.8238 10.0
25.9075 12.0
25.9912 13.0
26.0749 11.0
26.1586 9.0
26.2423 12.0
26.326 12.0
26.4098 14.0
26.4935 10.0
26.5772 5.0
26.6609 10.0
26.7446 16.0
26.8283 6.0
26.912 15.0
26.9957 7.0
27.0794 9.0
27.1631 9.0
27.2468 17.0
27.3305 15.0
27.4142 5.0
27.4979 8.0
27.5816 8.0
27.6653 13.0
27.749 14.0
27.8327 7.0
27.9165 12.0
28.0002 8.0
28.0839 6.0
28.1676 8.0
28.2513 12.0
28.335 7.0
28.4187 12.0
28.5024 6.0
28.5861 9.0
28.6698 9.0
28.7535 16.0
28.8372 7.0
28.9209 9.0
29.0046 19.0
29.0883 2.0
29.172 4.0
29.2557 5.0
29.3394 4.0
29.4232 3.0
29.5069 10.0
29.5906 11.0
29.6743 5.0
29.758 11.0
29.8417 16.0
29.9254 13.0
30.0091 10.0
30.0928 6.0
30.1765 15.0
30.2602 7.0
30.3439 14.0
30.4276 8.0
30.5113 9.0
30.595 5.0
30.6787 9.0
30.7624 7.0
30.8461 8.0
30.9298 5.0
31.0136 9.0
31.0973 8.0
31.181 10.0
31.2647 8.0
31.3484 2.0
31.4321 12.0
31.5158 6.0
31.5995 14.0
31.6832 4.0
31.7669 9.0
31.8506 6.0
31.9343 0.0
32.018 8.0
32.1017 4.0
32.1854 7.0
32.2691 6.0
32.3528 9.0
32.4365 7.0
32.5203 10.0
32.604 9.0
32.6877 7.0
32.7714 9.0
32.8551 8.0
32.9388 11.0
33.0225 8.0
33.1062 6.0
33.1899 11.0
33.2736 6.0
33.3573 11.0
33.441 10.0
33.5247 7.0
33.6084 4.0
33.6921 9.0
33.7758 16.0
33.8595 9.0
33.9432 6.0
34.027 7.0
34.1107 12.0
34.1944 1.0
34.2781 11.0
34.3618 7.0
34.4455 8.0
34.5292 11.0
34.6129 8.0
34.6966 10.0
34.7803 11.0
34.864 3.0
34.9477 12.0
35.0314 13.0
35.1151 6.0
35.1988 8.0
35.2825 7.0
35.3662 10.0
35.4499 10.0
35.5337 14.0
35.6174 7.0
35.7011 3.0
35.7848 14.0
35.8685 9.0
35.9522 5.0
36.0359 8.0
36.1196 7.0
36.2033 11.0
36.287 8.0
36.3707 5.0
36.4544 7.0
36.5381 7.0
36.6218 14.0
36.7055 11.0
36.7892 10.0
36.8729 8.0
36.9566 6.0
37.0404 7.0
37.1241 9.0
37.2078 8.0
37.2915 4.0
37.3752 10.0
37.4589 21.0
37.5426 12.0
37.6263 9.0
37.71 7.0
37.7937 17.0
37.8774 13.0
37.9611 17.0
38.0448 8.0
38.1285 6.0
38.2122 7.0
38.2959 14.0
38.3796 14.0
38.4633 6.0
38.5471 16.0
38.6308 8.0
38.7145 14.0
38.7982 24.0
38.8819 26.0
38.9656 30.0
39.0493 43.0
39.133 43.0
39.2167 61.0
39.3004 100.0
39.3841 168.0
39.4678 351.0
39.5515 578.0
39.6352 652.0
39.7189 398.0
39.8026 191.0
39.8863 86.0
39.97 41.0
40.0538 33.0
40.1375 26.0
40.2212 21.0
40.3049 16.0
40.3886 20.0
40.4723 16.0
40.556 14.0
40.6397 14.0
40.7234 6.0
40.8071 16.0
40.8908 18.0
40.9745 15.0
41.0582 21.0
41.1419 17.0
41.2256 24.0
41.3093 24.0
41.393 50.0
41.4767 64.0
41.5605 338.0
41.6442 4142.0
41.7279 3140.0
41.8116 125.0
41.8953 42.0
41.979 36.0
42.0627 29.0
42.1464 25.0
42.2301 23.0
42.3138 23.0
42.3975 21.0
42.4812 21.0
42.5649 17.0
42.6486 18.0
42.7323 15.0
42.816 18.0
42.8997 15.0
42.9834 19.0
43.0672 12.0
43.1509 13.0
43.2346 17.0
43.3183 14.0
43.402 10.0
43.4857 16.0
43.5694 20.0
43.6531 17.0
43.7368 4.0
43.8205 17.0
43.9042 6.0
43.9879 11.0
44.0716 10.0
44.1553 15.0
44.239 12.0
44.3227 22.0
44.4064 22.0
44.4901 17.0
44.5739 15.0
44.6576 14.0
44.7413 12.0
44.825 5.0
44.9087 10.0
44.9924 9.0
45.0761 17.0
45.1598 10.0
45.2435 6.0
45.3272 10.0
45.4109 13.0
45.4946 12.0
45.5783 14.0
45.662 16.0
45.7457 4.0
45.8294 8.0
45.9131 10.0
45.9968 10.0
46.0806 11.0
46.1643 10.0
46.248 7.0
46.3317 3.0
46.4154 11.0
46.4991 13.0
46.5828 3.0
46.6665 5.0
46.7502 6.0
46.8339 11.0
46.9176 14.0
47.0013 6.0
47.085 9.0
47.1687 14.0
47.2524 9.0
47.3361 13.0
47.4198 9.0
47.5035 8.0
47.5873 8.0
47.671 6.0
47.7547 10.0
47.8384 7.0
47.9221 9.0
48.0058 8.0
48.0895 13.0
48.1732 15.0
48.2569 12.0
48.3406 10.0
48.4243 7.0
48.508 6.0
48.5917 7.0
48.6754 6.0
48.7591 6.0
48.8428 7.0
48.9265 2.0
49.0102 10.0
49.094 6.0
49.1777 12.0
49.2614 10.0
49.3451 10.0
49.4288 4.0
49.5125 17.0
49.5962 6.0
49.6799 10.0
49.7636 7.0
49.8473 12.0
49.931 5.0
50.0147 11.0
50.0984 9.0
50.1821 6.0
50.2658 10.0
50.3495 11.0
50.4332 10.0
50.5169 14.0
50.6007 8.0
50.6844 10.0
50.7681 13.0
50.8518 8.0
50.9355 9.0
51.0192 4.0
51.1029 9.0
51.1866 11.0
51.2703 8.0
51.354 9.0
51.4377 10.0
51.5214 8.0
51.6051 17.0
51.6888 10.0
51.7725 10.0
51.8562 5.0
51.9399 9.0
52.0236 14.0
52.1074 15.0
52.1911 11.0
52.2748 11.0
52.3585 7.0
52.4422 16.0
52.5259 8.0
52.6096 9.0
52.6933 8.0
52.777 13.0
52.8607 9.0
52.9444 6.0
53.0281 13.0
53.1118 10.0
53.1955 7.0
53.2792 11.0
53.3629 7.0
53.4466 14.0
53.5303 12.0
53.6141 6.0
53.6978 12.0
53.7815 8.0
53.8652 11.0
53.9489 8.0
54.0326 9.0
54.1163 4.0
54.2 8.0
54.2837 13.0
54.3674 12.0
54.4511 8.0
54.5348 6.0
54.6185 6.0
54.7022 15.0
54.7859 10.0
54.8696 15.0
54.9533 6.0
55.037 7.0
55.1208 5.0
55.2045 8.0
55.2882 11.0
55.3719 16.0
55.4556 12.0
55.5393 16.0
55.623 8.0
55.7067 7.0
55.7904 7.0
55.8741 11.0
55.9578 15.0
56.0415 10.0
56.1252 9.0
56.2089 9.0
56.2926 11.0
56.3763 7.0
56.46 7.0
56.5437 10.0
56.6275 16.0
56.7112 7.0
56.7949 8.0
56.8786 12.0
56.9623 17.0
57.046 16.0
57.1297 10.0
57.2134 10.0
57.2971 8.0
57.3808 10.0
57.4645 5.0
57.5482 12.0
57.6319 8.0
57.7156 11.0
57.7993 13.0
57.883 11.0
57.9667 8.0
58.0504 12.0
58.1342 13.0
58.2179 10.0
58.3016 16.0
58.3853 13.0
58.469 11.0
58.5527 9.0
58.6364 10.0
58.7201 11.0
58.8038 9.0
58.8875 9.0
58.9712 9.0
59.0549 3.0
59.1386 8.0
59.2223 8.0
59.306 7.0
59.3897 7.0
59.4734 1.0
59.5571 18.0
59.6409 9.0
59.7246 14.0
59.8083 3.0
59.892 9.0
59.9757 8.0
60.0594 6.0
60.1431 3.0
60.2268 8.0
60.3105 8.0
60.3942 10.0
60.4779 10.0
60.5616 9.0
60.6453 10.0
60.729 12.0
60.8127 8.0
60.8964 10.0
60.9801 11.0
61.0638 10.0
61.1476 10.0
61.2313 6.0
61.315 7.0
61.3987 9.0
61.4824 6.0
61.5661 13.0
61.6498 10.0
61.7335 10.0
61.8172 5.0
61.9009 7.0
61.9846 9.0
62.0683 13.0
62.152 8.0
62.2357 13.0
62.3194 16.0
62.4031 7.0
62.4868 10.0
62.5705 16.0
62.6543 9.0
62.738 8.0
62.8217 9.0
62.9054 5.0
62.9891 11.0
63.0728 14.0
63.1565 9.0
63.2402 11.0
63.3239 15.0
63.4076 7.0
63.4913 9.0
63.575 15.0
63.6587 9.0
63.7424 8.0
63.8261 10.0
63.9098 20.0
63.9935 7.0
64.0772 13.0
64.161 11.0
64.2447 14.0
64.3284 9.0
64.4121 9.0
64.4958 16.0
64.5795 9.0
64.6632 13.0
64.7469 9.0
64.8306 9.0
64.9143 9.0
64.998 15.0
65.0817 8.0
65.1654 16.0
65.2491 8.0
65.3328 11.0
65.4165 4.0
65.5002 5.0
65.5839 11.0
65.6677 8.0
65.7514 18.0
65.8351 15.0
65.9188 11.0
66.0025 7.0
66.0862 8.0
66.1699 9.0
66.2536 10.0
66.3373 10.0
66.421 9.0
66.5047 1.0
66.5884 11.0
66.6721 13.0
66.7558 10.0
66.8395 11.0
66.9232 12.0
67.0069 12.0
67.0906 11.0
67.1744 12.0
67.2581 11.0
67.3418 6.0
67.4255 11.0
67.5092 11.0
67.5929 12.0
67.6766 14.0
67.7603 9.0
67.844 5.0
67.9277 9.0
68.0114 20.0
68.0951 11.0
68.1788 8.0
68.2625 9.0
68.3462 4.0
68.4299 10.0
68.5136 13.0
68.5973 9.0
68.6811 5.0
68.7648 10.0
68.8485 10.0
68.9322 17.0
69.0159 13.0
69.0996 12.0
69.1833 11.0
69.267 14.0
69.3507 5.0
69.4344 12.0
69.5181 11.0
69.6018 12.0
69.6855 7.0
69.7692 13.0
69.8529 15.0
69.9366 11.0
70.0203 12.0
70.104 19.0
70.1878 12.0
70.2715 8.0
70.3552 17.0
70.4389 9.0
70.5226 11.0
70.6063 16.0
70.69 9.0
70.7737 18.0
70.8574 10.0
70.9411 10.0
71.0248 8.0
71.1085 5.0
71.1922 10.0
71.2759 6.0
71.3596 10.0
71.4433 9.0
71.527 17.0
71.6107 14.0
71.6945 13.0
71.7782 6.0
71.8619 12.0
71.9456 14.0
72.0293 11.0
72.113 11.0
72.1967 12.0
72.2804 9.0
72.3641 10.0
72.4478 12.0
72.5315 19.0
72.6152 10.0
72.6989 14.0
72.7826 18.0
72.8663 10.0
72.95 11.0
73.0337 9.0
73.1174 12.0
73.2012 15.0
73.2849 5.0
73.3686 13.0
73.4523 11.0
73.536 9.0
73.6197 6.0
73.7034 11.0
73.7871 11.0
73.8708 8.0
73.9545 13.0
74.0382 8.0
74.1219 13.0
74.2056 9.0
74.2893 17.0
74.373 16.0
74.4567 9.0
74.5404 12.0
74.6241 12.0
74.7079 11.0
74.7916 8.0
74.8753 12.0
74.959 7.0
75.0427 15.0
75.1264 9.0
75.2101 10.0
75.2938 13.0
75.3775 11.0
75.4612 5.0
75.5449 11.0
75.6286 10.0
75.7123 15.0
75.796 15.0
75.8797 9.0
75.9634 13.0
76.0471 7.0
76.1308 8.0
76.2146 9.0
76.2983 14.0
76.382 15.0
76.4657 11.0
76.5494 10.0
76.6331 9.0
76.7168 5.0
76.8005 11.0
76.8842 9.0
76.9679 12.0
77.0516 8.0
77.1353 9.0
77.219 8.0
77.3027 10.0
77.3864 17.0
77.4701 6.0
77.5538 13.0
77.6375 11.0
77.7213 10.0
77.805 9.0
77.8887 14.0
77.9724 16.0
78.0561 10.0
78.1398 12.0
78.2235 10.0
78.3072 8.0
78.3909 13.0
78.4746 11.0
78.5583 13.0
78.642 8.0
78.7257 16.0
78.8094 12.0
78.8931 9.0
78.9768 6.0
79.0605 8.0
79.1442 19.0
79.228 13.0
79.3117 9.0
79.3954 13.0
79.4791 8.0
79.5628 9.0
79.6465 11.0
79.7302 13.0
79.8139 7.0
79.8976 10.0
79.9813 30.0
80.065 15.0
80.1487 15.0
80.2324 15.0
80.3161 10.0
80.3998 11.0
80.4835 11.0
80.5672 11.0
80.6509 16.0
80.7347 14.0
80.8184 11.0
80.9021 19.0
80.9858 17.0
81.0695 11.0
81.1532 14.0
81.2369 9.0
81.3206 8.0
81.4043 15.0
81.488 17.0
81.5717 19.0
81.6554 16.0
81.7391 8.0
81.8228 8.0
81.9065 13.0
81.9902 17.0
82.0739 10.0
82.1576 19.0
82.2414 7.0
82.3251 13.0
82.4088 8.0
82.4925 23.0
82.5762 10.0
82.6599 14.0
82.7436 19.0
82.8273 16.0
82.911 8.0
82.9947 13.0
83.0784 11.0
83.1621 10.0
83.2458 16.0
83.3295 12.0
83.4132 14.0
83.4969 10.0
83.5806 13.0
83.6643 11.0
83.7481 12.0
83.8318 16.0
83.9155 14.0
83.9992 12.0
84.0829 8.0
84.1666 15.0
84.2503 26.0
84.334 19.0
84.4177 21.0
84.5014 22.0
84.5851 27.0
84.6688 25.0
84.7525 30.0
84.8362 36.0
84.9199 43.0
85.0036 50.0
85.0873 67.0
85.171 89.0
85.2548 85.0
85.3385 97.0
85.4222 100.0
85.5059 110.0
85.5896 78.0
85.6733 70.0
85.757 59.0
85.8407 69.0
85.9244 62.0
86.0081 55.0
86.0918 31.0
86.1755 33.0
86.2592 21.0
86.3429 19.0
86.4266 10.0
86.5103 10.0
86.594 10.0
86.6777 15.0
86.7615 26.0
86.8452 14.0
86.9289 8.0
87.0126 20.0
87.0963 14.0
87.18 12.0
87.2637 5.0
87.3474 17.0
87.4311 12.0
87.5148 17.0
87.5985 4.0
87.6822 12.0
87.7659 17.0
87.8496 9.0
87.9333 12.0
88.017 10.0
88.1007 13.0
88.1844 12.0
88.2682 13.0
88.3519 14.0
88.4356 10.0
88.5193 12.0
88.603 16.0
88.6867 9.0
88.7704 12.0
88.8541 13.0
88.9378 11.0
89.0215 18.0
89.1052 15.0
89.1889 17.0
89.2726 14.0
89.3563 17.0
89.44 13.0
89.5237 22.0
89.6074 29.0
89.6911 25.0
89.7749 19.0
89.8586 26.0
89.9423 25.0
90.026 25.0
90.1097 45.0
90.1934 54.0
90.2771 61.0
90.3608 52.0
90.4445 92.0
90.5282 168.0
90.6119 1020.0
90.6956 6780.0
90.7793 607.0
90.863 385.0
90.9467 3182.0
91.0304 1000.0
91.1141 152.0
91.1978 84.0
91.2816 54.0
91.3653 46.0
91.449 31.0
91.5327 34.0
91.6164 29.0
91.7001 25.0
91.7838 27.0
91.8675 22.0
91.9512 18.0
92.0349 23.0
92.1186 26.0
92.2023 31.0
92.286 30.0
92.3697 16.0
92.4534 23.0
92.5371 22.0
92.6208 24.0
92.7045 21.0
92.7883 20.0
92.872 23.0
92.9557 19.0
93.0394 14.0
93.1231 13.0
93.2068 21.0
93.2905 19.0
93.3742 21.0
93.4579 19.0
93.5416 13.0
93.6253 17.0
93.709 19.0
93.7927 13.0
93.8764 13.0
93.9601 12.0
94.0438 9.0
94.1275 20.0
94.2112 14.0
94.295 14.0
94.3787 13.0
94.4624 19.0
94.5461 21.0
94.6298 14.0
94.7135 9.0
94.7972 16.0
94.8809 9.0
94.9646 10.0
95.0483 11.0
95.132 14.0
95.2157 10.0
95.2994 10.0
95.3831 18.0
95.4668 12.0
95.5505 5.0
95.6342 19.0
95.7179 10.0
95.8017 9.0
95.8854 12.0
95.9691 11.0
96.0528 7.0
96.1365 14.0
96.2202 14.0
96.3039 19.0
96.3876 13.0
96.4713 15.0
96.555 9.0
96.6387 12.0
96.7224 12.0
96.8061 8.0
96.8898 9.0
96.9735 9.0
97.0572 10.0
97.1409 9.0
97.2246 12.0
97.3084 7.0
97.3921 12.0
97.4758 12.0
97.5595 13.0
97.6432 17.0
97.7269 11.0
97.8106 19.0
97.8943 11.0
97.978 7.0
98.0617 8.0
98.1454 6.0
98.2291 4.0
98.3128 9.0
98.3965 11.0
98.4802 15.0
98.5639 10.0
98.6476 6.0
98.7313 9.0
98.8151 4.0
98.8988 11.0
98.9825 12.0
99.0662 7.0
99.1499 14.0
99.2336 11.0
99.3173 15.0
99.401 14.0
99.4847 20.0
99.5684 16.0
99.6521 15.0
99.7358 10.0
99.8195 11.0
99.9032 11.0
99.9869 14.0
100.071 12.0
100.154 15.0
100.238 13.0
100.322 10.0
100.405 12.0
100.489 10.0
100.573 6.0
100.657 7.0
100.74 13.0
100.824 9.0
100.908 15.0
100.991 13.0
101.075 14.0
101.159 5.0
101.243 2.0
101.326 23.0
101.41 8.0
101.494 14.0
101.577 13.0
101.661 11.0
101.745 14.0
101.828 8.0
101.912 11.0
101.996 12.0
102.08 10.0
102.163 12.0
102.247 12.0
102.331 9.0
102.414 7.0
102.498 8.0
102.582 10.0
102.666 12.0
102.749 12.0
102.833 11.0
102.917 12.0
103 12.0
103.084 8.0
103.168 10.0
103.251 14.0
103.335 12.0
103.419 8.0
103.503 16.0
103.586 11.0
103.67 5.0
103.754 10.0
103.837 15.0
103.921 10.0
104.005 12.0
104.089 10.0
104.172 11.0
104.256 11.0
104.34 10.0
104.423 7.0
104.507 15.0
104.591 10.0
104.674 11.0
104.758 7.0
104.842 13.0
104.926 10.0
105.009 6.0
105.093 8.0
105.177 15.0
105.26 11.0
105.344 9.0
105.428 11.0
105.511 16.0
105.595 11.0
105.679 18.0
105.763 9.0
105.846 15.0
105.93 13.0
106.014 13.0
106.097 14.0
106.181 15.0
106.265 7.0
106.349 12.0
106.432 9.0
106.516 10.0
106.6 7.0
106.683 19.0
106.767 12.0
106.851 11.0
106.934 12.0
107.018 12.0
107.102 12.0
107.186 13.0
107.269 10.0
107.353 7.0
107.437 11.0
107.52 16.0
107.604 12.0
107.688 14.0
107.772 9.0
107.855 13.0
107.939 7.0
108.023 12.0
108.106 12.0
108.19 16.0
108.274 7.0
108.357 10.0
108.441 15.0
108.525 16.0
108.609 11.0
108.692 7.0
108.776 13.0
108.86 9.0
108.943 4.0
109.027 7.0
109.111 10.0
109.195 8.0
109.278 14.0
109.362 7.0
109.446 18.0
109.529 10.0
109.613 16.0
109.697 16.0
109.78 16.0
109.864 11.0
109.948 16.0
110.032 10.0
110.115 15.0
110.199 10.0
110.283 15.0
110.366 5.0
110.45 10.0
110.534 10.0
110.618 14.0
110.701 14.0
110.785 5.0
110.869 13.0
110.952 14.0
111.036 11.0
111.12 12.0
111.203 14.0
111.287 17.0
111.371 12.0
111.455 8.0
111.538 20.0
111.622 11.0
111.706 6.0
111.789 12.0
111.873 6.0
111.957 8.0
112.041 11.0
112.124 9.0
112.208 18.0
112.292 15.0
112.375 17.0
112.459 9.0
112.543 12.0
112.626 9.0
112.71 8.0
112.794 14.0
112.878 14.0
112.961 6.0
113.045 10.0
113.129 8.0
113.212 11.0
113.296 10.0
113.38 8.0
113.464 8.0
113.547 6.0
113.631 13.0
113.715 10.0
113.798 11.0
113.882 13.0
113.966 18.0
114.049 12.0
114.133 13.0
114.217 11.0
114.301 11.0
114.384 15.0
114.468 13.0
114.552 9.0
114.635 15.0
114.719 16.0
114.803 5.0
114.887 12.0
114.97 11.0
115.054 7.0
115.138 21.0
115.221 13.0
115.305 13.0
115.389 12.0
115.472 13.0
115.556 17.0
115.64 8.0
115.724 21.0
115.807 13.0
115.891 15.0
115.975 11.0
116.058 15.0
116.142 12.0
116.226 17.0
116.31 8.0
116.393 13.0
116.477 17.0
116.561 10.0
116.644 19.0
116.728 14.0
116.812 19.0
116.895 11.0
116.979 15.0
117.063 10.0
117.147 11.0
117.23 10.0
117.314 14.0
117.398 20.0
117.481 14.0
117.565 12.0
117.649 17.0
117.733 12.0
117.816 14.0
117.9 10.0
117.984 8.0
118.067 9.0
118.151 10.0
118.235 11.0
118.318 18.0
118.402 13.0
118.486 12.0
118.57 10.0
118.653 13.0
118.737 12.0
118.821 15.0
118.904 11.0
118.988 18.0
119.072 17.0
119.156 15.0
119.239 13.0
119.323 9.0
119.407 22.0
119.49 10.0
119.574 12.0
119.658 18.0
119.741 16.0
119.825 12.0
119.909 18.0
119.993 12.0
120.076 11.0
120.16 18.0
120.244 17.0
120.327 7.0
120.411 10.0
120.495 15.0
120.578 17.0
120.662 12.0
120.746 13.0
120.83 10.0
120.913 8.0
120.997 11.0
121.081 14.0
121.164 18.0
121.248 14.0
121.332 12.0
121.416 11.0
121.499 15.0
121.583 9.0
121.667 11.0
121.75 10.0
121.834 8.0
121.918 12.0
122.001 9.0
122.085 14.0
122.169 18.0
122.253 8.0
122.336 16.0
122.42 11.0
122.504 10.0
122.587 12.0
122.671 12.0
122.755 8.0
122.839 9.0
122.922 13.0
123.006 11.0
123.09 18.0
123.173 10.0
123.257 14.0
123.341 17.0
123.424 14.0
123.508 12.0
123.592 10.0
123.676 11.0
123.759 14.0
123.843 10.0
123.927 8.0
124.01 12.0
124.094 7.0
124.178 15.0
124.262 10.0
124.345 14.0
124.429 18.0
124.513 8.0
124.596 18.0
124.68 13.0
124.764 3.0
124.847 8.0
124.931 10.0
125.015 15.0
125.099 17.0
125.182 15.0
125.266 15.0
125.35 17.0
125.433 19.0
125.517 12.0
125.601 18.0
125.685 8.0
125.768 11.0
125.852 12.0
125.936 10.0
126.019 16.0
126.103 12.0
126.187 13.0
126.27 11.0
126.354 8.0
126.438 10.0
126.522 6.0
126.605 14.0
126.689 10.0
126.773 14.0
126.856 10.0
126.94 11.0
127.024 14.0
127.108 16.0
127.191 14.0
127.275 12.0
127.359 10.0
127.442 17.0
127.526 13.0
127.61 12.0
127.693 13.0
127.777 12.0
127.861 14.0
127.945 11.0
128.028 16.0
128.112 11.0
128.196 15.0
128.279 15.0
128.363 15.0
128.447 10.0
128.531 11.0
128.614 16.0
128.698 11.0
128.782 10.0
128.865 11.0
128.949 12.0
129.033 14.0
129.116 13.0
129.2 13.0
129.284 12.0
129.368 17.0
129.451 11.0
129.535 15.0
129.619 18.0
129.702 14.0
129.786 13.0
129.87 14.0
129.954 18.0
129.998 12.0