File: data/W6815r1/XRD_Omega/w6815r1_scan_omega.xy
22.78330 26.0
22.78830 41.0
22.79330 51.0
22.79830 42.0
22.80330 41.0
22.80830 42.0
22.81330 30.0
22.81830 35.0
22.82330 36.0
22.82830 49.0
22.83330 39.0
22.83830 34.0
22.84330 36.0
22.84830 44.0
22.85330 37.0
22.85830 48.0
22.86330 35.0
22.86830 46.0
22.87330 50.0
22.87830 57.0
22.88330 42.0
22.88830 38.0
22.89330 35.0
22.89830 58.0
22.90330 56.0
22.90830 45.0
22.91330 36.0
22.91830 59.0
22.92330 50.0
22.92830 36.0
22.93330 45.0
22.93830 50.0
22.94330 53.0
22.94830 48.0
22.95330 36.0
22.95830 41.0
22.96330 45.0
22.96830 37.0
22.97330 47.0
22.97830 41.0
22.98330 48.0
22.98830 42.0
22.99330 41.0
22.99830 29.0
23.00330 38.0
23.00830 47.0
23.01330 46.0
23.01830 37.0
23.02330 41.0
23.02830 44.0
23.03330 48.0
23.03830 39.0
23.04330 45.0
23.04830 52.0
23.05330 48.0
23.05830 41.0
23.06330 51.0
23.06830 48.0
23.07330 36.0
23.07830 33.0
23.08330 42.0
23.08830 47.0
23.09330 45.0
23.09830 40.0
23.10330 49.0
23.10830 44.0
23.11330 48.0
23.11830 63.0
23.12330 43.0
23.12830 53.0
23.13330 50.0
23.13830 43.0
23.14330 46.0
23.14830 54.0
23.15330 46.0
23.15830 42.0
23.16330 46.0
23.16830 47.0
23.17330 49.0
23.17830 48.0
23.18330 47.0
23.18830 47.0
23.19330 51.0
23.19830 45.0
23.20330 48.0
23.20830 64.0
23.21330 57.0
23.21830 45.0
23.22330 43.0
23.22830 62.0
23.23330 60.0
23.23830 52.0
23.24330 57.0
23.24830 68.0
23.25330 45.0
23.25830 59.0
23.26330 51.0
23.26830 48.0
23.27330 49.0
23.27830 53.0
23.28330 51.0
23.28830 47.0
23.29330 60.0
23.29830 50.0
23.30330 66.0
23.30830 53.0
23.31330 55.0
23.31830 60.0
23.32330 75.0
23.32830 55.0
23.33330 67.0
23.33830 61.0
23.34330 63.0
23.34830 64.0
23.35330 64.0
23.35830 79.0
23.36330 71.0
23.36830 56.0
23.37330 59.0
23.37830 72.0
23.38330 62.0
23.38830 69.0
23.39330 63.0
23.39830 70.0
23.40330 72.0
23.40830 66.0
23.41330 62.0
23.41830 68.0
23.42330 55.0
23.42830 60.0
23.43330 57.0
23.43830 67.0
23.44330 77.0
23.44830 58.0
23.45330 83.0
23.45830 67.0
23.46330 77.0
23.46830 60.0
23.47330 64.0
23.47830 67.0
23.48330 76.0
23.48830 88.0
23.49330 69.0
23.49830 81.0
23.50330 80.0
23.50830 79.0
23.51330 78.0
23.51830 78.0
23.52330 84.0
23.52830 81.0
23.53330 70.0
23.53830 86.0
23.54330 75.0
23.54830 78.0
23.55330 81.0
23.55830 95.0
23.56330 90.0
23.56830 71.0
23.57330 97.0
23.57830 88.0
23.58330 88.0
23.58830 91.0
23.59330 95.0
23.59830 79.0
23.60330 97.0
23.60830 104.0
23.61330 85.0
23.61830 82.0
23.62330 110.0
23.62830 110.0
23.63330 84.0
23.63830 80.0
23.64330 97.0
23.64830 97.0
23.65330 100.0
23.65830 94.0
23.66330 111.0
23.66830 92.0
23.67330 100.0
23.67830 91.0
23.68330 116.0
23.68830 115.0
23.69330 96.0
23.69830 96.0
23.70330 113.0
23.70830 107.0
23.71330 129.0
23.71830 110.0
23.72330 108.0
23.72830 132.0
23.73330 135.0
23.73830 126.0
23.74330 121.0
23.74830 113.0
23.75330 137.0
23.75830 120.0
23.76330 124.0
23.76830 162.0
23.77330 112.0
23.77830 138.0
23.78330 159.0
23.78830 131.0
23.79330 139.0
23.79830 135.0
23.80330 145.0
23.80830 138.0
23.81330 144.0
23.81830 147.0
23.82330 152.0
23.82830 151.0
23.83330 150.0
23.83830 148.0
23.84330 154.0
23.84830 175.0
23.85330 154.0
23.85830 173.0
23.86330 169.0
23.86830 165.0
23.87330 167.0
23.87830 183.0
23.88330 159.0
23.88830 189.0
23.89330 158.0
23.89830 165.0
23.90330 216.0
23.90830 184.0
23.91330 194.0
23.91830 177.0
23.92330 175.0
23.92830 169.0
23.93330 192.0
23.93830 190.0
23.94330 206.0
23.94830 192.0
23.95330 178.0
23.95830 191.0
23.96330 186.0
23.96830 188.0
23.97330 185.0
23.97830 206.0
23.98330 230.0
23.98830 211.0
23.99330 216.0
23.99830 237.0
24.00330 217.0
24.00830 230.0
24.01330 234.0
24.01830 250.0
24.02330 224.0
24.02830 243.0
24.03330 228.0
24.03830 270.0
24.04330 277.0
24.04830 286.0
24.05330 236.0
24.05830 297.0
24.06330 302.0
24.06830 288.0
24.07330 278.0
24.07830 307.0
24.08330 285.0
24.08830 333.0
24.09330 314.0
24.09830 306.0
24.10330 285.0
24.10830 327.0
24.11330 318.0
24.11830 329.0
24.12330 325.0
24.12830 366.0
24.13330 328.0
24.13830 329.0
24.14330 343.0
24.14830 353.0
24.15330 344.0
24.15830 384.0
24.16330 321.0
24.16830 368.0
24.17330 365.0
24.17830 401.0
24.18330 397.0
24.18830 393.0
24.19330 392.0
24.19830 407.0
24.20330 406.0
24.20830 429.0
24.21330 473.0
24.21830 443.0
24.22330 420.0
24.22830 443.0
24.23330 464.0
24.23830 472.0
24.24330 476.0
24.24830 455.0
24.25330 499.0
24.25830 452.0
24.26330 498.0
24.26830 499.0
24.27330 519.0
24.27830 542.0
24.28330 502.0
24.28830 531.0
24.29330 525.0
24.29830 531.0
24.30330 525.0
24.30830 543.0
24.31330 524.0
24.31830 616.0
24.32330 627.0
24.32830 577.0
24.33330 593.0
24.33830 587.0
24.34330 639.0
24.34830 602.0
24.35330 603.0
24.35830 645.0
24.36330 637.0
24.36830 679.0
24.37330 636.0
24.37830 664.0
24.38330 652.0
24.38830 643.0
24.39330 667.0
24.39830 740.0
24.40330 694.0
24.40830 692.0
24.41330 774.0
24.41830 778.0
24.42330 785.0
24.42830 746.0
24.43330 807.0
24.43830 748.0
24.44330 766.0
24.44830 763.0
24.45330 744.0
24.45830 841.0
24.46330 829.0
24.46830 899.0
24.47330 824.0
24.47830 862.0
24.48330 850.0
24.48830 821.0
24.49330 871.0
24.49830 850.0
24.50330 994.0
24.50830 875.0
24.51330 891.0
24.51830 891.0
24.52330 948.0
24.52830 902.0
24.53330 943.0
24.53830 973.0
24.54330 963.0
24.54830 995.0
24.55330 976.0
24.55830 946.0
24.56330 950.0
24.56830 997.0
24.57330 1030.0
24.57830 1014.0
24.58330 1072.0
24.58830 1001.0
24.59330 1120.0
24.59830 1017.0
24.60330 1047.0
24.60830 1154.0
24.61330 1011.0
24.61830 1193.0
24.62330 1107.0
24.62830 1122.0
24.63330 1160.0
24.63830 1148.0
24.64330 1039.0
24.64830 1140.0
24.65330 1153.0
24.65830 1126.0
24.66330 1142.0
24.66830 1139.0
24.67330 1179.0
24.67830 1210.0
24.68330 1195.0
24.68830 1166.0
24.69330 1207.0
24.69830 1192.0
24.70330 1217.0
24.70830 1268.0
24.71330 1273.0
24.71830 1238.0
24.72330 1271.0
24.72830 1194.0
24.73330 1177.0
24.73830 1259.0
24.74330 1231.0
24.74830 1248.0
24.75330 1246.0
24.75830 1191.0
24.76330 1283.0
24.76830 1276.0
24.77330 1213.0
24.77830 1228.0
24.78330 1229.0
24.78830 1214.0
24.79330 1202.0
24.79830 1232.0
24.80330 1318.0
24.80830 1229.0
24.81330 1203.0
24.81830 1251.0
24.82330 1290.0
24.82830 1209.0
24.83330 1219.0
24.83830 1250.0
24.84330 1171.0
24.84830 1220.0
24.85330 1171.0
24.85830 1210.0
24.86330 1259.0
24.86830 1161.0
24.87330 1307.0
24.87830 1186.0
24.88330 1176.0
24.88830 1207.0
24.89330 1197.0
24.89830 1224.0
24.90330 1172.0
24.90830 1224.0
24.91330 1242.0
24.91830 1275.0
24.92330 1234.0
24.92830 1191.0
24.93330 1266.0
24.93830 1210.0
24.94330 1174.0
24.94830 1151.0
24.95330 1070.0
24.95830 1124.0
24.96330 1168.0
24.96830 1137.0
24.97330 1101.0
24.97830 1078.0
24.98330 1006.0
24.98830 1064.0
24.99330 1015.0
24.99830 1005.0
25.00330 1044.0
25.00830 1049.0
25.01330 1027.0
25.01830 981.0
25.02330 1003.0
25.02830 1001.0
25.03330 943.0
25.03830 971.0
25.04330 885.0
25.04830 952.0
25.05330 891.0
25.05830 910.0
25.06330 930.0
25.06830 917.0
25.07330 854.0
25.07830 881.0
25.08330 887.0
25.08830 827.0
25.09330 872.0
25.09830 883.0
25.10330 868.0
25.10830 818.0
25.11330 780.0
25.11830 760.0
25.12330 815.0
25.12830 725.0
25.13330 793.0
25.13830 779.0
25.14330 787.0
25.14830 768.0
25.15330 775.0
25.15830 735.0
25.16330 701.0
25.16830 708.0
25.17330 666.0
25.17830 726.0
25.18330 694.0
25.18830 697.0
25.19330 664.0
25.19830 635.0
25.20330 638.0
25.20830 688.0
25.21330 635.0
25.21830 628.0
25.22330 658.0
25.22830 632.0
25.23330 573.0
25.23830 591.0
25.24330 643.0
25.24830 577.0
25.25330 585.0
25.25830 546.0
25.26330 573.0
25.26830 500.0
25.27330 543.0
25.27830 538.0
25.28330 526.0
25.28830 545.0
25.29330 522.0
25.29830 484.0
25.30330 507.0
25.30830 489.0
25.31330 466.0
25.31830 503.0
25.32330 504.0
25.32830 469.0
25.33330 434.0
25.33830 403.0
25.34330 499.0
25.34830 431.0
25.35330 413.0
25.35830 409.0
25.36330 409.0
25.36830 437.0
25.37330 415.0
25.37830 435.0
25.38330 423.0
25.38830 367.0
25.39330 396.0
25.39830 387.0
25.40330 348.0
25.40830 339.0
25.41330 347.0
25.41830 320.0
25.42330 344.0
25.42830 366.0
25.43330 322.0
25.43830 350.0
25.44330 324.0
25.44830 347.0
25.45330 281.0
25.45830 329.0
25.46330 305.0
25.46830 305.0
25.47330 307.0
25.47830 276.0
25.48330 303.0
25.48830 272.0
25.49330 265.0
25.49830 289.0
25.50330 275.0
25.50830 289.0
25.51330 250.0
25.51830 282.0
25.52330 226.0
25.52830 245.0
25.53330 304.0
25.53830 257.0
25.54330 250.0
25.54830 238.0
25.55330 232.0
25.55830 243.0
25.56330 243.0
25.56830 238.0
25.57330 202.0
25.57830 217.0
25.58330 224.0
25.58830 201.0
25.59330 213.0
25.59830 208.0
25.60330 212.0
25.60830 198.0
25.61330 195.0
25.61830 210.0
25.62330 189.0
25.62830 174.0
25.63330 175.0
25.63830 204.0
25.64330 176.0
25.64830 177.0
25.65330 175.0
25.65830 185.0
25.66330 179.0
25.66830 167.0
25.67330 167.0
25.67830 177.0
25.68330 179.0
25.68830 164.0
25.69330 164.0
25.69830 175.0
25.70330 160.0
25.70830 157.0
25.71330 145.0
25.71830 147.0
25.72330 134.0
25.72830 154.0
25.73330 180.0
25.73830 140.0
25.74330 143.0
25.74830 136.0
25.75330 145.0
25.75830 137.0
25.76330 109.0
25.76830 137.0
25.77330 119.0
25.77830 127.0
25.78330 134.0
25.78830 112.0
25.79330 138.0
25.79830 108.0
25.80330 111.0
25.80830 134.0
25.81330 144.0
25.81830 128.0
25.82330 114.0
25.82830 115.0
25.83330 127.0
25.83830 127.0
25.84330 135.0
25.84830 111.0
25.85330 126.0
25.85830 112.0
25.86330 107.0
25.86830 94.0
25.87330 122.0
25.87830 97.0
25.88330 101.0
25.88830 87.0
25.89330 121.0
25.89830 114.0
25.90330 106.0
25.90830 80.0
25.91330 91.0
25.91830 91.0
25.92330 96.0
25.92830 79.0
25.93330 92.0
25.93830 84.0
25.94330 102.0
25.94830 99.0
25.95330 97.0
25.95830 81.0
25.96330 90.0
25.96830 87.0
25.97330 54.0
25.97830 79.0
25.98330 85.0
25.98830 85.0
25.99330 89.0
25.99830 92.0
26.00330 76.0
26.00830 75.0
26.01330 72.0
26.01830 92.0
26.02330 78.0
26.02830 82.0
26.03330 86.0
26.03830 75.0
26.04330 78.0
26.04830 63.0
26.05330 69.0
26.05830 56.0
26.06330 84.0
26.06830 76.0
26.07330 64.0
26.07830 93.0
26.08330 77.0
26.08830 83.0
26.09330 87.0
26.09830 74.0
26.10330 66.0
26.10830 64.0
26.11330 57.0
26.11830 63.0
26.12330 74.0
26.12830 80.0
26.13330 66.0
26.13830 71.0
26.14330 77.0
26.14830 68.0
26.15330 69.0
26.15830 58.0
26.16330 68.0
26.16830 68.0
26.17330 46.0
26.17830 57.0
26.18330 74.0
26.18830 69.0
26.19330 54.0
26.19830 69.0
26.20330 55.0
26.20830 53.0
26.21330 57.0
26.21830 51.0
26.22330 61.0
26.22830 52.0
26.23330 62.0
26.23830 59.0
26.24330 56.0
26.24830 63.0
26.25330 49.0
26.25830 46.0
26.26330 61.0
26.26830 63.0
26.27330 63.0
26.27830 56.0
26.28330 46.0
26.28830 43.0
26.29330 56.0
26.29830 39.0
26.30330 46.0
26.30830 49.0
26.31330 45.0
26.31830 54.0
26.32330 50.0
26.32830 53.0
26.33330 44.0
26.33830 40.0
26.34330 50.0
26.34830 51.0
26.35330 44.0
26.35830 54.0
26.36330 46.0
26.36830 41.0
26.37330 44.0
26.37830 46.0
26.38330 48.0
26.38830 38.0
26.39330 47.0
26.39830 55.0
26.40330 45.0
26.40830 41.0
26.41330 48.0
26.41830 51.0
26.42330 40.0
26.42830 39.0
26.43330 39.0
26.43830 50.0
26.44330 48.0
26.44830 50.0
26.45330 53.0
26.45830 43.0
26.46330 48.0
26.46830 35.0
26.47330 46.0
26.47830 48.0
26.48330 58.0
26.48830 48.0
26.49330 38.0
26.49830 42.0
26.50330 34.0
26.50830 37.0
26.51330 38.0
26.51830 37.0
26.52330 38.0
26.52830 44.0
26.53330 36.0
26.53830 45.0
26.54330 39.0
26.54830 41.0
26.55330 33.0
26.55830 38.0
26.56330 36.0
26.56830 35.0
26.57330 51.0
26.57830 39.0
26.58330 45.0
26.58830 29.0
26.59330 52.0
26.59830 44.0
26.60330 40.0
26.60830 44.0
26.61330 23.0
26.61830 36.0
26.62330 43.0
26.62830 34.0
26.63330 34.0
26.63830 31.0
26.64330 43.0
26.64830 45.0
26.65330 46.0
26.65830 47.0
26.66330 45.0
26.66830 42.0
26.67330 33.0
26.67830 39.0
26.68330 42.0
26.68830 33.0
26.69330 26.0
26.69830 29.0
26.70330 41.0
26.70830 40.0
26.71330 32.0
26.71830 33.0
26.72330 33.0
26.72830 34.0
26.73330 42.0
26.73830 35.0
26.74330 28.0
26.74830 32.0
26.75330 39.0