File: data/W6724/XRD_Phi/W6724_Al2O3_phi_360deg_25min_3mm_active_3.xy
-308.185 57.000
-307.935 58.000
-307.685 64.000
-307.435 58.000
-307.185 62.000
-306.935 67.000
-306.685 68.000
-306.435 59.000
-306.185 65.000
-305.935 63.000
-305.685 58.000
-305.435 73.000
-305.185 73.000
-304.935 56.000
-304.685 80.000
-304.435 66.000
-304.185 58.000
-303.935 61.000
-303.685 58.000
-303.435 53.000
-303.185 59.000
-302.935 76.000
-302.685 68.000
-302.435 63.000
-302.185 65.000
-301.935 56.000
-301.685 53.000
-301.435 69.000
-301.185 62.000
-300.935 66.000
-300.685 73.000
-300.435 86.000
-300.185 64.000
-299.935 59.000
-299.685 55.000
-299.435 53.000
-299.185 70.000
-298.935 68.000
-298.685 54.000
-298.435 50.000
-298.185 72.000
-297.935 66.000
-297.685 71.000
-297.435 58.000
-297.185 64.000
-296.935 56.000
-296.685 55.000
-296.435 66.000
-296.185 61.000
-295.935 73.000
-295.685 62.000
-295.435 59.000
-295.185 69.000
-294.935 59.000
-294.685 60.000
-294.435 66.000
-294.185 59.000
-293.935 60.000
-293.685 60.000
-293.435 62.000
-293.185 51.000
-292.935 65.000
-292.685 63.000
-292.435 63.000
-292.185 63.000
-291.935 47.000
-291.685 49.000
-291.435 65.000
-291.185 63.000
-290.935 66.000
-290.685 49.000
-290.435 50.000
-290.185 64.000
-289.935 71.000
-289.685 54.000
-289.435 55.000
-289.185 68.000
-288.935 51.000
-288.685 70.000
-288.435 63.000
-288.185 60.000
-287.935 67.000
-287.685 73.000
-287.435 66.000
-287.185 68.000
-286.935 66.000
-286.685 69.000
-286.435 60.000
-286.185 58.000
-285.935 61.000
-285.685 56.000
-285.435 70.000
-285.185 60.000
-284.935 55.000
-284.685 67.000
-284.435 67.000
-284.185 53.000
-283.935 67.000
-283.685 57.000
-283.435 57.000
-283.185 56.000
-282.935 62.000
-282.685 46.000
-282.435 52.000
-282.185 60.000
-281.935 49.000
-281.685 61.000
-281.435 52.000
-281.185 61.000
-280.935 73.000
-280.685 48.000
-280.435 60.000
-280.185 57.000
-279.935 63.000
-279.685 70.000
-279.435 53.000
-279.185 56.000
-278.935 62.000
-278.685 69.000
-278.435 58.000
-278.185 64.000
-277.935 68.000
-277.685 68.000
-277.435 69.000
-277.185 60.000
-276.935 59.000
-276.685 57.000
-276.435 64.000
-276.185 48.000
-275.935 60.000
-275.685 53.000
-275.435 58.000
-275.185 71.000
-274.935 51.000
-274.685 46.000
-274.435 52.000
-274.185 65.000
-273.935 62.000
-273.685 54.000
-273.435 45.000
-273.185 53.000
-272.935 43.000
-272.685 65.000
-272.435 65.000
-272.185 63.000
-271.935 57.000
-271.685 60.000
-271.435 57.000
-271.185 56.000
-270.935 58.000
-270.685 64.000
-270.435 56.000
-270.185 54.000
-269.935 53.000
-269.685 60.000
-269.435 54.000
-269.185 71.000
-268.935 59.000
-268.685 53.000
-268.435 53.000
-268.185 48.000
-267.935 53.000
-267.685 61.000
-267.435 68.000
-267.185 58.000
-266.935 65.000
-266.685 69.000
-266.435 55.000
-266.185 62.000
-265.935 59.000
-265.685 57.000
-265.435 73.000
-265.185 63.000
-264.935 62.000
-264.685 56.000
-264.435 68.000
-264.185 71.000
-263.935 61.000
-263.685 55.000
-263.435 50.000
-263.185 61.000
-262.935 68.000
-262.685 56.000
-262.435 53.000
-262.185 65.000
-261.935 42.000
-261.685 50.000
-261.435 66.000
-261.185 55.000
-260.935 56.000
-260.685 69.000
-260.435 64.000
-260.185 57.000
-259.935 61.000
-259.685 64.000
-259.435 54.000
-259.185 80.000
-258.935 58.000
-258.685 57.000
-258.435 51.000
-258.185 66.000
-257.935 62.000
-257.685 64.000
-257.435 51.000
-257.185 66.000
-256.935 58.000
-256.685 53.000
-256.435 76.000
-256.185 73.000
-255.935 56.000
-255.685 44.000
-255.435 54.000
-255.185 58.000
-254.935 56.000
-254.685 54.000
-254.435 58.000
-254.185 67.000
-253.935 65.000
-253.685 62.000
-253.435 60.000
-253.185 74.000
-252.935 66.000
-252.685 57.000
-252.435 54.000
-252.185 56.000
-251.935 72.000
-251.685 58.000
-251.435 74.000
-251.185 76.000
-250.935 60.000
-250.685 54.000
-250.435 55.000
-250.185 59.000
-249.935 65.000
-249.685 62.000
-249.435 54.000
-249.185 66.000
-248.935 67.000
-248.685 59.000
-248.435 66.000
-248.185 91.000
-247.935 53.000
-247.685 59.000
-247.435 69.000
-247.185 63.000
-246.935 61.000
-246.685 62.000
-246.435 58.000
-246.185 57.000
-245.935 55.000
-245.685 72.000
-245.435 49.000
-245.185 68.000
-244.935 57.000
-244.685 65.000
-244.435 59.000
-244.185 67.000
-243.935 53.000
-243.685 65.000
-243.435 53.000
-243.185 50.000
-242.935 65.000
-242.685 54.000
-242.435 70.000
-242.185 49.000
-241.935 60.000
-241.685 62.000
-241.435 58.000
-241.185 57.000
-240.935 63.000
-240.685 66.000
-240.435 67.000
-240.185 74.000
-239.935 61.000
-239.685 78.000
-239.435 70.000
-239.185 53.000
-238.935 80.000
-238.685 69.000
-238.435 63.000
-238.185 60.000
-237.935 57.000
-237.685 71.000
-237.435 76.000
-237.185 56.000
-236.935 60.000
-236.685 78.000
-236.435 65.000
-236.185 77.000
-235.935 73.000
-235.685 66.000
-235.435 87.000
-235.185 807.000
-234.935 334.000
-234.685 75.000
-234.435 69.000
-234.185 62.000
-233.935 58.000
-233.685 70.000
-233.435 82.000
-233.185 58.000
-232.935 64.000
-232.685 63.000
-232.435 68.000
-232.185 66.000
-231.935 70.000
-231.685 75.000
-231.435 76.000
-231.185 74.000
-230.935 68.000
-230.685 54.000
-230.435 43.000
-230.185 56.000
-229.935 57.000
-229.685 58.000
-229.435 70.000
-229.185 67.000
-228.935 48.000
-228.685 67.000
-228.435 75.000
-228.185 66.000
-227.935 67.000
-227.685 71.000
-227.435 64.000
-227.185 71.000
-226.935 55.000
-226.685 57.000
-226.435 61.000
-226.185 67.000
-225.935 60.000
-225.685 66.000
-225.435 74.000
-225.185 64.000
-224.935 59.000
-224.685 70.000
-224.435 57.000
-224.185 65.000
-223.935 43.000
-223.685 70.000
-223.435 51.000
-223.185 72.000
-222.935 70.000
-222.685 87.000
-222.435 73.000
-222.185 68.000
-221.935 71.000
-221.685 62.000
-221.435 66.000
-221.185 69.000
-220.935 72.000
-220.685 74.000
-220.435 54.000
-220.185 67.000
-219.935 59.000
-219.685 58.000
-219.435 63.000
-219.185 54.000
-218.935 63.000
-218.685 69.000
-218.435 52.000
-218.185 55.000
-217.935 62.000
-217.685 68.000
-217.435 56.000
-217.185 67.000
-216.935 58.000
-216.685 57.000
-216.435 68.000
-216.185 74.000
-215.935 71.000
-215.685 62.000
-215.435 79.000
-215.185 61.000
-214.935 55.000
-214.685 63.000
-214.435 79.000
-214.185 47.000
-213.935 60.000
-213.685 75.000
-213.435 64.000
-213.185 50.000
-212.935 66.000
-212.685 78.000
-212.435 70.000
-212.185 56.000
-211.935 63.000
-211.685 89.000
-211.435 81.000
-211.185 68.000
-210.935 67.000
-210.685 68.000
-210.435 62.000
-210.185 69.000
-209.935 71.000
-209.685 62.000
-209.435 61.000
-209.185 51.000
-208.935 80.000
-208.685 69.000
-208.435 74.000
-208.185 63.000
-207.935 66.000
-207.685 72.000
-207.435 75.000
-207.185 56.000
-206.935 59.000
-206.685 63.000
-206.435 56.000
-206.185 75.000
-205.935 78.000
-205.685 61.000
-205.435 65.000
-205.185 87.000
-204.935 59.000
-204.685 55.000
-204.435 58.000
-204.185 66.000
-203.935 74.000
-203.685 70.000
-203.435 87.000
-203.185 77.000
-202.935 51.000
-202.685 64.000
-202.435 66.000
-202.185 55.000
-201.935 69.000
-201.685 55.000
-201.435 73.000
-201.185 59.000
-200.935 58.000
-200.685 73.000
-200.435 65.000
-200.185 59.000
-199.935 74.000
-199.685 61.000
-199.435 67.000
-199.185 69.000
-198.935 68.000
-198.685 52.000
-198.435 56.000
-198.185 57.000
-197.935 63.000
-197.685 46.000
-197.435 66.000
-197.185 68.000
-196.935 76.000
-196.685 68.000
-196.435 69.000
-196.185 62.000
-195.935 64.000
-195.685 60.000
-195.435 70.000
-195.185 62.000
-194.935 56.000
-194.685 54.000
-194.435 68.000
-194.185 58.000
-193.935 67.000
-193.685 49.000
-193.435 52.000
-193.185 64.000
-192.935 58.000
-192.685 47.000
-192.435 66.000
-192.185 57.000
-191.935 47.000
-191.685 81.000
-191.435 64.000
-191.185 62.000
-190.935 65.000
-190.685 72.000
-190.435 54.000
-190.185 70.000
-189.935 53.000
-189.685 61.000
-189.435 75.000
-189.185 58.000
-188.935 71.000
-188.685 65.000
-188.435 59.000
-188.185 65.000
-187.935 51.000
-187.685 70.000
-187.435 58.000
-187.185 63.000
-186.935 60.000
-186.685 63.000
-186.435 57.000
-186.185 62.000
-185.935 62.000
-185.685 63.000
-185.435 61.000
-185.185 40.000
-184.935 47.000
-184.685 48.000
-184.435 48.000
-184.185 58.000
-183.935 54.000
-183.685 50.000
-183.435 48.000
-183.185 52.000
-182.935 47.000
-182.685 48.000
-182.435 43.000
-182.185 44.000
-181.935 51.000
-181.685 40.000
-181.435 58.000
-181.185 55.000
-180.935 42.000
-180.685 56.000
-180.435 49.000
-180.185 35.000
-179.935 47.000
-179.685 47.000
-179.435 48.000
-179.185 40.000
-178.935 47.000
-178.685 58.000
-178.435 45.000
-178.185 46.000
-177.935 43.000
-177.685 54.000
-177.435 36.000
-177.185 46.000
-176.935 31.000
-176.685 44.000
-176.435 25.000
-176.185 54.000
-175.935 50.000
-175.685 33.000
-175.435 37.000
-175.185 36.000
-174.935 28.000
-174.685 29.000
-174.435 36.000
-174.185 38.000
-173.935 36.000
-173.685 34.000
-173.435 41.000
-173.185 28.000
-172.935 39.000
-172.685 27.000
-172.435 35.000
-172.185 26.000
-171.935 29.000
-171.685 27.000
-171.435 24.000
-171.185 36.000
-170.935 31.000
-170.685 33.000
-170.435 22.000
-170.185 29.000
-169.935 25.000
-169.685 17.000
-169.435 28.000
-169.185 27.000
-168.935 26.000
-168.685 43.000
-168.435 36.000
-168.185 29.000
-167.935 34.000
-167.685 25.000
-167.435 27.000
-167.185 31.000
-166.935 23.000
-166.685 35.000
-166.435 40.000
-166.185 31.000
-165.935 25.000
-165.685 26.000
-165.435 39.000
-165.185 28.000
-164.935 30.000
-164.685 35.000
-164.435 36.000
-164.185 33.000
-163.935 31.000
-163.685 33.000
-163.435 34.000
-163.185 39.000
-162.935 34.000
-162.685 26.000
-162.435 29.000
-162.185 30.000
-161.935 25.000
-161.685 24.000
-161.435 37.000
-161.185 37.000
-160.935 43.000
-160.685 29.000
-160.435 27.000
-160.185 21.000
-159.935 32.000
-159.685 30.000
-159.435 37.000
-159.185 37.000
-158.935 37.000
-158.685 30.000
-158.435 40.000
-158.185 31.000
-157.935 35.000
-157.685 34.000
-157.435 34.000
-157.185 37.000
-156.935 29.000
-156.685 32.000
-156.435 35.000
-156.185 43.000
-155.935 36.000
-155.685 39.000
-155.435 29.000
-155.185 33.000
-154.935 38.000
-154.685 53.000
-154.435 41.000
-154.185 40.000
-153.935 34.000
-153.685 35.000
-153.435 50.000
-153.185 50.000
-152.935 48.000
-152.685 36.000
-152.435 44.000
-152.185 44.000
-151.935 54.000
-151.685 47.000
-151.435 46.000
-151.185 40.000
-150.935 45.000
-150.685 47.000
-150.435 44.000
-150.185 48.000
-149.935 60.000
-149.685 49.000
-149.435 44.000
-149.185 39.000
-148.935 48.000
-148.685 68.000
-148.435 48.000
-148.185 53.000
-147.935 63.000
-147.685 56.000
-147.435 53.000
-147.185 55.000
-146.935 54.000
-146.685 47.000
-146.435 64.000
-146.185 58.000
-145.935 52.000
-145.685 53.000
-145.435 45.000
-145.185 55.000
-144.935 68.000
-144.685 57.000
-144.435 60.000
-144.185 55.000
-143.935 57.000
-143.685 67.000
-143.435 62.000
-143.185 52.000
-142.935 56.000
-142.685 68.000
-142.435 67.000
-142.185 45.000
-141.935 57.000
-141.685 64.000
-141.435 51.000
-141.185 64.000
-140.935 64.000
-140.685 67.000
-140.435 57.000
-140.185 63.000
-139.935 57.000
-139.685 64.000
-139.435 48.000
-139.185 65.000
-138.935 64.000
-138.685 66.000
-138.435 70.000
-138.185 57.000
-137.935 64.000
-137.685 57.000
-137.435 53.000
-137.185 54.000
-136.935 49.000
-136.685 44.000
-136.435 60.000
-136.185 50.000
-135.935 77.000
-135.685 62.000
-135.435 63.000
-135.185 65.000
-134.935 62.000
-134.685 64.000
-134.435 67.000
-134.185 70.000
-133.935 55.000
-133.685 55.000
-133.435 63.000
-133.185 57.000
-132.935 67.000
-132.685 55.000
-132.435 60.000
-132.185 57.000
-131.935 63.000
-131.685 68.000
-131.435 68.000
-131.185 61.000
-130.935 75.000
-130.685 62.000
-130.435 61.000
-130.185 67.000
-129.935 72.000
-129.685 70.000
-129.435 67.000
-129.185 78.000
-128.935 83.000
-128.685 81.000
-128.435 84.000
-128.185 79.000
-127.935 486.000
-127.685 769.000
-127.435 113.000
-127.185 88.000
-126.935 91.000
-126.685 82.000
-126.435 79.000
-126.185 66.000
-125.935 72.000
-125.685 65.000
-125.435 71.000
-125.185 60.000
-124.935 58.000
-124.685 80.000
-124.435 52.000
-124.185 50.000
-123.935 77.000
-123.685 78.000
-123.435 58.000
-123.185 63.000
-122.935 62.000
-122.685 69.000
-122.435 54.000
-122.185 62.000
-121.935 66.000
-121.685 65.000
-121.435 80.000
-121.185 60.000
-120.935 59.000
-120.685 61.000
-120.435 65.000
-120.185 47.000
-119.935 53.000
-119.685 48.000
-119.435 59.000
-119.185 66.000
-118.935 48.000
-118.685 45.000
-118.435 61.000
-118.185 60.000
-117.935 70.000
-117.685 73.000
-117.435 67.000
-117.185 61.000
-116.935 66.000
-116.685 54.000
-116.435 59.000
-116.185 66.000
-115.935 56.000
-115.685 60.000
-115.435 64.000
-115.185 61.000
-114.935 62.000
-114.685 47.000
-114.435 60.000
-114.185 64.000
-113.935 60.000
-113.685 49.000
-113.435 64.000
-113.185 52.000
-112.935 50.000
-112.685 45.000
-112.435 70.000
-112.185 68.000
-111.935 54.000
-111.685 60.000
-111.435 62.000
-111.185 66.000
-110.935 58.000
-110.685 63.000
-110.435 68.000
-110.185 66.000
-109.935 66.000
-109.685 54.000
-109.435 75.000
-109.185 67.000
-108.935 80.000
-108.685 55.000
-108.435 55.000
-108.185 56.000
-107.935 50.000
-107.685 76.000
-107.435 62.000
-107.185 59.000
-106.935 55.000
-106.685 54.000
-106.435 50.000
-106.185 58.000
-105.935 46.000
-105.685 57.000
-105.435 67.000
-105.185 61.000
-104.935 52.000
-104.685 46.000
-104.435 65.000
-104.185 75.000
-103.935 68.000
-103.685 57.000
-103.435 57.000
-103.185 56.000
-102.935 64.000
-102.685 61.000
-102.435 54.000
-102.185 51.000
-101.935 56.000
-101.685 57.000
-101.435 63.000
-101.185 51.000
-100.935 45.000
-100.685 64.000
-100.435 68.000
-100.185 53.000
-99.93500 61.000
-99.68500 63.000
-99.43500 70.000
-99.18500 69.000
-98.93500 72.000
-98.68500 56.000
-98.43500 64.000
-98.18500 61.000
-97.93500 71.000
-97.68500 59.000
-97.43500 61.000
-97.18500 61.000
-96.93500 50.000
-96.68500 71.000
-96.43500 57.000
-96.18500 66.000
-95.93500 64.000
-95.68500 64.000
-95.43500 57.000
-95.18500 51.000
-94.93500 68.000
-94.68500 51.000
-94.43500 65.000
-94.18500 58.000
-93.93500 51.000
-93.68500 58.000
-93.43500 67.000
-93.18500 65.000
-92.93500 46.000
-92.68500 55.000
-92.43500 56.000
-92.18500 54.000
-91.93500 68.000
-91.68500 53.000
-91.43500 53.000
-91.18500 47.000
-90.93500 64.000
-90.68500 57.000
-90.43500 66.000
-90.18500 60.000
-89.93500 67.000
-89.68500 57.000
-89.43500 68.000
-89.18500 60.000
-88.93500 55.000
-88.68500 48.000
-88.43500 58.000
-88.18500 77.000
-87.93500 64.000
-87.68500 46.000
-87.43500 60.000
-87.18500 54.000
-86.93500 65.000
-86.68500 59.000
-86.43500 64.000
-86.18500 39.000
-85.93500 68.000
-85.68500 51.000
-85.43500 53.000
-85.18500 56.000
-84.93500 54.000
-84.68500 62.000
-84.43500 76.000
-84.18500 71.000
-83.93500 70.000
-83.68500 57.000
-83.43500 54.000
-83.18500 51.000
-82.93500 55.000
-82.68500 71.000
-82.43500 69.000
-82.18500 62.000
-81.93500 43.000
-81.68500 74.000
-81.43500 56.000
-81.18500 64.000
-80.93500 50.000
-80.68500 56.000
-80.43500 64.000
-80.18500 60.000
-79.93500 52.000
-79.68500 63.000
-79.43500 55.000
-79.18500 72.000
-78.93500 72.000
-78.68500 47.000
-78.43500 53.000
-78.18500 64.000
-77.93500 78.000
-77.68500 59.000
-77.43500 56.000
-77.18500 71.000
-76.93500 62.000
-76.68500 64.000
-76.43500 77.000
-76.18500 55.000
-75.93500 61.000
-75.68500 70.000
-75.43500 62.000
-75.18500 69.000
-74.93500 57.000
-74.68500 56.000
-74.43500 70.000
-74.18500 60.000
-73.93500 58.000
-73.68500 51.000
-73.43500 69.000
-73.18500 57.000
-72.93500 65.000
-72.68500 83.000
-72.43500 64.000
-72.18500 72.000
-71.93500 57.000
-71.68500 56.000
-71.43500 75.000
-71.18500 54.000
-70.93500 54.000
-70.68500 73.000
-70.43500 71.000
-70.18500 65.000
-69.93500 54.000
-69.68500 70.000
-69.43500 59.000
-69.18500 54.000
-68.93500 61.000
-68.68500 55.000
-68.43500 66.000
-68.18500 77.000
-67.93500 57.000
-67.68500 64.000
-67.43500 55.000
-67.18500 75.000
-66.93500 73.000
-66.68500 67.000
-66.43500 50.000
-66.18500 77.000
-65.93500 67.000
-65.68500 62.000
-65.43500 68.000
-65.18500 63.000
-64.93500 53.000
-64.68500 75.000
-64.43500 77.000
-64.18500 47.000
-63.93500 58.000
-63.68500 58.000
-63.43500 65.000
-63.18500 52.000
-62.93500 51.000
-62.68500 55.000
-62.43500 61.000
-62.18500 48.000
-61.93500 63.000
-61.68500 50.000
-61.43500 55.000
-61.18500 55.000
-60.93500 67.000
-60.68500 69.000
-60.43500 70.000
-60.18500 54.000
-59.93500 74.000
-59.68500 72.000
-59.43500 50.000
-59.18500 68.000
-58.93500 51.000
-58.68500 64.000
-58.43500 73.000
-58.18500 58.000
-57.93500 60.000
-57.68500 67.000
-57.43500 50.000
-57.18500 54.000
-56.93500 60.000
-56.68500 72.000
-56.43500 65.000
-56.18500 70.000
-55.93500 56.000
-55.68500 66.000
-55.43500 62.000
-55.18500 59.000
-54.93500 56.000
-54.68500 55.000
-54.43500 60.000
-54.18500 63.000
-53.93500 64.000
-53.68500 60.000
-53.43500 55.000
-53.18500 66.000
-52.93500 68.000
-52.68500 67.000
-52.43500 65.000
-52.18500 72.000
-51.93500 64.000
-51.68500 64.000
-51.43500 61.000
-51.18500 74.000
-50.93500 72.000
-50.68500 67.000
-50.43500 65.000
-50.18500 61.000
-49.93500 60.000
-49.68500 66.000
-49.43500 57.000
-49.18500 64.000
-48.93500 67.000
-48.68500 64.000
-48.43500 46.000
-48.18500 60.000
-47.93500 55.000
-47.68500 58.000
-47.43500 66.000
-47.18500 71.000
-46.93500 60.000
-46.68500 63.000
-46.43500 60.000
-46.18500 70.000
-45.93500 66.000
-45.68500 61.000
-45.43500 50.000
-45.18500 60.000
-44.93500 51.000
-44.68500 63.000
-44.43500 52.000
-44.18500 55.000
-43.93500 62.000
-43.68500 68.000
-43.43500 59.000
-43.18500 61.000
-42.93500 72.000
-42.68500 55.000
-42.43500 63.000
-42.18500 56.000
-41.93500 66.000
-41.68500 67.000
-41.43500 69.000
-41.18500 51.000
-40.93500 69.000
-40.68500 65.000
-40.43500 60.000
-40.18500 68.000
-39.93500 59.000
-39.68500 73.000
-39.43500 70.000
-39.18500 68.000
-38.93500 49.000
-38.68500 63.000
-38.43500 62.000
-38.18500 58.000
-37.93500 57.000
-37.68500 69.000
-37.43500 72.000
-37.18500 53.000
-36.93500 67.000
-36.68500 63.000
-36.43500 72.000
-36.18500 61.000
-35.93500 47.000
-35.68500 63.000
-35.43500 57.000
-35.18500 60.000
-34.93500 77.000
-34.68500 77.000
-34.43500 62.000
-34.18500 61.000
-33.93500 65.000
-33.68500 72.000
-33.43500 72.000
-33.18500 55.000
-32.93500 71.000
-32.68500 64.000
-32.43500 59.000
-32.18500 63.000
-31.93500 50.000
-31.68500 56.000
-31.43500 68.000
-31.18500 62.000
-30.93500 71.000
-30.68500 57.000
-30.43500 79.000
-30.18500 64.000
-29.93500 64.000
-29.68500 70.000
-29.43500 71.000
-29.18500 57.000
-28.93500 69.000
-28.68500 76.000
-28.43500 63.000
-28.18500 67.000
-27.93500 81.000
-27.68500 73.000
-27.43500 56.000
-27.18500 66.000
-26.93500 51.000
-26.68500 48.000
-26.43500 67.000
-26.18500 51.000
-25.93500 66.000
-25.68500 69.000
-25.43500 75.000
-25.18500 56.000
-24.93500 57.000
-24.68500 68.000
-24.43500 61.000
-24.18500 56.000
-23.93500 57.000
-23.68500 71.000
-23.43500 74.000
-23.18500 62.000
-22.93500 62.000
-22.68500 78.000
-22.43500 65.000
-22.18500 60.000
-21.93500 62.000
-21.68500 53.000
-21.43500 71.000
-21.18500 66.000
-20.93500 54.000
-20.68500 60.000
-20.43500 61.000
-20.18500 64.000
-19.93500 58.000
-19.68500 66.000
-19.43500 59.000
-19.18500 66.000
-18.93500 65.000
-18.68500 71.000
-18.43500 69.000
-18.18500 58.000
-17.93500 56.000
-17.68500 66.000
-17.43500 60.000
-17.18500 68.000
-16.93500 75.000
-16.68500 59.000
-16.43500 58.000
-16.18500 66.000
-15.93500 65.000
-15.68500 65.000
-15.43500 74.000
-15.18500 72.000
-14.93500 45.000
-14.68500 60.000
-14.43500 71.000
-14.18500 58.000
-13.93500 75.000
-13.68500 56.000
-13.43500 50.000
-13.18500 71.000
-12.93500 58.000
-12.68500 76.000
-12.43500 57.000
-12.18500 54.000
-11.93500 58.000
-11.68500 56.000
-11.43500 52.000
-11.18500 66.000
-10.93500 70.000
-10.68500 62.000
-10.43500 67.000
-10.18500 69.000
-9.93500 48.000
-9.68500 53.000
-9.43500 59.000
-9.18500 53.000
-8.93500 67.000
-8.68500 60.000
-8.43500 54.000
-8.18500 54.000
-7.93500 51.000
-7.68500 47.000
-7.43500 51.000
-7.18500 59.000
-6.93500 48.000
-6.68500 59.000
-6.43500 50.000
-6.18500 56.000
-5.93500 59.000
-5.68500 46.000
-5.43500 62.000
-5.18500 61.000
-4.93500 50.000
-4.68500 51.000
-4.43500 61.000
-4.18500 53.000
-3.93500 52.000
-3.68500 42.000
-3.43500 60.000
-3.18500 48.000
-2.93500 43.000
-2.68500 56.000
-2.43500 73.000
-2.18500 48.000
-1.93500 54.000
-1.68500 59.000
-1.43500 49.000
-1.18500 55.000
-0.93500 47.000
-0.68500 40.000
-0.43500 44.000
-0.18500 53.000
0.06500 46.000
0.31500 56.000
0.56500 40.000
0.81500 52.000
1.06500 58.000
1.31500 47.000
1.56500 48.000
1.81500 51.000
2.06500 47.000
2.31500 48.000
2.56500 53.000
2.81500 57.000
3.06500 47.000
3.31500 39.000
3.56500 61.000
3.81500 56.000
4.06500 48.000
4.31500 58.000
4.56500 35.000
4.81500 37.000
5.06500 33.000
5.31500 43.000
5.56500 29.000
5.81500 41.000
6.06500 22.000
6.31500 47.000
6.56500 37.000
6.81500 38.000
7.06500 38.000
7.31500 38.000
7.56500 33.000
7.81500 28.000
8.06500 38.000
8.31500 33.000
8.56500 22.000
8.81500 21.000
9.06500 41.000
9.31500 26.000
9.56500 39.000
9.81500 27.000
10.06500 23.000
10.31500 25.000
10.56500 28.000
10.81500 31.000
11.06500 34.000
11.31500 27.000
11.56500 26.000
11.81500 30.000
12.06500 37.000
12.31500 25.000
12.56500 17.000
12.81500 27.000
13.06500 27.000
13.31500 33.000
13.56500 34.000
13.81500 29.000
14.06500 30.000
14.31500 35.000
14.56500 30.000
14.81500 31.000
15.06500 26.000
15.31500 37.000
15.56500 26.000
15.81500 40.000
16.06500 29.000
16.31500 35.000
16.56500 27.000
16.81500 26.000
17.06500 30.000
17.31500 44.000
17.56500 43.000
17.81500 21.000
18.06500 33.000
18.31500 32.000
18.56500 32.000
18.81500 28.000
19.06500 40.000
19.31500 32.000
19.56500 38.000
19.81500 31.000
20.06500 33.000
20.31500 30.000
20.56500 32.000
20.81500 25.000
21.06500 30.000
21.31500 36.000
21.56500 40.000
21.81500 31.000
22.06500 26.000
22.31500 34.000
22.56500 29.000
22.81500 46.000
23.06500 41.000
23.31500 50.000
23.56500 28.000
23.81500 40.000
24.06500 29.000
24.31500 39.000
24.56500 41.000
24.81500 42.000
25.06500 37.000
25.31500 42.000
25.56500 50.000
25.81500 56.000
26.06500 48.000
26.31500 52.000
26.56500 37.000
26.81500 49.000
27.06500 49.000
27.31500 44.000
27.56500 44.000
27.81500 42.000
28.06500 41.000
28.31500 44.000
28.56500 44.000
28.81500 46.000
29.06500 54.000
29.31500 31.000
29.56500 60.000
29.81500 57.000
30.06500 43.000
30.31500 48.000
30.56500 47.000
30.81500 50.000
31.06500 48.000
31.31500 47.000
31.56500 42.000
31.81500 65.000
32.06500 59.000
32.31500 48.000
32.56500 55.000
32.81500 65.000
33.06500 57.000
33.31500 51.000
33.56500 60.000
33.81500 76.000
34.06500 51.000
34.31500 57.000
34.56500 67.000
34.81500 56.000
35.06500 67.000
35.31500 68.000
35.56500 69.000
35.81500 51.000
36.06500 57.000
36.31500 56.000
36.56500 56.000
36.81500 51.000
37.06500 60.000
37.31500 69.000
37.56500 66.000
37.81500 57.000
38.06500 59.000
38.31500 53.000
38.56500 65.000
38.81500 73.000
39.06500 62.000
39.31500 66.000
39.56500 61.000
39.81500 60.000
40.06500 62.000
40.31500 60.000
40.56500 64.000
40.81500 51.000
41.06500 66.000
41.31500 72.000
41.56500 70.000
41.81500 67.000
42.06500 59.000
42.31500 59.000
42.56500 62.000
42.81500 76.000
43.06500 68.000
43.31500 59.000
43.56500 70.000
43.81500 70.000
44.06500 65.000
44.31500 65.000
44.56500 52.000
44.81500 64.000
45.06500 61.000
45.31500 65.000
45.56500 57.000
45.81500 71.000
46.06500 62.000
46.31500 51.000
46.56500 64.000
46.81500 61.000
47.06500 56.000
47.31500 66.000
47.56500 67.000
47.81500 69.000
48.06500 67.000
48.31500 75.000
48.56500 65.000
48.81500 55.000
49.06500 60.000
49.31500 52.000
49.56500 58.000
49.81500 60.000
50.06500 59.000
50.31500 59.000
50.56500 63.000
50.81500 50.000
51.06500 73.000
51.31500 62.000
51.56500 53.000
51.71500 77.000