File: data/W6904m/XRD_2ThetaOmega/scan_2th-om_m_Cr2O3_55-75deg_PIXscan_4min_C5.xy
55.0019 127.0
55.0166 136.0
55.0314 117.0
55.0462 121.0
55.0609 135.0
55.0757 136.0
55.0905 143.0
55.1053 129.0
55.12 156.0
55.1348 147.0
55.1496 120.0
55.1643 107.0
55.1791 142.0
55.1939 127.0
55.2087 156.0
55.2234 166.0
55.2382 138.0
55.253 139.0
55.2678 139.0
55.2825 129.0
55.2973 135.0
55.3121 105.0
55.3268 139.0
55.3416 133.0
55.3564 139.0
55.3712 140.0
55.3859 127.0
55.4007 144.0
55.4155 136.0
55.4302 136.0
55.445 155.0
55.4598 139.0
55.4746 128.0
55.4893 139.0
55.5041 137.0
55.5189 139.0
55.5336 137.0
55.5484 142.0
55.5632 153.0
55.578 134.0
55.5927 142.0
55.6075 133.0
55.6223 131.0
55.637 132.0
55.6518 119.0
55.6666 148.0
55.6814 141.0
55.6961 143.0
55.7109 126.0
55.7257 138.0
55.7404 144.0
55.7552 112.0
55.77 136.0
55.7848 133.0
55.7995 136.0
55.8143 143.0
55.8291 136.0
55.8438 113.0
55.8586 129.0
55.8734 135.0
55.8882 153.0
55.9029 152.0
55.9177 124.0
55.9325 143.0
55.9472 144.0
55.962 126.0
55.9768 144.0
55.9916 116.0
56.0063 152.0
56.0211 119.0
56.0359 143.0
56.0506 129.0
56.0654 147.0
56.0802 140.0
56.095 132.0
56.1097 157.0
56.1245 133.0
56.1393 131.0
56.154 135.0
56.1688 130.0
56.1836 121.0
56.1984 122.0
56.2131 152.0
56.2279 123.0
56.2427 116.0
56.2574 120.0
56.2722 119.0
56.287 123.0
56.3018 120.0
56.3165 133.0
56.3313 125.0
56.3461 136.0
56.3608 145.0
56.3756 138.0
56.3904 129.0
56.4052 118.0
56.4199 118.0
56.4347 112.0
56.4495 137.0
56.4642 118.0
56.479 127.0
56.4938 135.0
56.5086 138.0
56.5233 144.0
56.5381 124.0
56.5529 144.0
56.5676 138.0
56.5824 133.0
56.5972 95.0
56.612 131.0
56.6267 141.0
56.6415 125.0
56.6563 146.0
56.671 139.0
56.6858 132.0
56.7006 133.0
56.7154 141.0
56.7301 140.0
56.7449 158.0
56.7597 158.0
56.7745 141.0
56.7892 129.0
56.804 145.0
56.8188 121.0
56.8335 128.0
56.8483 122.0
56.8631 155.0
56.8779 146.0
56.8926 123.0
56.9074 130.0
56.9222 139.0
56.9369 122.0
56.9517 130.0
56.9665 126.0
56.9813 128.0
56.996 141.0
57.0108 138.0
57.0256 128.0
57.0403 117.0
57.0551 130.0
57.0699 142.0
57.0847 130.0
57.0994 129.0
57.1142 128.0
57.129 117.0
57.1437 122.0
57.1585 135.0
57.1733 128.0
57.1881 127.0
57.2028 129.0
57.2176 147.0
57.2324 125.0
57.2471 128.0
57.2619 128.0
57.2767 146.0
57.2915 135.0
57.3062 119.0
57.321 113.0
57.3358 152.0
57.3505 133.0
57.3653 122.0
57.3801 154.0
57.3949 148.0
57.4096 117.0
57.4244 138.0
57.4392 138.0
57.4539 119.0
57.4687 143.0
57.4835 147.0
57.4983 110.0
57.513 157.0
57.5278 127.0
57.5426 138.0
57.5573 141.0
57.5721 131.0
57.5869 150.0
57.6017 139.0
57.6164 142.0
57.6312 130.0
57.646 149.0
57.6607 135.0
57.6755 126.0
57.6903 137.0
57.7051 173.0
57.7198 154.0
57.7346 134.0
57.7494 140.0
57.7641 151.0
57.7789 128.0
57.7937 127.0
57.8085 153.0
57.8232 136.0
57.838 125.0
57.8528 129.0
57.8675 147.0
57.8823 136.0
57.8971 139.0
57.9119 142.0
57.9266 135.0
57.9414 144.0
57.9562 134.0
57.9709 140.0
57.9857 157.0
58.0005 133.0
58.0153 114.0
58.03 132.0
58.0448 150.0
58.0596 154.0
58.0743 129.0
58.0891 142.0
58.1039 155.0
58.1187 142.0
58.1334 141.0
58.1482 115.0
58.163 128.0
58.1777 125.0
58.1925 142.0
58.2073 129.0
58.2221 122.0
58.2368 137.0
58.2516 141.0
58.2664 141.0
58.2812 122.0
58.2959 137.0
58.3107 118.0
58.3255 143.0
58.3402 140.0
58.355 121.0
58.3698 129.0
58.3846 136.0
58.3993 124.0
58.4141 117.0
58.4289 121.0
58.4436 153.0
58.4584 138.0
58.4732 136.0
58.488 147.0
58.5027 149.0
58.5175 124.0
58.5323 131.0
58.547 142.0
58.5618 133.0
58.5766 144.0
58.5914 123.0
58.6061 135.0
58.6209 117.0
58.6357 140.0
58.6504 131.0
58.6652 138.0
58.68 133.0
58.6948 124.0
58.7095 119.0
58.7243 150.0
58.7391 125.0
58.7538 139.0
58.7686 114.0
58.7834 139.0
58.7982 126.0
58.8129 134.0
58.8277 142.0
58.8425 152.0
58.8572 119.0
58.872 131.0
58.8868 137.0
58.9016 133.0
58.9163 114.0
58.9311 130.0
58.9459 131.0
58.9606 146.0
58.9754 156.0
58.9902 139.0
59.005 141.0
59.0197 119.0
59.0345 122.0
59.0493 147.0
59.064 146.0
59.0788 129.0
59.0936 142.0
59.1084 166.0
59.1231 136.0
59.1379 136.0
59.1527 118.0
59.1674 134.0
59.1822 135.0
59.197 138.0
59.2118 135.0
59.2265 112.0
59.2413 132.0
59.2561 133.0
59.2708 141.0
59.2856 145.0
59.3004 122.0
59.3152 144.0
59.3299 140.0
59.3447 135.0
59.3595 135.0
59.3742 135.0
59.389 129.0
59.4038 142.0
59.4186 150.0
59.4333 133.0
59.4481 122.0
59.4629 133.0
59.4776 152.0
59.4924 127.0
59.5072 136.0
59.522 125.0
59.5367 145.0
59.5515 133.0
59.5663 138.0
59.581 153.0
59.5958 153.0
59.6106 148.0
59.6254 143.0
59.6401 143.0
59.6549 136.0
59.6697 139.0
59.6844 124.0
59.6992 143.0
59.714 140.0
59.7288 132.0
59.7435 137.0
59.7583 127.0
59.7731 143.0
59.7878 137.0
59.8026 138.0
59.8174 136.0
59.8322 150.0
59.8469 118.0
59.8617 148.0
59.8765 146.0
59.8913 122.0
59.906 165.0
59.9208 155.0
59.9356 135.0
59.9503 135.0
59.9651 148.0
59.9799 140.0
59.9947 125.0
60.0094 135.0
60.0242 138.0
60.039 142.0
60.0537 133.0
60.0685 149.0
60.0833 131.0
60.0981 127.0
60.1128 145.0
60.1276 123.0
60.1424 141.0
60.1571 166.0
60.1719 154.0
60.1867 118.0
60.2015 135.0
60.2162 129.0
60.231 125.0
60.2458 162.0
60.2605 172.0
60.2753 169.0
60.2901 172.0
60.3049 141.0
60.3196 146.0
60.3344 144.0
60.3492 158.0
60.3639 172.0
60.3787 146.0
60.3935 169.0
60.4083 147.0
60.423 133.0
60.4378 144.0
60.4526 162.0
60.4673 161.0
60.4821 157.0
60.4969 141.0
60.5117 151.0
60.5264 154.0
60.5412 126.0
60.556 152.0
60.5707 161.0
60.5855 173.0
60.6003 146.0
60.6151 157.0
60.6298 162.0
60.6446 174.0
60.6594 168.0
60.6741 181.0
60.6889 163.0
60.7037 199.0
60.7185 216.0
60.7332 200.0
60.748 259.0
60.7628 266.0
60.7775 375.0
60.7923 514.0
60.8071 774.0
60.8219 1126.0
60.8366 1265.0
60.8514 1293.0
60.8662 1135.0
60.8809 832.0
60.8957 672.0
60.9105 650.0
60.9253 592.0
60.94 512.0
60.9548 368.0
60.9696 291.0
60.9843 282.0
60.9991 218.0
61.0139 214.0
61.0287 197.0
61.0434 207.0
61.0582 166.0
61.073 183.0
61.0877 156.0
61.1025 156.0
61.1173 151.0
61.1321 178.0
61.1468 152.0
61.1616 154.0
61.1764 152.0
61.1911 151.0
61.2059 183.0
61.2207 138.0
61.2355 157.0
61.2502 163.0
61.265 166.0
61.2798 163.0
61.2945 159.0
61.3093 150.0
61.3241 150.0
61.3389 142.0
61.3536 152.0
61.3684 141.0
61.3832 152.0
61.398 147.0
61.4127 152.0
61.4275 142.0
61.4423 143.0
61.457 148.0
61.4718 148.0
61.4866 166.0
61.5014 162.0
61.5161 152.0
61.5309 169.0
61.5457 164.0
61.5604 152.0
61.5752 166.0
61.59 154.0
61.6048 121.0
61.6195 151.0
61.6343 168.0
61.6491 146.0
61.6638 165.0
61.6786 150.0
61.6934 165.0
61.7082 162.0
61.7229 169.0
61.7377 147.0
61.7525 146.0
61.7672 156.0
61.782 146.0
61.7968 145.0
61.8116 173.0
61.8263 135.0
61.8411 156.0
61.8559 167.0
61.8706 152.0
61.8854 164.0
61.9002 139.0
61.915 134.0
61.9297 167.0
61.9445 132.0
61.9593 170.0
61.974 167.0
61.9888 143.0
62.0036 156.0
62.0184 150.0
62.0331 158.0
62.0479 141.0
62.0627 148.0
62.0774 152.0
62.0922 171.0
62.107 162.0
62.1218 147.0
62.1365 170.0
62.1513 149.0
62.1661 141.0
62.1808 161.0
62.1956 149.0
62.2104 169.0
62.2252 159.0
62.2399 156.0
62.2547 151.0
62.2695 153.0
62.2842 152.0
62.299 164.0
62.3138 183.0
62.3286 167.0
62.3433 151.0
62.3581 161.0
62.3729 137.0
62.3876 153.0
62.4024 137.0
62.4172 158.0
62.432 169.0
62.4467 154.0
62.4615 144.0
62.4763 124.0
62.491 183.0
62.5058 149.0
62.5206 151.0
62.5354 152.0
62.5501 146.0
62.5649 142.0
62.5797 154.0
62.5944 165.0
62.6092 154.0
62.624 163.0
62.6388 176.0
62.6535 160.0
62.6683 163.0
62.6831 164.0
62.6978 137.0
62.7126 151.0
62.7274 143.0
62.7422 130.0
62.7569 135.0
62.7717 133.0
62.7865 177.0
62.8012 168.0
62.816 167.0
62.8308 161.0
62.8456 161.0
62.8603 171.0
62.8751 136.0
62.8899 148.0
62.9047 148.0
62.9194 161.0
62.9342 162.0
62.949 153.0
62.9637 157.0
62.9785 143.0
62.9933 169.0
63.0081 189.0
63.0228 154.0
63.0376 165.0
63.0524 150.0
63.0671 160.0
63.0819 159.0
63.0967 193.0
63.1115 143.0
63.1262 160.0
63.141 169.0
63.1558 152.0
63.1705 164.0
63.1853 170.0
63.2001 156.0
63.2149 174.0
63.2296 156.0
63.2444 148.0
63.2592 171.0
63.2739 152.0
63.2887 156.0
63.3035 164.0
63.3183 159.0
63.333 167.0
63.3478 184.0
63.3626 149.0
63.3773 162.0
63.3921 166.0
63.4069 178.0
63.4217 170.0
63.4364 165.0
63.4512 155.0
63.466 158.0
63.4807 152.0
63.4955 168.0
63.5103 185.0
63.5251 168.0
63.5398 195.0
63.5546 183.0
63.5694 161.0
63.5841 192.0
63.5989 182.0
63.6137 186.0
63.6285 196.0
63.6432 176.0
63.658 161.0
63.6728 182.0
63.6875 177.0
63.7023 184.0
63.7171 189.0
63.7319 192.0
63.7466 192.0
63.7614 168.0
63.7762 189.0
63.7909 212.0
63.8057 172.0
63.8205 212.0
63.8353 173.0
63.85 190.0
63.8648 201.0
63.8796 198.0
63.8943 181.0
63.9091 180.0
63.9239 170.0
63.9387 179.0
63.9534 188.0
63.9682 211.0
63.983 192.0
63.9977 208.0
64.0125 211.0
64.0273 176.0
64.0421 209.0
64.0568 218.0
64.0716 191.0
64.0864 215.0
64.1011 224.0
64.1159 194.0
64.1307 239.0
64.1455 228.0
64.1602 202.0
64.175 224.0
64.1898 239.0
64.2045 239.0
64.2193 269.0
64.2341 220.0
64.2489 235.0
64.2636 258.0
64.2784 267.0
64.2932 297.0
64.3079 281.0
64.3227 305.0
64.3375 270.0
64.3523 308.0
64.367 322.0
64.3818 337.0
64.3966 308.0
64.4114 308.0
64.4261 326.0
64.4409 358.0
64.4557 354.0
64.4704 370.0
64.4852 378.0
64.5 444.0
64.5148 414.0
64.5295 486.0
64.5443 503.0
64.5591 535.0
64.5738 575.0
64.5886 619.0
64.6034 598.0
64.6182 657.0
64.6329 615.0
64.6477 711.0
64.6625 792.0
64.6772 805.0
64.692 858.0
64.7068 902.0
64.7216 906.0
64.7363 1038.0
64.7511 1002.0
64.7659 978.0
64.7806 1058.0
64.7954 1106.0
64.8102 1043.0
64.825 1120.0
64.8397 1113.0
64.8545 1125.0
64.8693 1166.0
64.884 1196.0
64.8988 1179.0
64.9136 1162.0
64.9284 1177.0
64.9431 1082.0
64.9579 1124.0
64.9727 1117.0
64.9874 1076.0
65.0022 1049.0
65.017 1061.0
65.0318 971.0
65.0465 952.0
65.0613 903.0
65.0761 863.0
65.0908 849.0
65.1056 718.0
65.1204 753.0
65.1352 739.0
65.1499 660.0
65.1647 622.0
65.1795 624.0
65.1942 603.0
65.209 552.0
65.2238 537.0
65.2386 502.0
65.2533 443.0
65.2681 455.0
65.2829 398.0
65.2976 356.0
65.3124 366.0
65.3272 380.0
65.342 335.0
65.3567 353.0
65.3715 327.0
65.3863 272.0
65.401 288.0
65.4158 276.0
65.4306 289.0
65.4454 296.0
65.4601 271.0
65.4749 273.0
65.4897 239.0
65.5044 245.0
65.5192 223.0
65.534 278.0
65.5488 237.0
65.5635 256.0
65.5783 232.0
65.5931 261.0
65.6078 223.0
65.6226 196.0
65.6374 271.0
65.6522 213.0
65.6669 232.0
65.6817 211.0
65.6965 226.0
65.7112 227.0
65.726 206.0
65.7408 204.0
65.7556 222.0
65.7703 215.0
65.7851 219.0
65.7999 209.0
65.8146 207.0
65.8294 222.0
65.8442 218.0
65.859 223.0
65.8737 212.0
65.8885 204.0
65.9033 225.0
65.9181 179.0
65.9328 207.0
65.9476 213.0
65.9624 228.0
65.9771 255.0
65.9919 215.0
66.0067 255.0
66.0215 234.0
66.0362 265.0
66.051 231.0
66.0658 234.0
66.0805 271.0
66.0953 217.0
66.1101 265.0
66.1249 235.0
66.1396 222.0
66.1544 227.0
66.1692 233.0
66.1839 230.0
66.1987 263.0
66.2135 325.0
66.2283 268.0
66.243 289.0
66.2578 280.0
66.2726 288.0
66.2873 312.0
66.3021 270.0
66.3169 290.0
66.3317 291.0
66.3464 289.0
66.3612 305.0
66.376 272.0
66.3907 298.0
66.4055 329.0
66.4203 318.0
66.4351 336.0
66.4498 336.0
66.4646 297.0
66.4794 278.0
66.4941 315.0
66.5089 332.0
66.5237 336.0
66.5385 330.0
66.5532 335.0
66.568 329.0
66.5828 336.0
66.5975 345.0
66.6123 333.0
66.6271 356.0
66.6419 373.0
66.6566 392.0
66.6714 370.0
66.6862 359.0
66.7009 361.0
66.7157 382.0
66.7305 369.0
66.7453 391.0
66.76 376.0
66.7748 415.0
66.7896 368.0
66.8043 398.0
66.8191 430.0
66.8339 367.0
66.8487 420.0
66.8634 444.0
66.8782 433.0
66.893 439.0
66.9077 426.0
66.9225 412.0
66.9373 411.0
66.9521 405.0
66.9668 446.0
66.9816 441.0
66.9964 460.0
67.0111 501.0
67.0259 431.0
67.0407 494.0
67.0555 491.0
67.0702 502.0
67.085 503.0
67.0998 499.0
67.1145 476.0
67.1293 492.0
67.1441 524.0
67.1589 515.0
67.1736 543.0
67.1884 509.0
67.2032 580.0
67.2179 569.0
67.2327 598.0
67.2475 551.0
67.2623 628.0
67.277 606.0
67.2918 633.0
67.3066 647.0
67.3213 599.0
67.3361 653.0
67.3509 660.0
67.3657 644.0
67.3804 636.0
67.3952 701.0
67.41 704.0
67.4248 706.0
67.4395 692.0
67.4543 728.0
67.4691 773.0
67.4838 783.0
67.4986 822.0
67.5134 770.0
67.5282 866.0
67.5429 859.0
67.5577 904.0
67.5725 900.0
67.5872 926.0
67.602 933.0
67.6168 989.0
67.6316 1018.0
67.6463 1074.0
67.6611 1082.0
67.6759 1177.0
67.6906 1281.0
67.7054 1350.0
67.7202 1483.0
67.735 1725.0
67.7497 1853.0
67.7645 2153.0
67.7793 2419.0
67.794 2740.0
67.8088 3046.0
67.8236 3344.0
67.8384 3473.0
67.8531 3526.0
67.8679 3541.0
67.8827 3609.0
67.8974 3501.0
67.9122 3385.0
67.927 3461.0
67.9418 3671.0
67.9565 3893.0
67.9713 4487.0
67.9861 4835.0
68.0008 5550.0
68.0156 6669.0
68.0304 7771.0
68.0452 9888.0
68.0599 12811.0
68.0747 17078.0
68.0895 24180.0
68.1042 38106.0
68.119 73994.0
68.1338 182208.0
68.1486 294015.0
68.1633 338585.0
68.1781 320526.0
68.1929 209758.0
68.2076 102271.0
68.2224 50667.0
68.2372 32850.0
68.252 22526.0
68.2667 19514.0
68.2815 20765.0
68.2963 27644.0
68.311 43588.0
68.3258 89513.0
68.3406 148006.0
68.3554 165408.0
68.3701 160192.0
68.3849 115745.0
68.3997 57049.0
68.4144 30477.0
68.4292 18874.0
68.444 11658.0
68.4588 9297.0
68.4735 7274.0
68.4883 6005.0
68.5031 5354.0
68.5178 4435.0
68.5326 4159.0
68.5474 3682.0
68.5622 3467.0
68.5769 3112.0
68.5917 2891.0
68.6065 2765.0
68.6212 2485.0
68.636 2245.0
68.6508 2165.0
68.6656 2032.0
68.6803 1904.0
68.6951 1825.0
68.7099 1737.0
68.7246 1646.0
68.7394 1623.0
68.7542 1487.0
68.769 1402.0
68.7837 1397.0
68.7985 1344.0
68.8133 1277.0
68.828 1123.0
68.8428 1135.0
68.8576 1021.0
68.8724 1077.0
68.8871 1049.0
68.9019 949.0
68.9167 942.0
68.9315 953.0
68.9462 907.0
68.961 878.0
68.9758 861.0
68.9905 846.0
69.0053 785.0
69.0201 768.0
69.0349 767.0
69.0496 689.0
69.0644 688.0
69.0792 703.0
69.0939 654.0
69.1087 696.0
69.1235 587.0
69.1383 652.0
69.153 597.0
69.1678 561.0
69.1826 563.0
69.1973 584.0
69.2121 552.0
69.2269 553.0
69.2417 533.0
69.2564 560.0
69.2712 489.0
69.286 460.0
69.3007 455.0
69.3155 481.0
69.3303 406.0
69.3451 423.0
69.3598 445.0
69.3746 449.0
69.3894 398.0
69.4041 434.0
69.4189 381.0
69.4337 426.0
69.4485 420.0
69.4632 405.0
69.478 361.0
69.4928 367.0
69.5075 349.0
69.5223 354.0
69.5371 377.0
69.5519 353.0
69.5666 300.0
69.5814 330.0
69.5962 315.0
69.6109 314.0
69.6257 318.0
69.6405 310.0
69.6553 321.0
69.67 270.0
69.6848 306.0
69.6996 290.0
69.7143 278.0
69.7291 271.0
69.7439 239.0
69.7587 291.0
69.7734 269.0
69.7882 227.0
69.803 267.0
69.8177 285.0
69.8325 229.0
69.8473 230.0
69.8621 234.0
69.8768 227.0
69.8916 263.0
69.9064 222.0
69.9211 216.0
69.9359 217.0
69.9507 262.0
69.9655 214.0
69.9802 222.0
69.995 214.0
70.0098 209.0
70.0245 234.0
70.0393 205.0
70.0541 211.0
70.0689 211.0
70.0836 224.0
70.0984 230.0
70.1132 205.0
70.1279 189.0
70.1427 203.0
70.1575 236.0
70.1723 196.0
70.187 204.0
70.2018 220.0
70.2166 186.0
70.2313 205.0
70.2461 198.0
70.2609 198.0
70.2757 227.0
70.2904 230.0
70.3052 212.0
70.32 164.0
70.3347 199.0
70.3495 204.0
70.3643 189.0
70.3791 178.0
70.3938 198.0
70.4086 167.0
70.4234 199.0
70.4382 192.0
70.4529 165.0
70.4677 187.0
70.4825 198.0
70.4972 185.0
70.512 203.0
70.5268 180.0
70.5416 204.0
70.5563 176.0
70.5711 169.0
70.5859 177.0
70.6006 184.0
70.6154 182.0
70.6302 199.0
70.645 182.0
70.6597 181.0
70.6745 170.0
70.6893 198.0
70.704 171.0
70.7188 183.0
70.7336 194.0
70.7484 187.0
70.7631 165.0
70.7779 162.0
70.7927 183.0
70.8074 156.0
70.8222 180.0
70.837 178.0
70.8518 179.0
70.8665 148.0
70.8813 171.0
70.8961 175.0
70.9108 183.0
70.9256 183.0
70.9404 183.0
70.9552 175.0
70.9699 171.0
70.9847 182.0
70.9995 184.0
71.0142 160.0
71.029 147.0
71.0438 170.0
71.0586 153.0
71.0733 159.0
71.0881 161.0
71.1029 158.0
71.1176 149.0
71.1324 166.0
71.1472 166.0
71.162 164.0
71.1767 191.0
71.1915 171.0
71.2063 185.0
71.221 179.0
71.2358 171.0
71.2506 175.0
71.2654 164.0
71.2801 166.0
71.2949 159.0
71.3097 177.0
71.3244 161.0
71.3392 151.0
71.354 163.0
71.3688 170.0
71.3835 184.0
71.3983 174.0
71.4131 162.0
71.4278 171.0
71.4426 176.0
71.4574 156.0
71.4722 155.0
71.4869 138.0
71.5017 162.0
71.5165 141.0
71.5312 149.0
71.546 177.0
71.5608 176.0
71.5756 176.0
71.5903 164.0
71.6051 169.0
71.6199 159.0
71.6346 147.0
71.6494 142.0
71.6642 152.0
71.679 158.0
71.6937 149.0
71.7085 173.0
71.7233 159.0
71.738 139.0
71.7528 143.0
71.7676 170.0
71.7824 157.0
71.7971 155.0
71.8119 150.0
71.8267 154.0
71.8414 151.0
71.8562 149.0
71.871 158.0
71.8858 145.0
71.9005 154.0
71.9153 170.0
71.9301 144.0
71.9449 165.0
71.9596 137.0
71.9744 145.0
71.9892 143.0
72.0039 147.0
72.0187 146.0
72.0335 151.0
72.0483 164.0
72.063 146.0
72.0778 146.0
72.0926 142.0
72.1073 157.0
72.1221 138.0
72.1369 140.0
72.1517 141.0
72.1664 153.0
72.1812 144.0
72.196 148.0
72.2107 170.0
72.2255 153.0
72.2403 158.0
72.2551 162.0
72.2698 150.0
72.2846 163.0
72.2994 152.0
72.3141 137.0
72.3289 147.0
72.3437 129.0
72.3585 160.0
72.3732 133.0
72.388 154.0
72.4028 163.0
72.4175 152.0
72.4323 137.0
72.4471 145.0
72.4619 154.0
72.4766 140.0
72.4914 145.0
72.5062 146.0
72.5209 145.0
72.5357 135.0
72.5505 158.0
72.5653 162.0
72.58 165.0
72.5948 152.0
72.6096 137.0
72.6243 139.0
72.6391 129.0
72.6539 145.0
72.6687 154.0
72.6834 156.0
72.6982 173.0
72.713 157.0
72.7277 147.0
72.7425 130.0
72.7573 133.0
72.7721 134.0
72.7868 147.0
72.8016 122.0
72.8164 181.0
72.8311 137.0
72.8459 145.0
72.8607 134.0
72.8755 139.0
72.8902 171.0
72.905 152.0
72.9198 166.0
72.9345 158.0
72.9493 142.0
72.9641 144.0
72.9789 161.0
72.9936 147.0
73.0084 152.0
73.0232 149.0
73.0379 137.0
73.0527 144.0
73.0675 151.0
73.0823 147.0
73.097 161.0
73.1118 156.0
73.1266 142.0
73.1413 144.0
73.1561 132.0
73.1709 153.0
73.1857 164.0
73.2004 123.0
73.2152 142.0
73.23 161.0
73.2447 149.0
73.2595 134.0
73.2743 131.0
73.2891 147.0
73.3038 141.0
73.3186 145.0
73.3334 139.0
73.3481 156.0
73.3629 148.0
73.3777 145.0
73.3925 129.0
73.4072 133.0
73.422 144.0
73.4368 132.0
73.4516 150.0
73.4663 146.0
73.4811 149.0
73.4959 136.0
73.5106 133.0
73.5254 136.0
73.5402 134.0
73.555 144.0
73.5697 152.0
73.5845 152.0
73.5993 158.0
73.614 148.0
73.6288 165.0
73.6436 140.0
73.6584 141.0
73.6731 154.0
73.6879 143.0
73.7027 146.0
73.7174 146.0
73.7322 125.0
73.747 150.0
73.7618 137.0
73.7765 141.0
73.7913 136.0
73.8061 152.0
73.8208 149.0
73.8356 161.0
73.8504 136.0
73.8652 117.0
73.8799 130.0
73.8947 142.0
73.9095 123.0
73.9242 146.0
73.939 148.0
73.9538 151.0
73.9686 128.0
73.9833 167.0
73.9981 138.0
74.0129 149.0
74.0276 141.0
74.0424 136.0
74.0572 155.0
74.072 147.0
74.0867 154.0
74.1015 146.0
74.1163 144.0
74.131 143.0
74.1458 130.0
74.1606 152.0
74.1754 140.0
74.1901 132.0
74.2049 132.0
74.2197 147.0
74.2344 140.0
74.2492 137.0
74.264 131.0
74.2788 142.0
74.2935 146.0
74.3083 124.0
74.3231 137.0
74.3378 142.0
74.3526 120.0
74.3674 152.0
74.3822 139.0
74.3969 145.0
74.4117 131.0
74.4265 137.0
74.4412 158.0
74.456 119.0
74.4708 116.0
74.4856 146.0
74.5003 141.0
74.5151 140.0
74.5299 128.0
74.5446 140.0
74.5594 149.0
74.5742 158.0
74.589 130.0
74.6037 128.0
74.6185 129.0
74.6333 143.0
74.648 143.0
74.6628 154.0
74.6776 137.0
74.6924 138.0
74.7071 152.0
74.7219 123.0
74.7367 142.0
74.7514 130.0
74.7662 134.0
74.781 145.0
74.7958 136.0
74.8105 145.0
74.8253 140.0
74.8401 120.0
74.8548 148.0
74.8696 133.0
74.8844 151.0
74.8992 133.0
74.9139 132.0
74.9287 143.0
74.9435 142.0
74.9583 149.0
74.973 124.0
74.9878 144.0
74.9976 133.0