File: data/w6930r/XRD_Omega/film_r_scan_omega_4deg_step_0.005deg0_C3.xy
22.69830 25.0
22.70330 29.0
22.70830 29.0
22.71330 28.0
22.71830 35.0
22.72330 33.0
22.72830 30.0
22.73330 41.0
22.73830 29.0
22.74330 32.0
22.74830 26.0
22.75330 38.0
22.75830 25.0
22.76330 30.0
22.76830 30.0
22.77330 29.0
22.77830 27.0
22.78330 29.0
22.78830 31.0
22.79330 34.0
22.79830 24.0
22.80330 31.0
22.80830 22.0
22.81330 36.0
22.81830 38.0
22.82330 39.0
22.82830 32.0
22.83330 38.0
22.83830 29.0
22.84330 33.0
22.84830 41.0
22.85330 34.0
22.85830 38.0
22.86330 33.0
22.86830 31.0
22.87330 36.0
22.87830 34.0
22.88330 40.0
22.88830 30.0
22.89330 40.0
22.89830 45.0
22.90330 32.0
22.90830 39.0
22.91330 26.0
22.91830 33.0
22.92330 40.0
22.92830 19.0
22.93330 25.0
22.93830 35.0
22.94330 34.0
22.94830 25.0
22.95330 25.0
22.95830 24.0
22.96330 37.0
22.96830 24.0
22.97330 29.0
22.97830 18.0
22.98330 38.0
22.98830 39.0
22.99330 32.0
22.99830 31.0
23.00330 24.0
23.00830 23.0
23.01330 30.0
23.01830 47.0
23.02330 30.0
23.02830 25.0
23.03330 31.0
23.03830 40.0
23.04330 27.0
23.04830 30.0
23.05330 27.0
23.05830 29.0
23.06330 32.0
23.06830 28.0
23.07330 38.0
23.07830 33.0
23.08330 28.0
23.08830 19.0
23.09330 41.0
23.09830 24.0
23.10330 38.0
23.10830 27.0
23.11330 29.0
23.11830 27.0
23.12330 33.0
23.12830 31.0
23.13330 25.0
23.13830 40.0
23.14330 25.0
23.14830 33.0
23.15330 30.0
23.15830 37.0
23.16330 36.0
23.16830 34.0
23.17330 35.0
23.17830 24.0
23.18330 35.0
23.18830 46.0
23.19330 29.0
23.19830 25.0
23.20330 30.0
23.20830 27.0
23.21330 30.0
23.21830 37.0
23.22330 33.0
23.22830 36.0
23.23330 29.0
23.23830 27.0
23.24330 33.0
23.24830 25.0
23.25330 25.0
23.25830 38.0
23.26330 24.0
23.26830 35.0
23.27330 34.0
23.27830 34.0
23.28330 36.0
23.28830 31.0
23.29330 32.0
23.29830 27.0
23.30330 33.0
23.30830 35.0
23.31330 36.0
23.31830 22.0
23.32330 33.0
23.32830 23.0
23.33330 35.0
23.33830 42.0
23.34330 36.0
23.34830 37.0
23.35330 33.0
23.35830 30.0
23.36330 22.0
23.36830 24.0
23.37330 44.0
23.37830 29.0
23.38330 29.0
23.38830 46.0
23.39330 24.0
23.39830 28.0
23.40330 29.0
23.40830 33.0
23.41330 33.0
23.41830 27.0
23.42330 30.0
23.42830 32.0
23.43330 30.0
23.43830 29.0
23.44330 42.0
23.44830 33.0
23.45330 26.0
23.45830 34.0
23.46330 37.0
23.46830 27.0
23.47330 25.0
23.47830 31.0
23.48330 34.0
23.48830 30.0
23.49330 44.0
23.49830 31.0
23.50330 36.0
23.50830 31.0
23.51330 41.0
23.51830 28.0
23.52330 42.0
23.52830 29.0
23.53330 32.0
23.53830 26.0
23.54330 39.0
23.54830 37.0
23.55330 34.0
23.55830 17.0
23.56330 29.0
23.56830 30.0
23.57330 35.0
23.57830 37.0
23.58330 40.0
23.58830 26.0
23.59330 30.0
23.59830 31.0
23.60330 25.0
23.60830 28.0
23.61330 36.0
23.61830 32.0
23.62330 31.0
23.62830 22.0
23.63330 32.0
23.63830 30.0
23.64330 25.0
23.64830 47.0
23.65330 35.0
23.65830 38.0
23.66330 33.0
23.66830 29.0
23.67330 22.0
23.67830 27.0
23.68330 22.0
23.68830 23.0
23.69330 29.0
23.69830 32.0
23.70330 30.0
23.70830 30.0
23.71330 24.0
23.71830 27.0
23.72330 39.0
23.72830 34.0
23.73330 31.0
23.73830 37.0
23.74330 31.0
23.74830 33.0
23.75330 28.0
23.75830 27.0
23.76330 33.0
23.76830 40.0
23.77330 43.0
23.77830 24.0
23.78330 37.0
23.78830 32.0
23.79330 38.0
23.79830 28.0
23.80330 34.0
23.80830 35.0
23.81330 35.0
23.81830 26.0
23.82330 30.0
23.82830 26.0
23.83330 34.0
23.83830 33.0
23.84330 29.0
23.84830 29.0
23.85330 22.0
23.85830 29.0
23.86330 39.0
23.86830 26.0
23.87330 34.0
23.87830 30.0
23.88330 37.0
23.88830 37.0
23.89330 40.0
23.89830 44.0
23.90330 36.0
23.90830 35.0
23.91330 45.0
23.91830 34.0
23.92330 31.0
23.92830 31.0
23.93330 43.0
23.93830 35.0
23.94330 28.0
23.94830 34.0
23.95330 28.0
23.95830 32.0
23.96330 29.0
23.96830 32.0
23.97330 28.0
23.97830 32.0
23.98330 36.0
23.98830 30.0
23.99330 43.0
23.99830 34.0
24.00330 23.0
24.00830 33.0
24.01330 26.0
24.01830 31.0
24.02330 35.0
24.02830 31.0
24.03330 31.0
24.03830 40.0
24.04330 28.0
24.04830 36.0
24.05330 35.0
24.05830 39.0
24.06330 27.0
24.06830 27.0
24.07330 37.0
24.07830 32.0
24.08330 30.0
24.08830 38.0
24.09330 34.0
24.09830 30.0
24.10330 32.0
24.10830 37.0
24.11330 20.0
24.11830 32.0
24.12330 33.0
24.12830 34.0
24.13330 37.0
24.13830 39.0
24.14330 31.0
24.14830 33.0
24.15330 30.0
24.15830 34.0
24.16330 30.0
24.16830 34.0
24.17330 31.0
24.17830 28.0
24.18330 33.0
24.18830 30.0
24.19330 32.0
24.19830 35.0
24.20330 28.0
24.20830 24.0
24.21330 27.0
24.21830 29.0
24.22330 35.0
24.22830 41.0
24.23330 31.0
24.23830 33.0
24.24330 33.0
24.24830 33.0
24.25330 30.0
24.25830 32.0
24.26330 41.0
24.26830 39.0
24.27330 37.0
24.27830 31.0
24.28330 29.0
24.28830 34.0
24.29330 39.0
24.29830 29.0
24.30330 26.0
24.30830 28.0
24.31330 27.0
24.31830 42.0
24.32330 24.0
24.32830 39.0
24.33330 40.0
24.33830 37.0
24.34330 28.0
24.34830 29.0
24.35330 24.0
24.35830 29.0
24.36330 35.0
24.36830 42.0
24.37330 33.0
24.37830 32.0
24.38330 35.0
24.38830 43.0
24.39330 34.0
24.39830 40.0
24.40330 32.0
24.40830 34.0
24.41330 29.0
24.41830 32.0
24.42330 43.0
24.42830 38.0
24.43330 23.0
24.43830 33.0
24.44330 32.0
24.44830 41.0
24.45330 35.0
24.45830 32.0
24.46330 41.0
24.46830 33.0
24.47330 30.0
24.47830 35.0
24.48330 34.0
24.48830 41.0
24.49330 35.0
24.49830 31.0
24.50330 37.0
24.50830 37.0
24.51330 28.0
24.51830 30.0
24.52330 39.0
24.52830 44.0
24.53330 45.0
24.53830 41.0
24.54330 46.0
24.54830 51.0
24.55330 48.0
24.55830 45.0
24.56330 57.0
24.56830 60.0
24.57330 53.0
24.57830 47.0
24.58330 52.0
24.58830 50.0
24.59330 61.0
24.59830 56.0
24.60330 57.0
24.60830 57.0
24.61330 52.0
24.61830 64.0
24.62330 50.0
24.62830 70.0
24.63330 64.0
24.63830 76.0
24.64330 72.0
24.64830 100.0
24.65330 105.0
24.65830 105.0
24.66330 109.0
24.66830 136.0
24.67330 130.0
24.67830 123.0
24.68330 122.0
24.68830 96.0
24.69330 123.0
24.69830 97.0
24.70330 90.0
24.70830 78.0
24.71330 88.0
24.71830 78.0
24.72330 104.0
24.72830 89.0
24.73330 81.0
24.73830 78.0
24.74330 74.0
24.74830 65.0
24.75330 75.0
24.75830 78.0
24.76330 67.0
24.76830 75.0
24.77330 78.0
24.77830 82.0
24.78330 78.0
24.78830 78.0
24.79330 86.0
24.79830 88.0
24.80330 76.0
24.80830 61.0
24.81330 55.0
24.81830 49.0
24.82330 40.0
24.82830 51.0
24.83330 41.0
24.83830 35.0
24.84330 46.0
24.84830 39.0
24.85330 38.0
24.85830 36.0
24.86330 40.0
24.86830 26.0
24.87330 31.0
24.87830 40.0
24.88330 39.0
24.88830 42.0
24.89330 26.0
24.89830 35.0
24.90330 31.0
24.90830 38.0
24.91330 42.0
24.91830 38.0
24.92330 37.0
24.92830 24.0
24.93330 36.0
24.93830 28.0
24.94330 38.0
24.94830 31.0
24.95330 31.0
24.95830 27.0
24.96330 19.0
24.96830 34.0
24.97330 30.0
24.97830 39.0
24.98330 37.0
24.98830 28.0
24.99330 30.0
24.99830 28.0
25.00330 31.0
25.00830 35.0
25.01330 30.0
25.01830 32.0
25.02330 36.0
25.02830 41.0
25.03330 36.0
25.03830 33.0
25.04330 28.0
25.04830 27.0
25.05330 32.0
25.05830 34.0
25.06330 36.0
25.06830 40.0
25.07330 23.0
25.07830 37.0
25.08330 31.0
25.08830 33.0
25.09330 31.0
25.09830 32.0
25.10330 15.0
25.10830 33.0
25.11330 34.0
25.11830 36.0
25.12330 33.0
25.12830 20.0
25.13330 24.0
25.13830 23.0
25.14330 25.0
25.14830 29.0
25.15330 33.0
25.15830 23.0
25.16330 30.0
25.16830 37.0
25.17330 36.0
25.17830 17.0
25.18330 43.0
25.18830 29.0
25.19330 35.0
25.19830 28.0
25.20330 28.0
25.20830 24.0
25.21330 22.0
25.21830 33.0
25.22330 32.0
25.22830 30.0
25.23330 29.0
25.23830 32.0
25.24330 32.0
25.24830 39.0
25.25330 24.0
25.25830 32.0
25.26330 28.0
25.26830 18.0
25.27330 29.0
25.27830 38.0
25.28330 26.0
25.28830 27.0
25.29330 27.0
25.29830 35.0
25.30330 38.0
25.30830 43.0
25.31330 43.0
25.31830 34.0
25.32330 35.0
25.32830 30.0
25.33330 28.0
25.33830 34.0
25.34330 31.0
25.34830 19.0
25.35330 38.0
25.35830 26.0
25.36330 29.0
25.36830 39.0
25.37330 44.0
25.37830 25.0
25.38330 25.0
25.38830 34.0
25.39330 28.0
25.39830 39.0
25.40330 28.0
25.40830 27.0
25.41330 32.0
25.41830 18.0
25.42330 33.0
25.42830 34.0
25.43330 24.0
25.43830 19.0
25.44330 32.0
25.44830 34.0
25.45330 25.0
25.45830 37.0
25.46330 34.0
25.46830 22.0
25.47330 23.0
25.47830 34.0
25.48330 30.0
25.48830 28.0
25.49330 26.0
25.49830 27.0
25.50330 34.0
25.50830 32.0
25.51330 34.0
25.51830 32.0
25.52330 18.0
25.52830 34.0
25.53330 21.0
25.53830 37.0
25.54330 31.0
25.54830 34.0
25.55330 34.0
25.55830 30.0
25.56330 27.0
25.56830 22.0
25.57330 38.0
25.57830 32.0
25.58330 32.0
25.58830 37.0
25.59330 24.0
25.59830 36.0
25.60330 28.0
25.60830 31.0
25.61330 36.0
25.61830 31.0
25.62330 28.0
25.62830 32.0
25.63330 32.0
25.63830 29.0
25.64330 37.0
25.64830 26.0
25.65330 31.0
25.65830 26.0
25.66330 23.0
25.66830 19.0
25.67330 34.0
25.67830 32.0
25.68330 24.0
25.68830 31.0
25.69330 25.0
25.69830 30.0
25.70330 33.0
25.70830 22.0
25.71330 35.0
25.71830 26.0
25.72330 25.0
25.72830 36.0
25.73330 21.0
25.73830 27.0
25.74330 29.0
25.74830 24.0
25.75330 25.0
25.75830 24.0
25.76330 33.0
25.76830 34.0
25.77330 29.0
25.77830 37.0
25.78330 31.0
25.78830 28.0
25.79330 24.0
25.79830 28.0
25.80330 27.0
25.80830 32.0
25.81330 30.0
25.81830 36.0
25.82330 33.0
25.82830 23.0
25.83330 28.0
25.83830 39.0
25.84330 44.0
25.84830 33.0
25.85330 29.0
25.85830 20.0
25.86330 32.0
25.86830 38.0
25.87330 32.0
25.87830 24.0
25.88330 28.0
25.88830 27.0
25.89330 28.0
25.89830 27.0
25.90330 33.0
25.90830 39.0
25.91330 24.0
25.91830 29.0
25.92330 34.0
25.92830 23.0
25.93330 30.0
25.93830 27.0
25.94330 26.0
25.94830 33.0
25.95330 33.0
25.95830 32.0
25.96330 25.0
25.96830 34.0
25.97330 25.0
25.97830 30.0
25.98330 39.0
25.98830 22.0
25.99330 37.0
25.99830 27.0
26.00330 22.0
26.00830 31.0
26.01330 27.0
26.01830 36.0
26.02330 30.0
26.02830 29.0
26.03330 30.0
26.03830 21.0
26.04330 33.0
26.04830 26.0
26.05330 32.0
26.05830 29.0
26.06330 33.0
26.06830 20.0
26.07330 31.0
26.07830 26.0
26.08330 38.0
26.08830 28.0
26.09330 25.0
26.09830 32.0
26.10330 30.0
26.10830 32.0
26.11330 28.0
26.11830 32.0
26.12330 36.0
26.12830 27.0
26.13330 23.0
26.13830 29.0
26.14330 29.0
26.14830 28.0
26.15330 34.0
26.15830 35.0
26.16330 27.0
26.16830 36.0
26.17330 39.0
26.17830 27.0
26.18330 27.0
26.18830 32.0
26.19330 26.0
26.19830 24.0
26.20330 17.0
26.20830 37.0
26.21330 28.0
26.21830 38.0
26.22330 26.0
26.22830 31.0
26.23330 33.0
26.23830 24.0
26.24330 27.0
26.24830 20.0
26.25330 19.0
26.25830 31.0
26.26330 27.0
26.26830 28.0
26.27330 31.0
26.27830 30.0
26.28330 30.0
26.28830 22.0
26.29330 26.0
26.29830 23.0
26.30330 31.0
26.30830 24.0
26.31330 45.0
26.31830 28.0
26.32330 35.0
26.32830 29.0
26.33330 23.0
26.33830 29.0
26.34330 38.0
26.34830 27.0
26.35330 31.0
26.35830 24.0
26.36330 31.0
26.36830 35.0
26.37330 33.0
26.37830 28.0
26.38330 39.0
26.38830 33.0
26.39330 30.0
26.39830 29.0
26.40330 29.0
26.40830 27.0
26.41330 34.0
26.41830 26.0
26.42330 36.0
26.42830 24.0
26.43330 34.0
26.43830 23.0
26.44330 30.0
26.44830 46.0
26.45330 35.0
26.45830 31.0
26.46330 25.0
26.46830 22.0
26.47330 34.0
26.47830 28.0
26.48330 20.0
26.48830 29.0
26.49330 24.0
26.49830 28.0
26.50330 29.0
26.50830 35.0
26.51330 39.0
26.51830 34.0
26.52330 28.0
26.52830 23.0
26.53330 33.0
26.53830 28.0
26.54330 27.0
26.54830 26.0
26.55330 25.0
26.55830 35.0
26.56330 33.0
26.56830 23.0
26.57330 26.0
26.57830 30.0
26.58330 35.0
26.58830 26.0
26.59330 32.0
26.59830 23.0
26.60330 21.0
26.60830 35.0
26.61330 25.0
26.61830 27.0
26.62330 41.0
26.62830 36.0
26.63330 23.0
26.63830 22.0
26.64330 31.0
26.64830 37.0
26.65330 33.0
26.65830 27.0