File: data/W6858m/XRD_Omega/W6858m_Cr2O3_scan_omega_2deg_step_0.002deg0_9.xy
31.31470 724.0
31.31670 739.0
31.31870 735.0
31.32070 715.0
31.32270 730.0
31.32470 784.0
31.32670 667.0
31.32870 760.0
31.33070 710.0
31.33270 684.0
31.33470 719.0
31.33670 725.0
31.33870 737.0
31.34070 770.0
31.34270 798.0
31.34470 701.0
31.34670 766.0
31.34870 786.0
31.35070 758.0
31.35270 761.0
31.35470 804.0
31.35670 777.0
31.35870 805.0
31.36070 784.0
31.36270 778.0
31.36470 809.0
31.36670 810.0
31.36870 802.0
31.37070 784.0
31.37270 830.0
31.37470 840.0
31.37670 870.0
31.37870 819.0
31.38070 859.0
31.38270 822.0
31.38470 883.0
31.38670 871.0
31.38870 900.0
31.39070 876.0
31.39270 929.0
31.39470 854.0
31.39670 827.0
31.39870 923.0
31.40070 881.0
31.40270 883.0
31.40470 880.0
31.40670 938.0
31.40870 934.0
31.41070 864.0
31.41270 941.0
31.41470 883.0
31.41670 950.0
31.41870 952.0
31.42070 948.0
31.42270 923.0
31.42470 934.0
31.42670 938.0
31.42870 945.0
31.43070 955.0
31.43270 948.0
31.43470 932.0
31.43670 971.0
31.43870 930.0
31.44070 925.0
31.44270 997.0
31.44470 951.0
31.44670 1013.0
31.44870 972.0
31.45070 1050.0
31.45270 1005.0
31.45470 966.0
31.45670 961.0
31.45870 1039.0
31.46070 962.0
31.46270 1011.0
31.46470 1037.0
31.46670 1004.0
31.46870 1032.0
31.47070 1101.0
31.47270 1065.0
31.47470 1043.0
31.47670 1039.0
31.47870 1031.0
31.48070 1115.0
31.48270 1118.0
31.48470 998.0
31.48670 1142.0
31.48870 1058.0
31.49070 1136.0
31.49270 1150.0
31.49470 1111.0
31.49670 1183.0
31.49870 1078.0
31.50070 1089.0
31.50270 1103.0
31.50470 1111.0
31.50670 1126.0
31.50870 1174.0
31.51070 1128.0
31.51270 1155.0
31.51470 1100.0
31.51670 1157.0
31.51870 1169.0
31.52070 1209.0
31.52270 1176.0
31.52470 1164.0
31.52670 1098.0
31.52870 1160.0
31.53070 1156.0
31.53270 1142.0
31.53470 1161.0
31.53670 1189.0
31.53870 1258.0
31.54070 1167.0
31.54270 1207.0
31.54470 1195.0
31.54670 1242.0
31.54870 1225.0
31.55070 1203.0
31.55270 1199.0
31.55470 1261.0
31.55670 1184.0
31.55870 1168.0
31.56070 1230.0
31.56270 1223.0
31.56470 1270.0
31.56670 1288.0
31.56870 1274.0
31.57070 1242.0
31.57270 1216.0
31.57470 1293.0
31.57670 1246.0
31.57870 1241.0
31.58070 1281.0
31.58270 1248.0
31.58470 1271.0
31.58670 1267.0
31.58870 1270.0
31.59070 1266.0
31.59270 1270.0
31.59470 1316.0
31.59670 1276.0
31.59870 1357.0
31.60070 1380.0
31.60270 1272.0
31.60470 1304.0
31.60670 1339.0
31.60870 1356.0
31.61070 1363.0
31.61270 1393.0
31.61470 1328.0
31.61670 1346.0
31.61870 1384.0
31.62070 1363.0
31.62270 1277.0
31.62470 1436.0
31.62670 1367.0
31.62870 1351.0
31.63070 1344.0
31.63270 1339.0
31.63470 1347.0
31.63670 1392.0
31.63870 1388.0
31.64070 1347.0
31.64270 1378.0
31.64470 1374.0
31.64670 1377.0
31.64870 1331.0
31.65070 1405.0
31.65270 1332.0
31.65470 1407.0
31.65670 1416.0
31.65870 1462.0
31.66070 1390.0
31.66270 1403.0
31.66470 1341.0
31.66670 1329.0
31.66870 1402.0
31.67070 1393.0
31.67270 1394.0
31.67470 1435.0
31.67670 1488.0
31.67870 1461.0
31.68070 1432.0
31.68270 1572.0
31.68470 1397.0
31.68670 1510.0
31.68870 1412.0
31.69070 1358.0
31.69270 1470.0
31.69470 1541.0
31.69670 1431.0
31.69870 1540.0
31.70070 1490.0
31.70270 1457.0
31.70470 1482.0
31.70670 1450.0
31.70870 1556.0
31.71070 1504.0
31.71270 1519.0
31.71470 1410.0
31.71670 1493.0
31.71870 1537.0
31.72070 1490.0
31.72270 1550.0
31.72470 1512.0
31.72670 1445.0
31.72870 1490.0
31.73070 1460.0
31.73270 1567.0
31.73470 1481.0
31.73670 1456.0
31.73870 1575.0
31.74070 1599.0
31.74270 1442.0
31.74470 1507.0
31.74670 1529.0
31.74870 1526.0
31.75070 1496.0
31.75270 1528.0
31.75470 1531.0
31.75670 1510.0
31.75870 1565.0
31.76070 1577.0
31.76270 1534.0
31.76470 1438.0
31.76670 1499.0
31.76870 1530.0
31.77070 1585.0
31.77270 1507.0
31.77470 1481.0
31.77670 1559.0
31.77870 1506.0
31.78070 1524.0
31.78270 1571.0
31.78470 1492.0
31.78670 1580.0
31.78870 1508.0
31.79070 1514.0
31.79270 1477.0
31.79470 1523.0
31.79670 1547.0
31.79870 1545.0
31.80070 1578.0
31.80270 1501.0
31.80470 1477.0
31.80670 1479.0
31.80870 1571.0
31.81070 1491.0
31.81270 1510.0
31.81470 1542.0
31.81670 1524.0
31.81870 1452.0
31.82070 1564.0
31.82270 1580.0
31.82470 1559.0
31.82670 1580.0
31.82870 1477.0
31.83070 1522.0
31.83270 1564.0
31.83470 1553.0
31.83670 1577.0
31.83870 1489.0
31.84070 1500.0
31.84270 1519.0
31.84470 1547.0
31.84670 1546.0
31.84870 1527.0
31.85070 1521.0
31.85270 1533.0
31.85470 1486.0
31.85670 1462.0
31.85870 1499.0
31.86070 1459.0
31.86270 1504.0
31.86470 1533.0
31.86670 1451.0
31.86870 1489.0
31.87070 1478.0
31.87270 1459.0
31.87470 1593.0
31.87670 1488.0
31.87870 1439.0
31.88070 1396.0
31.88270 1454.0
31.88470 1583.0
31.88670 1524.0
31.88870 1390.0
31.89070 1435.0
31.89270 1541.0
31.89470 1456.0
31.89670 1481.0
31.89870 1482.0
31.90070 1491.0
31.90270 1509.0
31.90470 1501.0
31.90670 1445.0
31.90870 1490.0
31.91070 1517.0
31.91270 1455.0
31.91470 1504.0
31.91670 1498.0
31.91870 1360.0
31.92070 1461.0
31.92270 1429.0
31.92470 1407.0
31.92670 1543.0
31.92870 1490.0
31.93070 1479.0
31.93270 1402.0
31.93470 1403.0
31.93670 1425.0
31.93870 1449.0
31.94070 1426.0
31.94270 1475.0
31.94470 1415.0
31.94670 1441.0
31.94870 1404.0
31.95070 1382.0
31.95270 1413.0
31.95470 1441.0
31.95670 1457.0
31.95870 1412.0
31.96070 1464.0
31.96270 1427.0
31.96470 1442.0
31.96670 1446.0
31.96870 1411.0
31.97070 1379.0
31.97270 1406.0
31.97470 1301.0
31.97670 1363.0
31.97870 1353.0
31.98070 1441.0
31.98270 1420.0
31.98470 1352.0
31.98670 1384.0
31.98870 1341.0
31.99070 1350.0
31.99270 1379.0
31.99470 1411.0
31.99670 1330.0
31.99870 1396.0
32.00070 1377.0
32.00270 1398.0
32.00470 1355.0
32.00670 1374.0
32.00870 1317.0
32.01070 1323.0
32.01270 1398.0
32.01470 1332.0
32.01670 1316.0
32.01870 1402.0
32.02070 1343.0
32.02270 1369.0
32.02470 1307.0
32.02670 1312.0
32.02870 1343.0
32.03070 1310.0
32.03270 1293.0
32.03470 1323.0
32.03670 1332.0
32.03870 1310.0
32.04070 1275.0
32.04270 1340.0
32.04470 1314.0
32.04670 1319.0
32.04870 1351.0
32.05070 1384.0
32.05270 1391.0
32.05470 1231.0
32.05670 1250.0
32.05870 1220.0
32.06070 1311.0
32.06270 1324.0
32.06470 1264.0
32.06670 1332.0
32.06870 1262.0
32.07070 1276.0
32.07270 1325.0
32.07470 1331.0
32.07670 1285.0
32.07870 1222.0
32.08070 1318.0
32.08270 1273.0
32.08470 1268.0
32.08670 1249.0
32.08870 1226.0
32.09070 1305.0
32.09270 1280.0
32.09470 1278.0
32.09670 1236.0
32.09870 1222.0
32.10070 1213.0
32.10270 1173.0
32.10470 1172.0
32.10670 1244.0
32.10870 1178.0
32.11070 1246.0
32.11270 1260.0
32.11470 1200.0
32.11670 1204.0
32.11870 1168.0
32.12070 1218.0
32.12270 1288.0
32.12470 1245.0
32.12670 1198.0
32.12870 1196.0
32.13070 1167.0
32.13270 1231.0
32.13470 1229.0
32.13670 1170.0
32.13870 1133.0
32.14070 1230.0
32.14270 1118.0
32.14470 1181.0
32.14670 1113.0
32.14870 1170.0
32.15070 1184.0
32.15270 1161.0
32.15470 1112.0
32.15670 1124.0
32.15870 1143.0
32.16070 1108.0
32.16270 1097.0
32.16470 1088.0
32.16670 1103.0
32.16870 1056.0
32.17070 1145.0
32.17270 1174.0
32.17470 1058.0
32.17670 1145.0
32.17870 1099.0
32.18070 1055.0
32.18270 1098.0
32.18470 1099.0
32.18670 1059.0
32.18870 1070.0
32.19070 1056.0
32.19270 1062.0
32.19470 1065.0
32.19670 1113.0
32.19870 1061.0
32.20070 1150.0
32.20270 1079.0
32.20470 1126.0
32.20670 1084.0
32.20870 1087.0
32.21070 1043.0
32.21270 1121.0
32.21470 1060.0
32.21670 1096.0
32.21870 1024.0
32.22070 1027.0
32.22270 1052.0
32.22470 1112.0
32.22670 1122.0
32.22870 1107.0
32.23070 1074.0
32.23270 1133.0
32.23470 1153.0
32.23670 1145.0
32.23870 1081.0
32.24070 1128.0
32.24270 1023.0
32.24470 1105.0
32.24670 1131.0
32.24870 1141.0
32.25070 1153.0
32.25270 1211.0
32.25470 1186.0
32.25670 1144.0
32.25870 1195.0
32.26070 1154.0
32.26270 1241.0
32.26470 1252.0
32.26670 1266.0
32.26870 1302.0
32.27070 1349.0
32.27270 1407.0
32.27470 1407.0
32.27670 1448.0
32.27870 1537.0
32.28070 1657.0
32.28270 1666.0
32.28470 1726.0
32.28670 1826.0
32.28870 1874.0
32.29070 1919.0
32.29270 2056.0
32.29470 2179.0
32.29670 2119.0
32.29870 2175.0
32.30070 2278.0
32.30270 2202.0
32.30470 2108.0
32.30670 2146.0
32.30870 2075.0
32.31070 2073.0
32.31270 2073.0
32.31470 2006.0
32.31670 1894.0
32.31870 1790.0
32.32070 1817.0
32.32270 1777.0
32.32470 1732.0
32.32670 1691.0
32.32870 1564.0
32.33070 1575.0
32.33270 1516.0
32.33470 1543.0
32.33670 1441.0
32.33870 1402.0
32.34070 1437.0
32.34270 1416.0
32.34470 1381.0
32.34670 1364.0
32.34870 1360.0
32.35070 1354.0
32.35270 1389.0
32.35470 1346.0
32.35670 1360.0
32.35870 1395.0
32.36070 1312.0
32.36270 1315.0
32.36470 1296.0
32.36670 1357.0
32.36870 1301.0
32.37070 1293.0
32.37270 1254.0
32.37470 1295.0
32.37670 1275.0
32.37870 1261.0
32.38070 1265.0
32.38270 1239.0
32.38470 1198.0
32.38670 1204.0
32.38870 1104.0
32.39070 1140.0
32.39270 1132.0
32.39470 1129.0
32.39670 1012.0
32.39870 1066.0
32.40070 1006.0
32.40270 958.0
32.40470 1059.0
32.40670 980.0
32.40870 980.0
32.41070 976.0
32.41270 996.0
32.41470 988.0
32.41670 977.0
32.41870 1038.0
32.42070 971.0
32.42270 925.0
32.42470 969.0
32.42670 985.0
32.42870 945.0
32.43070 1003.0
32.43270 997.0
32.43470 962.0
32.43670 970.0
32.43870 954.0
32.44070 941.0
32.44270 951.0
32.44470 929.0
32.44670 887.0
32.44870 882.0
32.45070 881.0
32.45270 869.0
32.45470 875.0
32.45670 849.0
32.45870 846.0
32.46070 885.0
32.46270 789.0
32.46470 816.0
32.46670 824.0
32.46870 766.0
32.47070 748.0
32.47270 729.0
32.47470 734.0
32.47670 707.0
32.47870 727.0
32.48070 694.0
32.48270 692.0
32.48470 702.0
32.48670 692.0
32.48870 694.0
32.49070 660.0
32.49270 728.0
32.49470 639.0
32.49670 681.0
32.49870 678.0
32.50070 706.0
32.50270 677.0
32.50470 691.0
32.50670 632.0
32.50870 677.0
32.51070 665.0
32.51270 633.0
32.51470 628.0
32.51670 579.0
32.51870 632.0
32.52070 624.0
32.52270 611.0
32.52470 651.0
32.52670 559.0
32.52870 600.0
32.53070 630.0
32.53270 627.0
32.53470 621.0
32.53670 627.0
32.53870 659.0
32.54070 621.0
32.54270 614.0
32.54470 652.0
32.54670 681.0
32.54870 652.0
32.55070 643.0
32.55270 639.0
32.55470 695.0
32.55670 672.0
32.55870 698.0
32.56070 698.0
32.56270 683.0
32.56470 710.0
32.56670 748.0
32.56870 753.0
32.57070 730.0
32.57270 758.0
32.57470 724.0
32.57670 720.0
32.57870 724.0
32.58070 792.0
32.58270 697.0
32.58470 739.0
32.58670 779.0
32.58870 760.0
32.59070 722.0
32.59270 682.0
32.59470 709.0
32.59670 678.0
32.59870 665.0
32.60070 611.0
32.60270 683.0
32.60470 630.0
32.60670 646.0
32.60870 585.0
32.61070 648.0
32.61270 614.0
32.61470 601.0
32.61670 594.0
32.61870 590.0
32.62070 589.0
32.62270 577.0
32.62470 615.0
32.62670 584.0
32.62870 532.0
32.63070 604.0
32.63270 567.0
32.63470 529.0
32.63670 607.0
32.63870 574.0
32.64070 502.0
32.64270 581.0
32.64470 524.0
32.64670 505.0
32.64870 509.0
32.65070 555.0
32.65270 568.0
32.65470 535.0
32.65670 513.0
32.65870 530.0
32.66070 524.0
32.66270 492.0
32.66470 536.0
32.66670 494.0
32.66870 513.0
32.67070 534.0
32.67270 517.0
32.67470 491.0
32.67670 465.0
32.67870 493.0
32.68070 495.0
32.68270 501.0
32.68470 483.0
32.68670 507.0
32.68870 472.0
32.69070 456.0
32.69270 472.0
32.69470 483.0
32.69670 484.0
32.69870 493.0
32.70070 455.0
32.70270 458.0
32.70470 458.0
32.70670 484.0
32.70870 480.0
32.71070 428.0
32.71270 433.0
32.71470 455.0
32.71670 451.0
32.71870 429.0
32.72070 473.0
32.72270 453.0
32.72470 423.0
32.72670 448.0
32.72870 416.0
32.73070 404.0
32.73270 435.0
32.73470 424.0
32.73670 427.0
32.73870 402.0
32.74070 403.0
32.74270 410.0
32.74470 447.0
32.74670 419.0
32.74870 433.0
32.75070 464.0
32.75270 408.0
32.75470 395.0
32.75670 385.0
32.75870 421.0
32.76070 409.0
32.76270 410.0
32.76470 431.0
32.76670 421.0
32.76870 382.0
32.77070 413.0
32.77270 391.0
32.77470 436.0
32.77670 424.0
32.77870 408.0
32.78070 368.0
32.78270 380.0
32.78470 381.0
32.78670 391.0
32.78870 367.0
32.79070 416.0
32.79270 382.0
32.79470 351.0
32.79670 423.0
32.79870 410.0
32.80070 375.0
32.80270 398.0
32.80470 377.0
32.80670 398.0
32.80870 375.0
32.81070 384.0
32.81270 428.0
32.81470 373.0
32.81670 402.0
32.81870 382.0
32.82070 361.0
32.82270 387.0
32.82470 376.0
32.82670 381.0
32.82870 378.0
32.83070 394.0
32.83270 387.0
32.83470 349.0
32.83670 352.0
32.83870 420.0
32.84070 383.0
32.84270 357.0
32.84470 345.0
32.84670 366.0
32.84870 418.0
32.85070 341.0
32.85270 375.0
32.85470 406.0
32.85670 358.0
32.85870 387.0
32.86070 356.0
32.86270 368.0
32.86470 368.0
32.86670 347.0
32.86870 366.0
32.87070 360.0
32.87270 368.0
32.87470 346.0
32.87670 367.0
32.87870 334.0
32.88070 360.0
32.88270 330.0
32.88470 313.0
32.88670 354.0
32.88870 322.0
32.89070 338.0
32.89270 319.0
32.89470 340.0
32.89670 290.0
32.89870 324.0
32.90070 327.0
32.90270 282.0
32.90470 313.0
32.90670 305.0
32.90870 283.0
32.91070 299.0
32.91270 262.0
32.91470 292.0
32.91670 296.0
32.91870 284.0
32.92070 299.0
32.92270 287.0
32.92470 287.0
32.92670 275.0
32.92870 305.0
32.93070 280.0
32.93270 289.0
32.93470 310.0
32.93670 288.0
32.93870 282.0
32.94070 283.0
32.94270 288.0
32.94470 260.0
32.94670 259.0
32.94870 261.0
32.95070 271.0
32.95270 272.0
32.95470 280.0
32.95670 269.0
32.95870 285.0
32.96070 254.0
32.96270 276.0
32.96470 260.0
32.96670 280.0
32.96870 246.0
32.97070 300.0
32.97270 260.0
32.97470 224.0
32.97670 242.0
32.97870 255.0
32.98070 255.0
32.98270 272.0
32.98470 264.0
32.98670 249.0
32.98870 291.0
32.99070 235.0
32.99270 255.0
32.99470 263.0
32.99670 261.0
32.99870 241.0
33.00070 257.0
33.00270 229.0
33.00470 282.0
33.00670 262.0
33.00870 243.0
33.01070 237.0
33.01270 260.0
33.01470 251.0
33.01670 273.0
33.01870 250.0
33.02070 246.0
33.02270 244.0
33.02470 255.0
33.02670 254.0
33.02870 238.0
33.03070 260.0
33.03270 261.0
33.03470 236.0
33.03670 237.0
33.03870 234.0
33.04070 276.0
33.04270 244.0
33.04470 263.0
33.04670 217.0
33.04870 224.0
33.05070 235.0
33.05270 226.0
33.05470 245.0
33.05670 220.0
33.05870 253.0
33.06070 240.0
33.06270 218.0
33.06470 234.0
33.06670 240.0
33.06870 233.0
33.07070 234.0
33.07270 233.0
33.07470 260.0
33.07670 231.0
33.07870 230.0
33.08070 246.0
33.08270 256.0
33.08470 228.0
33.08670 234.0
33.08870 237.0
33.09070 216.0
33.09270 211.0
33.09470 252.0
33.09670 251.0
33.09870 241.0
33.10070 211.0
33.10270 218.0
33.10470 213.0
33.10670 219.0
33.10870 245.0
33.11070 224.0
33.11270 224.0
33.11470 243.0
33.11670 227.0
33.11870 266.0
33.12070 238.0
33.12270 227.0
33.12470 240.0
33.12670 240.0
33.12870 229.0
33.13070 249.0
33.13270 222.0
33.13470 225.0
33.13670 239.0
33.13870 248.0
33.14070 229.0
33.14270 249.0
33.14470 214.0
33.14670 212.0
33.14870 213.0
33.15070 232.0
33.15270 211.0
33.15470 210.0
33.15670 226.0
33.15870 214.0
33.16070 219.0
33.16270 226.0
33.16470 211.0
33.16670 226.0
33.16870 213.0
33.17070 233.0
33.17270 189.0
33.17470 216.0
33.17670 224.0
33.17870 244.0
33.18070 212.0
33.18270 250.0
33.18470 220.0
33.18670 234.0
33.18870 237.0
33.19070 246.0
33.19270 226.0
33.19470 211.0
33.19670 213.0
33.19870 213.0
33.20070 224.0
33.20270 230.0
33.20470 217.0
33.20670 228.0
33.20870 211.0
33.21070 198.0
33.21270 178.0
33.21470 256.0
33.21670 237.0
33.21870 211.0
33.22070 244.0
33.22270 223.0
33.22470 197.0
33.22670 185.0
33.22870 253.0
33.23070 227.0
33.23270 217.0
33.23470 183.0
33.23670 215.0
33.23870 232.0
33.24070 241.0
33.24270 226.0
33.24470 218.0
33.24670 224.0
33.24870 197.0
33.25070 243.0
33.25270 223.0
33.25470 206.0
33.25670 225.0
33.25870 196.0
33.26070 217.0
33.26270 228.0
33.26470 230.0
33.26670 215.0
33.26870 206.0
33.27070 193.0
33.27270 205.0
33.27470 184.0
33.27670 205.0
33.27870 223.0
33.28070 224.0
33.28270 221.0
33.28470 208.0
33.28670 233.0
33.28870 191.0
33.29070 220.0
33.29270 217.0
33.29470 201.0
33.29670 217.0
33.29870 209.0