File: data/W6784c/XRD_2ThetaOmega/W6784c_absolute_2th-om_10-130deg_PIXscan_17min_1.xy
10.0035 22.0
10.0872 25.0
10.1709 25.0
10.2546 21.0
10.3383 27.0
10.422 26.0
10.5057 24.0
10.5894 29.0
10.6731 20.0
10.7568 25.0
10.8405 23.0
10.9242 21.0
11.0079 27.0
11.0916 32.0
11.1753 16.0
11.259 21.0
11.3428 26.0
11.4265 22.0
11.5102 25.0
11.5939 16.0
11.6776 20.0
11.7613 15.0
11.845 19.0
11.9287 19.0
12.0124 18.0
12.0961 17.0
12.1798 22.0
12.2635 21.0
12.3472 24.0
12.4309 24.0
12.5146 17.0
12.5983 18.0
12.682 20.0
12.7657 14.0
12.8495 11.0
12.9332 28.0
13.0169 21.0
13.1006 18.0
13.1843 12.0
13.268 16.0
13.3517 15.0
13.4354 28.0
13.5191 16.0
13.6028 17.0
13.6865 25.0
13.7702 16.0
13.8539 17.0
13.9376 18.0
14.0213 18.0
14.105 18.0
14.1887 19.0
14.2724 12.0
14.3562 17.0
14.4399 17.0
14.5236 17.0
14.6073 19.0
14.691 11.0
14.7747 16.0
14.8584 18.0
14.9421 15.0
15.0258 20.0
15.1095 19.0
15.1932 19.0
15.2769 17.0
15.3606 19.0
15.4443 16.0
15.528 10.0
15.6117 16.0
15.6954 13.0
15.7791 17.0
15.8629 22.0
15.9466 15.0
16.0303 22.0
16.114 23.0
16.1977 17.0
16.2814 14.0
16.3651 9.0
16.4488 13.0
16.5325 19.0
16.6162 13.0
16.6999 18.0
16.7836 9.0
16.8673 10.0
16.951 11.0
17.0347 21.0
17.1184 13.0
17.2021 10.0
17.2858 10.0
17.3696 19.0
17.4533 14.0
17.537 18.0
17.6207 10.0
17.7044 24.0
17.7881 19.0
17.8718 15.0
17.9555 8.0
18.0392 23.0
18.1229 20.0
18.2066 19.0
18.2903 8.0
18.374 15.0
18.4577 16.0
18.5414 15.0
18.6251 16.0
18.7088 17.0
18.7925 9.0
18.8763 9.0
18.96 17.0
19.0437 17.0
19.1274 13.0
19.2111 18.0
19.2948 26.0
19.3785 13.0
19.4622 16.0
19.5459 21.0
19.6296 8.0
19.7133 17.0
19.797 11.0
19.8807 14.0
19.9644 11.0
20.0481 18.0
20.1318 12.0
20.2155 12.0
20.2992 9.0
20.383 11.0
20.4667 17.0
20.5504 11.0
20.6341 12.0
20.7178 12.0
20.8015 6.0
20.8852 13.0
20.9689 13.0
21.0526 14.0
21.1363 19.0
21.22 14.0
21.3037 10.0
21.3874 10.0
21.4711 9.0
21.5548 16.0
21.6385 14.0
21.7222 8.0
21.8059 9.0
21.8897 7.0
21.9734 10.0
22.0571 13.0
22.1408 11.0
22.2245 11.0
22.3082 9.0
22.3919 8.0
22.4756 13.0
22.5593 11.0
22.643 10.0
22.7267 13.0
22.8104 15.0
22.8941 10.0
22.9778 7.0
23.0615 11.0
23.1452 8.0
23.2289 10.0
23.3126 10.0
23.3964 6.0
23.4801 7.0
23.5638 9.0
23.6475 10.0
23.7312 16.0
23.8149 13.0
23.8986 7.0
23.9823 12.0
24.066 7.0
24.1497 4.0
24.2334 12.0
24.3171 9.0
24.4008 14.0
24.4845 12.0
24.5682 19.0
24.6519 11.0
24.7356 7.0
24.8193 12.0
24.9031 7.0
24.9868 4.0
25.0705 12.0
25.1542 5.0
25.2379 8.0
25.3216 6.0
25.4053 9.0
25.489 5.0
25.5727 9.0
25.6564 6.0
25.7401 11.0
25.8238 9.0
25.9075 5.0
25.9912 17.0
26.0749 9.0
26.1586 7.0
26.2423 11.0
26.326 10.0
26.4098 3.0
26.4935 7.0
26.5772 11.0
26.6609 8.0
26.7446 9.0
26.8283 16.0
26.912 9.0
26.9957 6.0
27.0794 4.0
27.1631 9.0
27.2468 15.0
27.3305 9.0
27.4142 13.0
27.4979 12.0
27.5816 8.0
27.6653 6.0
27.749 11.0
27.8327 11.0
27.9165 12.0
28.0002 8.0
28.0839 14.0
28.1676 6.0
28.2513 11.0
28.335 11.0
28.4187 9.0
28.5024 9.0
28.5861 8.0
28.6698 7.0
28.7535 13.0
28.8372 14.0
28.9209 9.0
29.0046 8.0
29.0883 7.0
29.172 11.0
29.2557 10.0
29.3394 13.0
29.4232 8.0
29.5069 5.0
29.5906 5.0
29.6743 9.0
29.758 6.0
29.8417 10.0
29.9254 10.0
30.0091 2.0
30.0928 6.0
30.1765 11.0
30.2602 9.0
30.3439 11.0
30.4276 8.0
30.5113 8.0
30.595 11.0
30.6787 9.0
30.7624 12.0
30.8461 10.0
30.9298 12.0
31.0136 12.0
31.0973 8.0
31.181 6.0
31.2647 10.0
31.3484 10.0
31.4321 6.0
31.5158 8.0
31.5995 9.0
31.6832 4.0
31.7669 12.0
31.8506 2.0
31.9343 11.0
32.018 7.0
32.1017 7.0
32.1854 3.0
32.2691 6.0
32.3528 8.0
32.4365 9.0
32.5203 10.0
32.604 9.0
32.6877 11.0
32.7714 11.0
32.8551 14.0
32.9388 6.0
33.0225 9.0
33.1062 12.0
33.1899 7.0
33.2736 8.0
33.3573 9.0
33.441 6.0
33.5247 12.0
33.6084 7.0
33.6921 12.0
33.7758 11.0
33.8595 11.0
33.9432 7.0
34.027 11.0
34.1107 6.0
34.1944 7.0
34.2781 11.0
34.3618 9.0
34.4455 9.0
34.5292 16.0
34.6129 10.0
34.6966 8.0
34.7803 16.0
34.864 3.0
34.9477 8.0
35.0314 5.0
35.1151 10.0
35.1988 13.0
35.2825 11.0
35.3662 7.0
35.4499 7.0
35.5337 9.0
35.6174 5.0
35.7011 8.0
35.7848 9.0
35.8685 9.0
35.9522 10.0
36.0359 9.0
36.1196 10.0
36.2033 14.0
36.287 10.0
36.3707 10.0
36.4544 11.0
36.5381 8.0
36.6218 8.0
36.7055 7.0
36.7892 9.0
36.8729 8.0
36.9566 10.0
37.0404 12.0
37.1241 8.0
37.2078 14.0
37.2915 8.0
37.3752 14.0
37.4589 13.0
37.5426 10.0
37.6263 10.0
37.71 14.0
37.7937 12.0
37.8774 7.0
37.9611 12.0
38.0448 15.0
38.1285 10.0
38.2122 18.0
38.2959 20.0
38.3796 33.0
38.4633 62.0
38.5471 56.0
38.6308 91.0
38.7145 161.0
38.7982 271.0
38.8819 312.0
38.9656 343.0
39.0493 260.0
39.133 226.0
39.2167 143.0
39.3004 104.0
39.3841 66.0
39.4678 52.0
39.5515 28.0
39.6352 29.0
39.7189 32.0
39.8026 66.0
39.8863 19.0
39.97 8.0
40.0538 9.0
40.1375 16.0
40.2212 18.0
40.3049 22.0
40.3886 9.0
40.4723 8.0
40.556 17.0
40.6397 12.0
40.7234 16.0
40.8071 18.0
40.8908 10.0
40.9745 10.0
41.0582 19.0
41.1419 18.0
41.2256 21.0
41.3093 21.0
41.393 50.0
41.4767 74.0
41.5605 484.0
41.6442 2554.0
41.7279 3507.0
41.8116 108.0
41.8953 59.0
41.979 35.0
42.0627 37.0
42.1464 43.0
42.2301 21.0
42.3138 31.0
42.3975 26.0
42.4812 18.0
42.5649 29.0
42.6486 20.0
42.7323 14.0
42.816 25.0
42.8997 14.0
42.9834 15.0
43.0672 15.0
43.1509 12.0
43.2346 10.0
43.3183 13.0
43.402 9.0
43.4857 11.0
43.5694 12.0
43.6531 11.0
43.7368 14.0
43.8205 18.0
43.9042 17.0
43.9879 9.0
44.0716 8.0
44.1553 11.0
44.239 18.0
44.3227 20.0
44.4064 26.0
44.4901 17.0
44.5739 21.0
44.6576 8.0
44.7413 9.0
44.825 10.0
44.9087 12.0
44.9924 11.0
45.0761 12.0
45.1598 11.0
45.2435 7.0
45.3272 9.0
45.4109 10.0
45.4946 14.0
45.5783 6.0
45.662 11.0
45.7457 11.0
45.8294 8.0
45.9131 7.0
45.9968 12.0
46.0806 6.0
46.1643 10.0
46.248 7.0
46.3317 13.0
46.4154 15.0
46.4991 8.0
46.5828 8.0
46.6665 9.0
46.7502 8.0
46.8339 8.0
46.9176 6.0
47.0013 8.0
47.085 9.0
47.1687 12.0
47.2524 12.0
47.3361 7.0
47.4198 6.0
47.5035 14.0
47.5873 11.0
47.671 6.0
47.7547 7.0
47.8384 6.0
47.9221 9.0
48.0058 9.0
48.0895 6.0
48.1732 14.0
48.2569 8.0
48.3406 7.0
48.4243 7.0
48.508 9.0
48.5917 6.0
48.6754 7.0
48.7591 6.0
48.8428 7.0
48.9265 11.0
49.0102 8.0
49.094 4.0
49.1777 7.0
49.2614 3.0
49.3451 18.0
49.4288 8.0
49.5125 8.0
49.5962 7.0
49.6799 11.0
49.7636 14.0
49.8473 12.0
49.931 12.0
50.0147 7.0
50.0984 16.0
50.1821 7.0
50.2658 7.0
50.3495 9.0
50.4332 12.0
50.5169 7.0
50.6007 10.0
50.6844 9.0
50.7681 8.0
50.8518 10.0
50.9355 15.0
51.0192 6.0
51.1029 13.0
51.1866 7.0
51.2703 9.0
51.354 11.0
51.4377 8.0
51.5214 12.0
51.6051 7.0
51.6888 8.0
51.7725 10.0
51.8562 8.0
51.9399 6.0
52.0236 9.0
52.1074 13.0
52.1911 5.0
52.2748 11.0
52.3585 11.0
52.4422 8.0
52.5259 8.0
52.6096 7.0
52.6933 8.0
52.777 8.0
52.8607 8.0
52.9444 11.0
53.0281 10.0
53.1118 11.0
53.1955 7.0
53.2792 10.0
53.3629 5.0
53.4466 10.0
53.5303 13.0
53.6141 10.0
53.6978 19.0
53.7815 8.0
53.8652 7.0
53.9489 12.0
54.0326 6.0
54.1163 18.0
54.2 7.0
54.2837 9.0
54.3674 12.0
54.4511 11.0
54.5348 8.0
54.6185 6.0
54.7022 5.0
54.7859 12.0
54.8696 9.0
54.9533 11.0
55.037 4.0
55.1208 8.0
55.2045 10.0
55.2882 5.0
55.3719 8.0
55.4556 4.0
55.5393 9.0
55.623 11.0
55.7067 11.0
55.7904 4.0
55.8741 5.0
55.9578 8.0
56.0415 8.0
56.1252 9.0
56.2089 10.0
56.2926 8.0
56.3763 10.0
56.46 10.0
56.5437 11.0
56.6275 5.0
56.7112 9.0
56.7949 7.0
56.8786 13.0
56.9623 12.0
57.046 9.0
57.1297 12.0
57.2134 11.0
57.2971 7.0
57.3808 13.0
57.4645 11.0
57.5482 11.0
57.6319 9.0
57.7156 10.0
57.7993 6.0
57.883 12.0
57.9667 10.0
58.0504 10.0
58.1342 11.0
58.2179 6.0
58.3016 5.0
58.3853 3.0
58.469 15.0
58.5527 9.0
58.6364 12.0
58.7201 5.0
58.8038 9.0
58.8875 9.0
58.9712 11.0
59.0549 12.0
59.1386 13.0
59.2223 15.0
59.306 10.0
59.3897 14.0
59.4734 14.0
59.5571 6.0
59.6409 15.0
59.7246 10.0
59.8083 12.0
59.892 10.0
59.9757 7.0
60.0594 19.0
60.1431 10.0
60.2268 8.0
60.3105 14.0
60.3942 12.0
60.4779 13.0
60.5616 10.0
60.6453 10.0
60.729 11.0
60.8127 10.0
60.8964 10.0
60.9801 11.0
61.0638 6.0
61.1476 8.0
61.2313 13.0
61.315 10.0
61.3987 16.0
61.4824 10.0
61.5661 9.0
61.6498 12.0
61.7335 7.0
61.8172 9.0
61.9009 13.0
61.9846 12.0
62.0683 7.0
62.152 15.0
62.2357 9.0
62.3194 12.0
62.4031 10.0
62.4868 8.0
62.5705 7.0
62.6543 3.0
62.738 10.0
62.8217 5.0
62.9054 6.0
62.9891 9.0
63.0728 9.0
63.1565 12.0
63.2402 9.0
63.3239 8.0
63.4076 14.0
63.4913 12.0
63.575 7.0
63.6587 10.0
63.7424 10.0
63.8261 13.0
63.9098 12.0
63.9935 14.0
64.0772 11.0
64.161 14.0
64.2447 12.0
64.3284 9.0
64.4121 10.0
64.4958 7.0
64.5795 10.0
64.6632 11.0
64.7469 16.0
64.8306 13.0
64.9143 2.0
64.998 13.0
65.0817 8.0
65.1654 11.0
65.2491 10.0
65.3328 11.0
65.4165 15.0
65.5002 14.0
65.5839 8.0
65.6677 5.0
65.7514 16.0
65.8351 16.0
65.9188 9.0
66.0025 18.0
66.0862 11.0
66.1699 6.0
66.2536 17.0
66.3373 11.0
66.421 15.0
66.5047 8.0
66.5884 13.0
66.6721 9.0
66.7558 16.0
66.8395 9.0
66.9232 12.0
67.0069 9.0
67.0906 11.0
67.1744 13.0
67.2581 10.0
67.3418 11.0
67.4255 10.0
67.5092 8.0
67.5929 8.0
67.6766 6.0
67.7603 9.0
67.844 11.0
67.9277 13.0
68.0114 10.0
68.0951 8.0
68.1788 9.0
68.2625 13.0
68.3462 6.0
68.4299 10.0
68.5136 12.0
68.5973 9.0
68.6811 8.0
68.7648 13.0
68.8485 7.0
68.9322 9.0
69.0159 10.0
69.0996 13.0
69.1833 9.0
69.267 11.0
69.3507 10.0
69.4344 11.0
69.5181 7.0
69.6018 7.0
69.6855 9.0
69.7692 9.0
69.8529 13.0
69.9366 17.0
70.0203 14.0
70.104 13.0
70.1878 13.0
70.2715 12.0
70.3552 7.0
70.4389 7.0
70.5226 10.0
70.6063 9.0
70.69 11.0
70.7737 8.0
70.8574 14.0
70.9411 11.0
71.0248 10.0
71.1085 14.0
71.1922 9.0
71.2759 8.0
71.3596 17.0
71.4433 9.0
71.527 6.0
71.6107 7.0
71.6945 10.0
71.7782 11.0
71.8619 13.0
71.9456 8.0
72.0293 7.0
72.113 9.0
72.1967 11.0
72.2804 8.0
72.3641 7.0
72.4478 14.0
72.5315 18.0
72.6152 9.0
72.6989 13.0
72.7826 15.0
72.8663 18.0
72.95 16.0
73.0337 8.0
73.1174 5.0
73.2012 13.0
73.2849 12.0
73.3686 6.0
73.4523 19.0
73.536 11.0
73.6197 14.0
73.7034 10.0
73.7871 10.0
73.8708 8.0
73.9545 8.0
74.0382 8.0
74.1219 7.0
74.2056 13.0
74.2893 15.0
74.373 7.0
74.4567 11.0
74.5404 10.0
74.6241 11.0
74.7079 12.0
74.7916 7.0
74.8753 7.0
74.959 11.0
75.0427 14.0
75.1264 11.0
75.2101 13.0
75.2938 11.0
75.3775 9.0
75.4612 11.0
75.5449 14.0
75.6286 12.0
75.7123 10.0
75.796 9.0
75.8797 12.0
75.9634 11.0
76.0471 9.0
76.1308 11.0
76.2146 16.0
76.2983 11.0
76.382 11.0
76.4657 13.0
76.5494 10.0
76.6331 7.0
76.7168 9.0
76.8005 17.0
76.8842 13.0
76.9679 5.0
77.0516 8.0
77.1353 13.0
77.219 10.0
77.3027 9.0
77.3864 15.0
77.4701 12.0
77.5538 6.0
77.6375 11.0
77.7213 13.0
77.805 18.0
77.8887 17.0
77.9724 7.0
78.0561 9.0
78.1398 16.0
78.2235 9.0
78.3072 11.0
78.3909 9.0
78.4746 9.0
78.5583 13.0
78.642 11.0
78.7257 20.0
78.8094 12.0
78.8931 17.0
78.9768 11.0
79.0605 11.0
79.1442 9.0
79.228 15.0
79.3117 8.0
79.3954 14.0
79.4791 10.0
79.5628 14.0
79.6465 9.0
79.7302 9.0
79.8139 14.0
79.8976 17.0
79.9813 21.0
80.065 23.0
80.1487 10.0
80.2324 8.0
80.3161 13.0
80.3998 15.0
80.4835 10.0
80.5672 15.0
80.6509 10.0
80.7347 14.0
80.8184 11.0
80.9021 15.0
80.9858 15.0
81.0695 9.0
81.1532 13.0
81.2369 15.0
81.3206 10.0
81.4043 13.0
81.488 10.0
81.5717 14.0
81.6554 12.0
81.7391 8.0
81.8228 17.0
81.9065 16.0
81.9902 24.0
82.0739 10.0
82.1576 15.0
82.2414 14.0
82.3251 11.0
82.4088 11.0
82.4925 15.0
82.5762 19.0
82.6599 23.0
82.7436 20.0
82.8273 16.0
82.911 38.0
82.9947 17.0
83.0784 27.0
83.1621 35.0
83.2458 29.0
83.3295 40.0
83.4132 60.0
83.4969 65.0
83.5806 56.0
83.6643 58.0
83.7481 66.0
83.8318 58.0
83.9155 61.0
83.9992 47.0
84.0829 53.0
84.1666 41.0
84.2503 37.0
84.334 46.0
84.4177 28.0
84.5014 24.0
84.5851 29.0
84.6688 20.0
84.7525 16.0
84.8362 18.0
84.9199 22.0
85.0036 11.0
85.0873 15.0
85.171 13.0
85.2548 14.0
85.3385 14.0
85.4222 16.0
85.5059 9.0
85.5896 12.0
85.6733 22.0
85.757 14.0
85.8407 23.0
85.9244 41.0
86.0081 25.0
86.0918 9.0
86.1755 11.0
86.2592 17.0
86.3429 17.0
86.4266 19.0
86.5103 9.0
86.594 15.0
86.6777 17.0
86.7615 17.0
86.8452 16.0
86.9289 17.0
87.0126 19.0
87.0963 14.0
87.18 19.0
87.2637 14.0
87.3474 12.0
87.4311 13.0
87.5148 14.0
87.5985 10.0
87.6822 9.0
87.7659 17.0
87.8496 15.0
87.9333 16.0
88.017 16.0
88.1007 11.0
88.1844 24.0
88.2682 8.0
88.3519 18.0
88.4356 11.0
88.5193 17.0
88.603 11.0
88.6867 10.0
88.7704 11.0
88.8541 22.0
88.9378 16.0
89.0215 23.0
89.1052 16.0
89.1889 13.0
89.2726 20.0
89.3563 20.0
89.44 18.0
89.5237 17.0
89.6074 17.0
89.6911 19.0
89.7749 22.0
89.8586 30.0
89.9423 22.0
90.026 30.0
90.1097 33.0
90.1934 58.0
90.2771 65.0
90.3608 61.0
90.4445 89.0
90.5282 191.0
90.6119 1269.0
90.6956 6223.0
90.7793 526.0
90.863 370.0
90.9467 3447.0
91.0304 858.0
91.1141 161.0
91.1978 87.0
91.2816 57.0
91.3653 53.0
91.449 46.0
91.5327 43.0
91.6164 26.0
91.7001 29.0
91.7838 18.0
91.8675 23.0
91.9512 21.0
92.0349 29.0
92.1186 21.0
92.2023 16.0
92.286 22.0
92.3697 22.0
92.4534 19.0
92.5371 23.0
92.6208 21.0
92.7045 15.0
92.7883 23.0
92.872 26.0
92.9557 18.0
93.0394 11.0
93.1231 20.0
93.2068 15.0
93.2905 16.0
93.3742 23.0
93.4579 21.0
93.5416 22.0
93.6253 13.0
93.709 19.0
93.7927 15.0
93.8764 13.0
93.9601 18.0
94.0438 16.0
94.1275 15.0
94.2112 9.0
94.295 14.0
94.3787 11.0
94.4624 10.0
94.5461 11.0
94.6298 19.0
94.7135 13.0
94.7972 11.0
94.8809 16.0
94.9646 16.0
95.0483 16.0
95.132 13.0
95.2157 10.0
95.2994 18.0
95.3831 17.0
95.4668 13.0
95.5505 13.0
95.6342 9.0
95.7179 10.0
95.8017 16.0
95.8854 12.0
95.9691 17.0
96.0528 11.0
96.1365 13.0
96.2202 10.0
96.3039 11.0
96.3876 13.0
96.4713 8.0
96.555 13.0
96.6387 12.0
96.7224 14.0
96.8061 9.0
96.8898 12.0
96.9735 14.0
97.0572 15.0
97.1409 13.0
97.2246 14.0
97.3084 12.0
97.3921 12.0
97.4758 9.0
97.5595 22.0
97.6432 13.0
97.7269 8.0
97.8106 13.0
97.8943 9.0
97.978 19.0
98.0617 14.0
98.1454 8.0
98.2291 9.0
98.3128 17.0
98.3965 12.0
98.4802 14.0
98.5639 5.0
98.6476 15.0
98.7313 15.0
98.8151 11.0
98.8988 11.0
98.9825 8.0
99.0662 7.0
99.1499 9.0
99.2336 11.0
99.3173 10.0
99.401 10.0
99.4847 9.0
99.5684 14.0
99.6521 8.0
99.7358 18.0
99.8195 10.0
99.9032 10.0
99.9869 15.0
100.071 16.0
100.154 15.0
100.238 23.0
100.322 20.0
100.405 9.0
100.489 11.0
100.573 13.0
100.657 11.0
100.74 15.0
100.824 13.0
100.908 14.0
100.991 9.0
101.075 10.0
101.159 19.0
101.243 8.0
101.326 9.0
101.41 16.0
101.494 16.0
101.577 13.0
101.661 13.0
101.745 13.0
101.828 11.0
101.912 13.0
101.996 8.0
102.08 10.0
102.163 9.0
102.247 10.0
102.331 16.0
102.414 9.0
102.498 11.0
102.582 13.0
102.666 14.0
102.749 6.0
102.833 14.0
102.917 9.0
103 15.0
103.084 13.0
103.168 13.0
103.251 17.0
103.335 11.0
103.419 13.0
103.503 14.0
103.586 19.0
103.67 10.0
103.754 10.0
103.837 10.0
103.921 13.0
104.005 15.0
104.089 18.0
104.172 12.0
104.256 11.0
104.34 7.0
104.423 19.0
104.507 12.0
104.591 15.0
104.674 9.0
104.758 8.0
104.842 9.0
104.926 12.0
105.009 16.0
105.093 10.0
105.177 12.0
105.26 14.0
105.344 10.0
105.428 11.0
105.511 11.0
105.595 13.0
105.679 17.0
105.763 5.0
105.846 16.0
105.93 12.0
106.014 13.0
106.097 15.0
106.181 10.0
106.265 17.0
106.349 8.0
106.432 19.0
106.516 7.0
106.6 17.0
106.683 14.0
106.767 18.0
106.851 14.0
106.934 12.0
107.018 11.0
107.102 9.0
107.186 12.0
107.269 15.0
107.353 9.0
107.437 10.0
107.52 15.0
107.604 11.0
107.688 9.0
107.772 8.0
107.855 13.0
107.939 13.0
108.023 8.0
108.106 8.0
108.19 13.0
108.274 8.0
108.357 16.0
108.441 17.0
108.525 21.0
108.609 12.0
108.692 13.0
108.776 22.0
108.86 13.0
108.943 13.0
109.027 7.0
109.111 9.0
109.195 11.0
109.278 10.0
109.362 14.0
109.446 13.0
109.529 13.0
109.613 15.0
109.697 11.0
109.78 16.0
109.864 7.0
109.948 14.0
110.032 21.0
110.115 7.0
110.199 4.0
110.283 11.0
110.366 17.0
110.45 12.0
110.534 19.0
110.618 9.0
110.701 12.0
110.785 7.0
110.869 7.0
110.952 11.0
111.036 9.0
111.12 10.0
111.203 18.0
111.287 10.0
111.371 10.0
111.455 16.0
111.538 16.0
111.622 6.0
111.706 15.0
111.789 10.0
111.873 11.0
111.957 12.0
112.041 19.0
112.124 16.0
112.208 12.0
112.292 4.0
112.375 11.0
112.459 6.0
112.543 10.0
112.626 10.0
112.71 13.0
112.794 10.0
112.878 5.0
112.961 17.0
113.045 12.0
113.129 10.0
113.212 13.0
113.296 9.0
113.38 11.0
113.464 12.0
113.547 10.0
113.631 9.0
113.715 16.0
113.798 13.0
113.882 9.0
113.966 6.0
114.049 12.0
114.133 14.0
114.217 10.0
114.301 18.0
114.384 8.0
114.468 18.0
114.552 13.0
114.635 12.0
114.719 9.0
114.803 14.0
114.887 10.0
114.97 13.0
115.054 16.0
115.138 7.0
115.221 7.0
115.305 13.0
115.389 17.0
115.472 4.0
115.556 16.0
115.64 17.0
115.724 12.0
115.807 22.0
115.891 15.0
115.975 16.0
116.058 13.0
116.142 5.0
116.226 5.0
116.31 15.0
116.393 22.0
116.477 14.0
116.561 12.0
116.644 22.0
116.728 10.0
116.812 14.0
116.895 12.0
116.979 18.0
117.063 16.0
117.147 18.0
117.23 13.0
117.314 9.0
117.398 16.0
117.481 6.0
117.565 9.0
117.649 13.0
117.733 13.0
117.816 12.0
117.9 17.0
117.984 13.0
118.067 11.0
118.151 13.0
118.235 11.0
118.318 9.0
118.402 12.0
118.486 10.0
118.57 15.0
118.653 13.0
118.737 9.0
118.821 8.0
118.904 14.0
118.988 13.0
119.072 16.0
119.156 13.0
119.239 11.0
119.323 9.0
119.407 10.0
119.49 20.0
119.574 5.0
119.658 6.0
119.741 21.0
119.825 12.0
119.909 17.0
119.993 11.0
120.076 10.0
120.16 16.0
120.244 11.0
120.327 7.0
120.411 14.0
120.495 15.0
120.578 11.0
120.662 15.0
120.746 23.0
120.83 15.0
120.913 7.0
120.997 17.0
121.081 18.0
121.164 15.0
121.248 10.0
121.332 21.0
121.416 15.0
121.499 13.0
121.583 14.0
121.667 17.0
121.75 14.0
121.834 8.0
121.918 16.0
122.001 17.0
122.085 10.0
122.169 12.0
122.253 18.0
122.336 13.0
122.42 11.0
122.504 17.0
122.587 16.0
122.671 19.0
122.755 15.0
122.839 13.0
122.922 13.0
123.006 14.0
123.09 12.0
123.173 10.0
123.257 14.0
123.341 19.0
123.424 13.0
123.508 14.0
123.592 13.0
123.676 8.0
123.759 13.0
123.843 12.0
123.927 14.0
124.01 11.0
124.094 12.0
124.178 17.0
124.262 16.0
124.345 13.0
124.429 11.0
124.513 20.0
124.596 13.0
124.68 13.0
124.764 12.0
124.847 13.0
124.931 11.0
125.015 17.0
125.099 11.0
125.182 13.0
125.266 15.0
125.35 16.0
125.433 13.0
125.517 14.0
125.601 13.0
125.685 15.0
125.768 13.0
125.852 10.0
125.936 7.0
126.019 10.0
126.103 20.0
126.187 19.0
126.27 12.0
126.354 12.0
126.438 14.0
126.522 15.0
126.605 12.0
126.689 13.0
126.773 16.0
126.856 12.0
126.94 8.0
127.024 13.0
127.108 18.0
127.191 16.0
127.275 5.0
127.359 19.0
127.442 11.0
127.526 15.0
127.61 12.0
127.693 12.0
127.777 15.0
127.861 21.0
127.945 14.0
128.028 15.0
128.112 10.0
128.196 18.0
128.279 17.0
128.363 12.0
128.447 21.0
128.531 23.0
128.614 10.0
128.698 19.0
128.782 17.0
128.865 13.0
128.949 13.0
129.033 10.0
129.116 14.0
129.2 4.0
129.284 9.0
129.368 9.0
129.451 10.0
129.535 17.0
129.619 12.0
129.702 8.0
129.786 23.0
129.87 9.0
129.954 13.0
129.998 10.0