File: data/W6856a/XRD_2ThetaOmega/W6856a_absolute_2th-om_10-130deg_PIXscan_17min_5.xy
10.0035 18.0
10.0872 27.0
10.1709 21.0
10.2546 19.0
10.3383 21.0
10.422 20.0
10.5057 34.0
10.5894 15.0
10.6731 21.0
10.7568 27.0
10.8405 27.0
10.9242 19.0
11.0079 16.0
11.0916 14.0
11.1753 27.0
11.259 22.0
11.3428 16.0
11.4265 15.0
11.5102 23.0
11.5939 17.0
11.6776 23.0
11.7613 16.0
11.845 22.0
11.9287 28.0
12.0124 25.0
12.0961 20.0
12.1798 14.0
12.2635 25.0
12.3472 9.0
12.4309 19.0
12.5146 30.0
12.5983 16.0
12.682 22.0
12.7657 20.0
12.8495 14.0
12.9332 24.0
13.0169 19.0
13.1006 15.0
13.1843 24.0
13.268 22.0
13.3517 29.0
13.4354 17.0
13.5191 27.0
13.6028 13.0
13.6865 22.0
13.7702 17.0
13.8539 16.0
13.9376 13.0
14.0213 18.0
14.105 11.0
14.1887 15.0
14.2724 19.0
14.3562 14.0
14.4399 13.0
14.5236 20.0
14.6073 22.0
14.691 20.0
14.7747 10.0
14.8584 18.0
14.9421 15.0
15.0258 15.0
15.1095 15.0
15.1932 13.0
15.2769 22.0
15.3606 15.0
15.4443 18.0
15.528 17.0
15.6117 13.0
15.6954 16.0
15.7791 16.0
15.8629 14.0
15.9466 16.0
16.0303 14.0
16.114 18.0
16.1977 15.0
16.2814 19.0
16.3651 15.0
16.4488 10.0
16.5325 15.0
16.6162 8.0
16.6999 19.0
16.7836 12.0
16.8673 11.0
16.951 17.0
17.0347 18.0
17.1184 12.0
17.2021 14.0
17.2858 17.0
17.3696 14.0
17.4533 11.0
17.537 17.0
17.6207 16.0
17.7044 16.0
17.7881 11.0
17.8718 9.0
17.9555 11.0
18.0392 9.0
18.1229 12.0
18.2066 12.0
18.2903 20.0
18.374 16.0
18.4577 18.0
18.5414 13.0
18.6251 17.0
18.7088 14.0
18.7925 18.0
18.8763 17.0
18.96 16.0
19.0437 11.0
19.1274 14.0
19.2111 17.0
19.2948 13.0
19.3785 8.0
19.4622 15.0
19.5459 16.0
19.6296 13.0
19.7133 13.0
19.797 8.0
19.8807 9.0
19.9644 16.0
20.0481 16.0
20.1318 15.0
20.2155 11.0
20.2992 16.0
20.383 10.0
20.4667 11.0
20.5504 13.0
20.6341 11.0
20.7178 6.0
20.8015 12.0
20.8852 13.0
20.9689 18.0
21.0526 7.0
21.1363 14.0
21.22 9.0
21.3037 8.0
21.3874 16.0
21.4711 11.0
21.5548 13.0
21.6385 7.0
21.7222 13.0
21.8059 9.0
21.8897 17.0
21.9734 12.0
22.0571 12.0
22.1408 6.0
22.2245 15.0
22.3082 11.0
22.3919 18.0
22.4756 10.0
22.5593 16.0
22.643 11.0
22.7267 15.0
22.8104 15.0
22.8941 12.0
22.9778 16.0
23.0615 14.0
23.1452 16.0
23.2289 10.0
23.3126 9.0
23.3964 17.0
23.4801 12.0
23.5638 7.0
23.6475 9.0
23.7312 11.0
23.8149 6.0
23.8986 12.0
23.9823 9.0
24.066 9.0
24.1497 10.0
24.2334 6.0
24.3171 6.0
24.4008 8.0
24.4845 14.0
24.5682 11.0
24.6519 14.0
24.7356 11.0
24.8193 8.0
24.9031 10.0
24.9868 10.0
25.0705 8.0
25.1542 7.0
25.2379 9.0
25.3216 13.0
25.4053 8.0
25.489 18.0
25.5727 9.0
25.6564 13.0
25.7401 14.0
25.8238 12.0
25.9075 7.0
25.9912 12.0
26.0749 7.0
26.1586 12.0
26.2423 6.0
26.326 12.0
26.4098 4.0
26.4935 10.0
26.5772 8.0
26.6609 11.0
26.7446 14.0
26.8283 6.0
26.912 15.0
26.9957 9.0
27.0794 19.0
27.1631 10.0
27.2468 5.0
27.3305 8.0
27.4142 3.0
27.4979 13.0
27.5816 7.0
27.6653 10.0
27.749 9.0
27.8327 11.0
27.9165 13.0
28.0002 8.0
28.0839 13.0
28.1676 4.0
28.2513 3.0
28.335 14.0
28.4187 13.0
28.5024 10.0
28.5861 7.0
28.6698 9.0
28.7535 4.0
28.8372 11.0
28.9209 12.0
29.0046 7.0
29.0883 10.0
29.172 7.0
29.2557 5.0
29.3394 8.0
29.4232 12.0
29.5069 9.0
29.5906 14.0
29.6743 9.0
29.758 10.0
29.8417 14.0
29.9254 5.0
30.0091 15.0
30.0928 5.0
30.1765 7.0
30.2602 9.0
30.3439 10.0
30.4276 6.0
30.5113 13.0
30.595 8.0
30.6787 11.0
30.7624 7.0
30.8461 11.0
30.9298 6.0
31.0136 5.0
31.0973 13.0
31.181 16.0
31.2647 10.0
31.3484 4.0
31.4321 9.0
31.5158 8.0
31.5995 10.0
31.6832 6.0
31.7669 12.0
31.8506 10.0
31.9343 6.0
32.018 7.0
32.1017 10.0
32.1854 3.0
32.2691 12.0
32.3528 11.0
32.4365 7.0
32.5203 15.0
32.604 22.0
32.6877 10.0
32.7714 8.0
32.8551 8.0
32.9388 15.0
33.0225 15.0
33.1062 10.0
33.1899 18.0
33.2736 10.0
33.3573 6.0
33.441 10.0
33.5247 17.0
33.6084 18.0
33.6921 12.0
33.7758 11.0
33.8595 23.0
33.9432 45.0
34.027 30.0
34.1107 15.0
34.1944 21.0
34.2781 21.0
34.3618 22.0
34.4455 14.0
34.5292 26.0
34.6129 23.0
34.6966 37.0
34.7803 40.0
34.864 26.0
34.9477 67.0
35.0314 114.0
35.1151 234.0
35.1988 475.0
35.2825 879.0
35.3662 1205.0
35.4499 1158.0
35.5337 673.0
35.6174 352.0
35.7011 220.0
35.7848 155.0
35.8685 120.0
35.9522 103.0
36.0359 106.0
36.1196 190.0
36.2033 71.0
36.287 47.0
36.3707 82.0
36.4544 36.0
36.5381 46.0
36.6218 34.0
36.7055 35.0
36.7892 26.0
36.8729 28.0
36.9566 34.0
37.0404 38.0
37.1241 50.0
37.2078 38.0
37.2915 56.0
37.3752 70.0
37.4589 103.0
37.5426 363.0
37.6263 631.0
37.71 27793.0
37.7937 13282.0
37.8774 1008.0
37.9611 324.0
38.0448 158.0
38.1285 131.0
38.2122 121.0
38.2959 101.0
38.3796 85.0
38.4633 74.0
38.5471 80.0
38.6308 50.0
38.7145 43.0
38.7982 52.0
38.8819 41.0
38.9656 38.0
39.0493 28.0
39.133 30.0
39.2167 21.0
39.3004 26.0
39.3841 15.0
39.4678 15.0
39.5515 15.0
39.6352 13.0
39.7189 13.0
39.8026 12.0
39.8863 18.0
39.97 15.0
40.0538 10.0
40.1375 14.0
40.2212 8.0
40.3049 19.0
40.3886 11.0
40.4723 13.0
40.556 11.0
40.6397 13.0
40.7234 16.0
40.8071 11.0
40.8908 14.0
40.9745 10.0
41.0582 9.0
41.1419 11.0
41.2256 11.0
41.3093 8.0
41.393 13.0
41.4767 14.0
41.5605 8.0
41.6442 14.0
41.7279 11.0
41.8116 12.0
41.8953 9.0
41.979 12.0
42.0627 16.0
42.1464 15.0
42.2301 12.0
42.3138 6.0
42.3975 9.0
42.4812 7.0
42.5649 3.0
42.6486 11.0
42.7323 16.0
42.816 10.0
42.8997 9.0
42.9834 10.0
43.0672 14.0
43.1509 5.0
43.2346 12.0
43.3183 9.0
43.402 7.0
43.4857 15.0
43.5694 15.0
43.6531 9.0
43.7368 16.0
43.8205 7.0
43.9042 9.0
43.9879 14.0
44.0716 14.0
44.1553 18.0
44.239 19.0
44.3227 16.0
44.4064 28.0
44.4901 20.0
44.5739 15.0
44.6576 9.0
44.7413 18.0
44.825 10.0
44.9087 17.0
44.9924 10.0
45.0761 13.0
45.1598 12.0
45.2435 11.0
45.3272 8.0
45.4109 4.0
45.4946 7.0
45.5783 10.0
45.662 16.0
45.7457 19.0
45.8294 4.0
45.9131 5.0
45.9968 9.0
46.0806 7.0
46.1643 15.0
46.248 10.0
46.3317 8.0
46.4154 10.0
46.4991 16.0
46.5828 13.0
46.6665 13.0
46.7502 13.0
46.8339 16.0
46.9176 14.0
47.0013 9.0
47.085 18.0
47.1687 18.0
47.2524 19.0
47.3361 8.0
47.4198 12.0
47.5035 11.0
47.5873 9.0
47.671 9.0
47.7547 8.0
47.8384 10.0
47.9221 5.0
48.0058 11.0
48.0895 12.0
48.1732 11.0
48.2569 5.0
48.3406 15.0
48.4243 10.0
48.508 10.0
48.5917 11.0
48.6754 11.0
48.7591 7.0
48.8428 8.0
48.9265 13.0
49.0102 9.0
49.094 9.0
49.1777 9.0
49.2614 12.0
49.3451 13.0
49.4288 11.0
49.5125 12.0
49.5962 11.0
49.6799 9.0
49.7636 6.0
49.8473 11.0
49.931 9.0
50.0147 11.0
50.0984 11.0
50.1821 10.0
50.2658 12.0
50.3495 10.0
50.4332 18.0
50.5169 16.0
50.6007 8.0
50.6844 9.0
50.7681 11.0
50.8518 10.0
50.9355 12.0
51.0192 12.0
51.1029 12.0
51.1866 7.0
51.2703 10.0
51.354 7.0
51.4377 16.0
51.5214 14.0
51.6051 15.0
51.6888 12.0
51.7725 5.0
51.8562 18.0
51.9399 8.0
52.0236 10.0
52.1074 10.0
52.1911 14.0
52.2748 5.0
52.3585 18.0
52.4422 16.0
52.5259 12.0
52.6096 13.0
52.6933 9.0
52.777 9.0
52.8607 7.0
52.9444 10.0
53.0281 11.0
53.1118 19.0
53.1955 7.0
53.2792 14.0
53.3629 11.0
53.4466 16.0
53.5303 8.0
53.6141 10.0
53.6978 12.0
53.7815 13.0
53.8652 9.0
53.9489 14.0
54.0326 6.0
54.1163 15.0
54.2 11.0
54.2837 10.0
54.3674 18.0
54.4511 18.0
54.5348 11.0
54.6185 12.0
54.7022 11.0
54.7859 6.0
54.8696 8.0
54.9533 14.0
55.037 10.0
55.1208 15.0
55.2045 6.0
55.2882 7.0
55.3719 15.0
55.4556 10.0
55.5393 14.0
55.623 9.0
55.7067 7.0
55.7904 14.0
55.8741 6.0
55.9578 9.0
56.0415 5.0
56.1252 5.0
56.2089 9.0
56.2926 12.0
56.3763 12.0
56.46 8.0
56.5437 10.0
56.6275 13.0
56.7112 11.0
56.7949 12.0
56.8786 2.0
56.9623 9.0
57.046 9.0
57.1297 6.0
57.2134 11.0
57.2971 12.0
57.3808 11.0
57.4645 8.0
57.5482 10.0
57.6319 10.0
57.7156 13.0
57.7993 5.0
57.883 9.0
57.9667 12.0
58.0504 8.0
58.1342 8.0
58.2179 8.0
58.3016 16.0
58.3853 4.0
58.469 8.0
58.5527 7.0
58.6364 12.0
58.7201 11.0
58.8038 7.0
58.8875 10.0
58.9712 15.0
59.0549 12.0
59.1386 9.0
59.2223 5.0
59.306 15.0
59.3897 13.0
59.4734 13.0
59.5571 10.0
59.6409 10.0
59.7246 8.0
59.8083 8.0
59.892 12.0
59.9757 7.0
60.0594 17.0
60.1431 9.0
60.2268 12.0
60.3105 14.0
60.3942 13.0
60.4779 8.0
60.5616 12.0
60.6453 12.0
60.729 13.0
60.8127 11.0
60.8964 7.0
60.9801 13.0
61.0638 4.0
61.1476 7.0
61.2313 6.0
61.315 9.0
61.3987 13.0
61.4824 16.0
61.5661 10.0
61.6498 6.0
61.7335 7.0
61.8172 15.0
61.9009 11.0
61.9846 14.0
62.0683 7.0
62.152 17.0
62.2357 10.0
62.3194 10.0
62.4031 8.0
62.4868 11.0
62.5705 9.0
62.6543 13.0
62.738 14.0
62.8217 6.0
62.9054 11.0
62.9891 6.0
63.0728 10.0
63.1565 12.0
63.2402 12.0
63.3239 4.0
63.4076 19.0
63.4913 3.0
63.575 11.0
63.6587 13.0
63.7424 13.0
63.8261 9.0
63.9098 16.0
63.9935 17.0
64.0772 14.0
64.161 20.0
64.2447 9.0
64.3284 16.0
64.4121 9.0
64.4958 8.0
64.5795 13.0
64.6632 13.0
64.7469 9.0
64.8306 16.0
64.9143 11.0
64.998 12.0
65.0817 14.0
65.1654 10.0
65.2491 13.0
65.3328 5.0
65.4165 9.0
65.5002 14.0
65.5839 10.0
65.6677 10.0
65.7514 15.0
65.8351 10.0
65.9188 12.0
66.0025 19.0
66.0862 3.0
66.1699 9.0
66.2536 13.0
66.3373 15.0
66.421 11.0
66.5047 15.0
66.5884 9.0
66.6721 12.0
66.7558 7.0
66.8395 6.0
66.9232 10.0
67.0069 13.0
67.0906 10.0
67.1744 12.0
67.2581 10.0
67.3418 12.0
67.4255 11.0
67.5092 10.0
67.5929 18.0
67.6766 8.0
67.7603 13.0
67.844 12.0
67.9277 14.0
68.0114 12.0
68.0951 8.0
68.1788 7.0
68.2625 14.0
68.3462 10.0
68.4299 21.0
68.5136 9.0
68.5973 10.0
68.6811 10.0
68.7648 20.0
68.8485 10.0
68.9322 12.0
69.0159 12.0
69.0996 8.0
69.1833 12.0
69.267 12.0
69.3507 7.0
69.4344 8.0
69.5181 9.0
69.6018 10.0
69.6855 17.0
69.7692 9.0
69.8529 15.0
69.9366 15.0
70.0203 12.0
70.104 21.0
70.1878 16.0
70.2715 6.0
70.3552 13.0
70.4389 15.0
70.5226 12.0
70.6063 16.0
70.69 16.0
70.7737 15.0
70.8574 13.0
70.9411 15.0
71.0248 6.0
71.1085 5.0
71.1922 10.0
71.2759 17.0
71.3596 7.0
71.4433 12.0
71.527 24.0
71.6107 28.0
71.6945 14.0
71.7782 12.0
71.8619 8.0
71.9456 7.0
72.0293 11.0
72.113 12.0
72.1967 17.0
72.2804 16.0
72.3641 17.0
72.4478 6.0
72.5315 14.0
72.6152 9.0
72.6989 14.0
72.7826 6.0
72.8663 13.0
72.95 13.0
73.0337 21.0
73.1174 15.0
73.2012 17.0
73.2849 8.0
73.3686 8.0
73.4523 15.0
73.536 15.0
73.6197 12.0
73.7034 14.0
73.7871 18.0
73.8708 13.0
73.9545 14.0
74.0382 17.0
74.1219 15.0
74.2056 18.0
74.2893 18.0
74.373 27.0
74.4567 29.0
74.5404 24.0
74.6241 32.0
74.7079 37.0
74.7916 42.0
74.8753 47.0
74.959 50.0
75.0427 42.0
75.1264 46.0
75.2101 49.0
75.2938 51.0
75.3775 35.0
75.4612 26.0
75.5449 27.0
75.6286 23.0
75.7123 18.0
75.796 27.0
75.8797 18.0
75.9634 12.0
76.0471 14.0
76.1308 8.0
76.2146 14.0
76.2983 17.0
76.382 14.0
76.4657 8.0
76.5494 20.0
76.6331 43.0
76.7168 32.0
76.8005 17.0
76.8842 15.0
76.9679 18.0
77.0516 12.0
77.1353 14.0
77.219 11.0
77.3027 13.0
77.3864 9.0
77.4701 12.0
77.5538 13.0
77.6375 12.0
77.7213 6.0
77.805 14.0
77.8887 19.0
77.9724 12.0
78.0561 14.0
78.1398 6.0
78.2235 10.0
78.3072 17.0
78.3909 12.0
78.4746 18.0
78.5583 11.0
78.642 11.0
78.7257 10.0
78.8094 18.0
78.8931 12.0
78.9768 14.0
79.0605 19.0
79.1442 7.0
79.228 13.0
79.3117 17.0
79.3954 14.0
79.4791 26.0
79.5628 25.0
79.6465 21.0
79.7302 23.0
79.8139 19.0
79.8976 25.0
79.9813 20.0
80.065 28.0
80.1487 27.0
80.2324 58.0
80.3161 70.0
80.3998 51.0
80.4835 124.0
80.5672 529.0
80.6509 7441.0
80.7347 671.0
80.8184 460.0
80.9021 3826.0
80.9858 346.0
81.0695 107.0
81.1532 81.0
81.2369 54.0
81.3206 37.0
81.4043 38.0
81.488 38.0
81.5717 26.0
81.6554 22.0
81.7391 24.0
81.8228 41.0
81.9065 28.0
81.9902 17.0
82.0739 25.0
82.1576 22.0
82.2414 21.0
82.3251 26.0
82.4088 24.0
82.4925 27.0
82.5762 16.0
82.6599 17.0
82.7436 19.0
82.8273 19.0
82.911 19.0
82.9947 19.0
83.0784 21.0
83.1621 21.0
83.2458 10.0
83.3295 8.0
83.4132 19.0
83.4969 19.0
83.5806 21.0
83.6643 13.0
83.7481 21.0
83.8318 17.0
83.9155 17.0
83.9992 13.0
84.0829 19.0
84.1666 10.0
84.2503 18.0
84.334 14.0
84.4177 14.0
84.5014 6.0
84.5851 8.0
84.6688 12.0
84.7525 9.0
84.8362 17.0
84.9199 14.0
85.0036 13.0
85.0873 16.0
85.171 11.0
85.2548 15.0
85.3385 8.0
85.4222 8.0
85.5059 10.0
85.5896 14.0
85.6733 15.0
85.757 7.0
85.8407 13.0
85.9244 11.0
86.0081 16.0
86.0918 11.0
86.1755 25.0
86.2592 13.0
86.3429 7.0
86.4266 24.0
86.5103 13.0
86.594 10.0
86.6777 14.0
86.7615 21.0
86.8452 14.0
86.9289 12.0
87.0126 7.0
87.0963 12.0
87.18 11.0
87.2637 13.0
87.3474 8.0
87.4311 5.0
87.5148 6.0
87.5985 7.0
87.6822 9.0
87.7659 10.0
87.8496 17.0
87.9333 19.0
88.017 17.0
88.1007 12.0
88.1844 12.0
88.2682 12.0
88.3519 19.0
88.4356 9.0
88.5193 24.0
88.603 16.0
88.6867 16.0
88.7704 11.0
88.8541 14.0
88.9378 8.0
89.0215 8.0
89.1052 13.0
89.1889 8.0
89.2726 12.0
89.3563 2.0
89.44 11.0
89.5237 6.0
89.6074 10.0
89.6911 12.0
89.7749 10.0
89.8586 12.0
89.9423 13.0
90.026 17.0
90.1097 11.0
90.1934 13.0
90.2771 12.0
90.3608 11.0
90.4445 12.0
90.5282 14.0
90.6119 13.0
90.6956 14.0
90.7793 22.0
90.863 9.0
90.9467 14.0
91.0304 13.0
91.1141 15.0
91.1978 12.0
91.2816 8.0
91.3653 8.0
91.449 10.0
91.5327 7.0
91.6164 20.0
91.7001 6.0
91.7838 8.0
91.8675 8.0
91.9512 12.0
92.0349 7.0
92.1186 20.0
92.2023 10.0
92.286 9.0
92.3697 13.0
92.4534 11.0
92.5371 9.0
92.6208 8.0
92.7045 13.0
92.7883 14.0
92.872 12.0
92.9557 12.0
93.0394 6.0
93.1231 9.0
93.2068 9.0
93.2905 14.0
93.3742 9.0
93.4579 13.0
93.5416 8.0
93.6253 10.0
93.709 10.0
93.7927 12.0
93.8764 11.0
93.9601 7.0
94.0438 8.0
94.1275 13.0
94.2112 13.0
94.295 11.0
94.3787 10.0
94.4624 8.0
94.5461 8.0
94.6298 9.0
94.7135 14.0
94.7972 13.0
94.8809 12.0
94.9646 8.0
95.0483 10.0
95.132 14.0
95.2157 13.0
95.2994 14.0
95.3831 7.0
95.4668 7.0
95.5505 10.0
95.6342 18.0
95.7179 12.0
95.8017 11.0
95.8854 3.0
95.9691 17.0
96.0528 7.0
96.1365 16.0
96.2202 7.0
96.3039 10.0
96.3876 14.0
96.4713 9.0
96.555 9.0
96.6387 9.0
96.7224 14.0
96.8061 12.0
96.8898 4.0
96.9735 8.0
97.0572 14.0
97.1409 18.0
97.2246 10.0
97.3084 13.0
97.3921 17.0
97.4758 9.0
97.5595 15.0
97.6432 10.0
97.7269 18.0
97.8106 8.0
97.8943 13.0
97.978 15.0
98.0617 8.0
98.1454 15.0
98.2291 13.0
98.3128 9.0
98.3965 8.0
98.4802 13.0
98.5639 11.0
98.6476 14.0
98.7313 12.0
98.8151 12.0
98.8988 12.0
98.9825 15.0
99.0662 15.0
99.1499 13.0
99.2336 17.0
99.3173 10.0
99.401 16.0
99.4847 8.0
99.5684 8.0
99.6521 10.0
99.7358 11.0
99.8195 6.0
99.9032 6.0
99.9869 13.0
100.071 8.0
100.154 16.0
100.238 4.0
100.322 13.0
100.405 17.0
100.489 13.0
100.573 10.0
100.657 10.0
100.74 20.0
100.824 11.0
100.908 9.0
100.991 16.0
101.075 10.0
101.159 14.0
101.243 7.0
101.326 10.0
101.41 10.0
101.494 21.0
101.577 12.0
101.661 14.0
101.745 7.0
101.828 15.0
101.912 8.0
101.996 12.0
102.08 7.0
102.163 11.0
102.247 9.0
102.331 8.0
102.414 8.0
102.498 13.0
102.582 12.0
102.666 10.0
102.749 13.0
102.833 11.0
102.917 7.0
103 8.0
103.084 13.0
103.168 4.0
103.251 17.0
103.335 13.0
103.419 16.0
103.503 7.0
103.586 13.0
103.67 12.0
103.754 11.0
103.837 14.0
103.921 4.0
104.005 12.0
104.089 11.0
104.172 11.0
104.256 12.0
104.34 11.0
104.423 12.0
104.507 18.0
104.591 5.0
104.674 13.0
104.758 11.0
104.842 7.0
104.926 16.0
105.009 9.0
105.093 17.0
105.177 7.0
105.26 9.0
105.344 14.0
105.428 4.0
105.511 10.0
105.595 6.0
105.679 13.0
105.763 11.0
105.846 5.0
105.93 10.0
106.014 7.0
106.097 10.0
106.181 6.0
106.265 17.0
106.349 4.0
106.432 9.0
106.516 12.0
106.6 12.0
106.683 11.0
106.767 15.0
106.851 18.0
106.934 13.0
107.018 7.0
107.102 10.0
107.186 7.0
107.269 9.0
107.353 10.0
107.437 14.0
107.52 7.0
107.604 12.0
107.688 13.0
107.772 20.0
107.855 13.0
107.939 16.0
108.023 12.0
108.106 20.0
108.19 11.0
108.274 12.0
108.357 9.0
108.441 13.0
108.525 15.0
108.609 12.0
108.692 7.0
108.776 9.0
108.86 17.0
108.943 14.0
109.027 17.0
109.111 10.0
109.195 9.0
109.278 12.0
109.362 6.0
109.446 10.0
109.529 10.0
109.613 15.0
109.697 11.0
109.78 11.0
109.864 12.0
109.948 14.0
110.032 8.0
110.115 11.0
110.199 9.0
110.283 12.0
110.366 5.0
110.45 12.0
110.534 7.0
110.618 16.0
110.701 10.0
110.785 11.0
110.869 14.0
110.952 7.0
111.036 10.0
111.12 6.0
111.203 9.0
111.287 12.0
111.371 9.0
111.455 7.0
111.538 12.0
111.622 9.0
111.706 15.0
111.789 12.0
111.873 11.0
111.957 8.0
112.041 16.0
112.124 8.0
112.208 9.0
112.292 14.0
112.375 24.0
112.459 8.0
112.543 12.0
112.626 16.0
112.71 10.0
112.794 11.0
112.878 14.0
112.961 9.0
113.045 12.0
113.129 11.0
113.212 8.0
113.296 9.0
113.38 20.0
113.464 16.0
113.547 6.0
113.631 7.0
113.715 7.0
113.798 13.0
113.882 14.0
113.966 12.0
114.049 18.0
114.133 9.0
114.217 13.0
114.301 11.0
114.384 17.0
114.468 8.0
114.552 11.0
114.635 6.0
114.719 11.0
114.803 9.0
114.887 14.0
114.97 9.0
115.054 12.0
115.138 9.0
115.221 11.0
115.305 11.0
115.389 15.0
115.472 10.0
115.556 14.0
115.64 11.0
115.724 10.0
115.807 14.0
115.891 8.0
115.975 12.0
116.058 9.0
116.142 11.0
116.226 15.0
116.31 12.0
116.393 16.0
116.477 8.0
116.561 6.0
116.644 15.0
116.728 9.0
116.812 5.0
116.895 9.0
116.979 10.0
117.063 16.0
117.147 14.0
117.23 14.0
117.314 13.0
117.398 15.0
117.481 12.0
117.565 14.0
117.649 15.0
117.733 8.0
117.816 10.0
117.9 16.0
117.984 11.0
118.067 10.0
118.151 12.0
118.235 8.0
118.318 10.0
118.402 12.0
118.486 15.0
118.57 7.0
118.653 11.0
118.737 7.0
118.821 14.0
118.904 9.0
118.988 22.0
119.072 20.0
119.156 4.0
119.239 10.0
119.323 11.0
119.407 13.0
119.49 13.0
119.574 11.0
119.658 6.0
119.741 6.0
119.825 8.0
119.909 15.0
119.993 6.0
120.076 7.0
120.16 20.0
120.244 12.0
120.327 8.0
120.411 10.0
120.495 8.0
120.578 10.0
120.662 13.0
120.746 10.0
120.83 9.0
120.913 3.0
120.997 15.0
121.081 6.0
121.164 12.0
121.248 16.0
121.332 13.0
121.416 11.0
121.499 12.0
121.583 13.0
121.667 12.0
121.75 15.0
121.834 11.0
121.918 13.0
122.001 12.0
122.085 11.0
122.169 11.0
122.253 14.0
122.336 10.0
122.42 9.0
122.504 10.0
122.587 15.0
122.671 30.0
122.755 31.0
122.839 19.0
122.922 6.0
123.006 10.0
123.09 12.0
123.173 20.0
123.257 17.0
123.341 7.0
123.424 8.0
123.508 13.0
123.592 7.0
123.676 14.0
123.759 12.0
123.843 13.0
123.927 13.0
124.01 12.0
124.094 13.0
124.178 10.0
124.262 5.0
124.345 11.0
124.429 17.0
124.513 13.0
124.596 16.0
124.68 10.0
124.764 12.0
124.847 11.0
124.931 14.0
125.015 10.0
125.099 14.0
125.182 13.0
125.266 10.0
125.35 6.0
125.433 12.0
125.517 6.0
125.601 12.0
125.685 10.0
125.768 8.0
125.852 10.0
125.936 11.0
126.019 8.0
126.103 9.0
126.187 10.0
126.27 9.0
126.354 3.0
126.438 13.0
126.522 16.0
126.605 12.0
126.689 14.0
126.773 9.0
126.856 9.0
126.94 7.0
127.024 7.0
127.108 8.0
127.191 13.0
127.275 13.0
127.359 17.0
127.442 15.0
127.526 12.0
127.61 15.0
127.693 10.0
127.777 17.0
127.861 14.0
127.945 13.0
128.028 16.0
128.112 10.0
128.196 10.0
128.279 12.0
128.363 15.0
128.447 8.0
128.531 8.0
128.614 16.0
128.698 14.0
128.782 8.0
128.865 17.0
128.949 7.0
129.033 8.0
129.116 12.0
129.2 10.0
129.284 10.0
129.368 13.0
129.451 11.0
129.535 10.0
129.619 9.0
129.702 8.0
129.786 11.0
129.87 9.0
129.954 9.0
129.998 17.0