File: data/w6929c/XRD_2ThetaOmega/scan_2th-om_c_Cr2O3_35-45deg_PIXscan_4min_C2.xy
35.0021 67.0
35.0119 59.0
35.0218 60.0
35.0316 57.0
35.0415 56.0
35.0513 61.0
35.0611 59.0
35.071 54.0
35.0808 66.0
35.0907 54.0
35.1005 48.0
35.1104 52.0
35.1202 57.0
35.1301 60.0
35.1399 62.0
35.1498 66.0
35.1596 64.0
35.1695 62.0
35.1793 53.0
35.1892 51.0
35.199 51.0
35.2089 61.0
35.2187 56.0
35.2286 65.0
35.2384 60.0
35.2483 67.0
35.2581 58.0
35.268 59.0
35.2778 62.0
35.2876 69.0
35.2975 59.0
35.3073 53.0
35.3172 60.0
35.327 49.0
35.3369 72.0
35.3467 65.0
35.3566 69.0
35.3664 63.0
35.3763 51.0
35.3861 57.0
35.396 64.0
35.4058 61.0
35.4157 46.0
35.4255 81.0
35.4354 61.0
35.4452 68.0
35.4551 65.0
35.4649 70.0
35.4748 54.0
35.4846 72.0
35.4944 68.0
35.5043 74.0
35.5141 60.0
35.524 53.0
35.5338 61.0
35.5437 55.0
35.5535 57.0
35.5634 57.0
35.5732 52.0
35.5831 64.0
35.5929 52.0
35.6028 65.0
35.6126 63.0
35.6225 55.0
35.6323 54.0
35.6422 64.0
35.652 47.0
35.6619 61.0
35.6717 70.0
35.6816 53.0
35.6914 59.0
35.7012 48.0
35.7111 51.0
35.7209 65.0
35.7308 58.0
35.7406 57.0
35.7505 48.0
35.7603 55.0
35.7702 60.0
35.78 63.0
35.7899 59.0
35.7997 55.0
35.8096 49.0
35.8194 51.0
35.8293 60.0
35.8391 61.0
35.849 72.0
35.8588 69.0
35.8687 57.0
35.8785 45.0
35.8884 55.0
35.8982 56.0
35.9081 51.0
35.9179 59.0
35.9277 65.0
35.9376 53.0
35.9474 57.0
35.9573 59.0
35.9671 55.0
35.977 64.0
35.9868 64.0
35.9967 54.0
36.0065 67.0
36.0164 47.0
36.0262 68.0
36.0361 64.0
36.0459 66.0
36.0558 58.0
36.0656 40.0
36.0755 52.0
36.0853 65.0
36.0952 54.0
36.105 53.0
36.1149 48.0
36.1247 54.0
36.1345 65.0
36.1444 53.0
36.1542 58.0
36.1641 56.0
36.1739 49.0
36.1838 59.0
36.1936 54.0
36.2035 51.0
36.2133 45.0
36.2232 56.0
36.233 54.0
36.2429 69.0
36.2527 50.0
36.2626 53.0
36.2724 57.0
36.2823 58.0
36.2921 54.0
36.302 55.0
36.3118 55.0
36.3217 56.0
36.3315 71.0
36.3414 70.0
36.3512 53.0
36.361 53.0
36.3709 56.0
36.3807 52.0
36.3906 64.0
36.4004 64.0
36.4103 70.0
36.4201 72.0
36.43 56.0
36.4398 74.0
36.4497 53.0
36.4595 61.0
36.4694 62.0
36.4792 61.0
36.4891 56.0
36.4989 51.0
36.5088 64.0
36.5186 66.0
36.5285 68.0
36.5383 59.0
36.5482 55.0
36.558 73.0
36.5678 62.0
36.5777 53.0
36.5875 61.0
36.5974 54.0
36.6072 62.0
36.6171 62.0
36.6269 57.0
36.6368 59.0
36.6466 67.0
36.6565 63.0
36.6663 58.0
36.6762 61.0
36.686 64.0
36.6959 62.0
36.7057 54.0
36.7156 73.0
36.7254 61.0
36.7353 61.0
36.7451 62.0
36.755 64.0
36.7648 77.0
36.7747 63.0
36.7845 54.0
36.7943 70.0
36.8042 58.0
36.814 55.0
36.8239 62.0
36.8337 58.0
36.8436 49.0
36.8534 61.0
36.8633 43.0
36.8731 71.0
36.883 66.0
36.8928 47.0
36.9027 76.0
36.9125 59.0
36.9224 55.0
36.9322 50.0
36.9421 61.0
36.9519 52.0
36.9618 65.0
36.9716 56.0
36.9815 58.0
36.9913 65.0
37.0011 73.0
37.011 72.0
37.0208 54.0
37.0307 80.0
37.0405 78.0
37.0504 69.0
37.0602 58.0
37.0701 60.0
37.0799 70.0
37.0898 70.0
37.0996 67.0
37.1095 70.0
37.1193 63.0
37.1292 62.0
37.139 55.0
37.1489 63.0
37.1587 63.0
37.1686 61.0
37.1784 66.0
37.1883 65.0
37.1981 47.0
37.2079 65.0
37.2178 49.0
37.2276 52.0
37.2375 59.0
37.2473 49.0
37.2572 57.0
37.267 48.0
37.2769 71.0
37.2867 60.0
37.2966 60.0
37.3064 59.0
37.3163 69.0
37.3261 68.0
37.336 52.0
37.3458 59.0
37.3557 65.0
37.3655 65.0
37.3754 77.0
37.3852 63.0
37.3951 78.0
37.4049 72.0
37.4148 80.0
37.4246 127.0
37.4344 165.0
37.4443 146.0
37.4541 169.0
37.464 123.0
37.4738 124.0
37.4837 87.0
37.4935 62.0
37.5034 78.0
37.5132 68.0
37.5231 76.0
37.5329 80.0
37.5428 60.0
37.5526 65.0
37.5625 67.0
37.5723 61.0
37.5822 73.0
37.592 66.0
37.6019 65.0
37.6117 69.0
37.6216 72.0
37.6314 67.0
37.6412 54.0
37.6511 76.0
37.6609 47.0
37.6708 49.0
37.6806 57.0
37.6905 65.0
37.7003 61.0
37.7102 68.0
37.72 65.0
37.7299 67.0
37.7397 83.0
37.7496 73.0
37.7594 69.0
37.7693 58.0
37.7791 51.0
37.789 62.0
37.7988 70.0
37.8087 60.0
37.8185 65.0
37.8284 61.0
37.8382 51.0
37.8481 62.0
37.8579 54.0
37.8677 67.0
37.8776 71.0
37.8874 60.0
37.8973 64.0
37.9071 78.0
37.917 67.0
37.9268 67.0
37.9367 72.0
37.9465 57.0
37.9564 61.0
37.9662 63.0
37.9761 66.0
37.9859 73.0
37.9958 61.0
38.0056 72.0
38.0155 74.0
38.0253 51.0
38.0352 76.0
38.045 51.0
38.0549 64.0
38.0647 62.0
38.0745 68.0
38.0844 70.0
38.0942 78.0
38.1041 67.0
38.1139 83.0
38.1238 82.0
38.1336 69.0
38.1435 78.0
38.1533 68.0
38.1632 65.0
38.173 73.0
38.1829 84.0
38.1927 67.0
38.2026 63.0
38.2124 70.0
38.2223 62.0
38.2321 62.0
38.242 81.0
38.2518 74.0
38.2617 71.0
38.2715 76.0
38.2814 69.0
38.2912 68.0
38.301 80.0
38.3109 73.0
38.3207 77.0
38.3306 68.0
38.3404 73.0
38.3503 99.0
38.3601 76.0
38.37 77.0
38.3798 96.0
38.3897 95.0
38.3995 85.0
38.4094 94.0
38.4192 79.0
38.4291 83.0
38.4389 99.0
38.4488 83.0
38.4586 99.0
38.4685 103.0
38.4783 82.0
38.4882 101.0
38.498 87.0
38.5078 93.0
38.5177 104.0
38.5275 103.0
38.5374 92.0
38.5472 96.0
38.5571 73.0
38.5669 88.0
38.5768 96.0
38.5866 101.0
38.5965 113.0
38.6063 121.0
38.6162 130.0
38.626 79.0
38.6359 89.0
38.6457 106.0
38.6556 97.0
38.6654 115.0
38.6753 133.0
38.6851 135.0
38.695 139.0
38.7048 114.0
38.7146 133.0
38.7245 135.0
38.7343 108.0
38.7442 143.0
38.754 146.0
38.7639 132.0
38.7737 141.0
38.7836 149.0
38.7934 152.0
38.8033 144.0
38.8131 166.0
38.823 176.0
38.8328 173.0
38.8427 164.0
38.8525 175.0
38.8624 155.0
38.8722 164.0
38.8821 204.0
38.8919 190.0
38.9018 198.0
38.9116 294.0
38.9215 294.0
38.9313 264.0
38.9411 305.0
38.951 295.0
38.9608 283.0
38.9707 270.0
38.9805 288.0
38.9904 322.0
39.0002 334.0
39.0101 428.0
39.0199 456.0
39.0298 498.0
39.0396 528.0
39.0495 587.0
39.0593 590.0
39.0692 589.0
39.079 612.0
39.0889 636.0
39.0987 652.0
39.1086 740.0
39.1184 854.0
39.1283 991.0
39.1381 1226.0
39.1479 1452.0
39.1578 1659.0
39.1676 1952.0
39.1775 2128.0
39.1873 2296.0
39.1972 2496.0
39.207 2534.0
39.2169 2698.0
39.2267 2723.0
39.2366 2621.0
39.2464 2565.0
39.2563 2509.0
39.2661 2420.0
39.276 2331.0
39.2858 2271.0
39.2957 2078.0
39.3055 1976.0
39.3154 1940.0
39.3252 1768.0
39.3351 1599.0
39.3449 1374.0
39.3548 1219.0
39.3646 1219.0
39.3744 1010.0
39.3843 785.0
39.3941 747.0
39.404 687.0
39.4138 592.0
39.4237 503.0
39.4335 424.0
39.4434 355.0
39.4532 335.0
39.4631 315.0
39.4729 300.0
39.4828 205.0
39.4926 206.0
39.5025 193.0
39.5123 180.0
39.5222 175.0
39.532 169.0
39.5419 141.0
39.5517 182.0
39.5616 130.0
39.5714 152.0
39.5812 100.0
39.5911 107.0
39.6009 115.0
39.6108 118.0
39.6206 109.0
39.6305 119.0
39.6403 102.0
39.6502 97.0
39.66 88.0
39.6699 106.0
39.6797 101.0
39.6896 100.0
39.6994 84.0
39.7093 94.0
39.7191 88.0
39.729 77.0
39.7388 87.0
39.7487 90.0
39.7585 87.0
39.7684 78.0
39.7782 74.0
39.788 91.0
39.7979 76.0
39.8077 94.0
39.8176 92.0
39.8274 93.0
39.8373 86.0
39.8471 72.0
39.857 60.0
39.8668 78.0
39.8767 66.0
39.8865 66.0
39.8964 55.0
39.9062 85.0
39.9161 62.0
39.9259 78.0
39.9358 86.0
39.9456 73.0
39.9555 76.0
39.9653 81.0
39.9752 64.0
39.985 70.0
39.9949 60.0
40.0047 69.0
40.0145 68.0
40.0244 60.0
40.0342 83.0
40.0441 64.0
40.0539 72.0
40.0638 66.0
40.0736 69.0
40.0835 77.0
40.0933 71.0
40.1032 77.0
40.113 72.0
40.1229 76.0
40.1327 77.0
40.1426 59.0
40.1524 74.0
40.1623 58.0
40.1721 61.0
40.182 55.0
40.1918 79.0
40.2017 66.0
40.2115 65.0
40.2213 74.0
40.2312 61.0
40.241 67.0
40.2509 73.0
40.2607 78.0
40.2706 70.0
40.2804 59.0
40.2903 82.0
40.3001 75.0
40.31 63.0
40.3198 67.0
40.3297 77.0
40.3395 68.0
40.3494 59.0
40.3592 64.0
40.3691 59.0
40.3789 60.0
40.3888 77.0
40.3986 78.0
40.4085 80.0
40.4183 69.0
40.4282 68.0
40.438 79.0
40.4478 60.0
40.4577 72.0
40.4675 81.0
40.4774 71.0
40.4872 71.0
40.4971 72.0
40.5069 80.0
40.5168 84.0
40.5266 55.0
40.5365 72.0
40.5463 78.0
40.5562 88.0
40.566 70.0
40.5759 72.0
40.5857 76.0
40.5956 60.0
40.6054 72.0
40.6153 71.0
40.6251 76.0
40.635 67.0
40.6448 77.0
40.6546 56.0
40.6645 66.0
40.6743 62.0
40.6842 76.0
40.694 94.0
40.7039 85.0
40.7137 81.0
40.7236 89.0
40.7334 71.0
40.7433 80.0
40.7531 92.0
40.763 106.0
40.7728 78.0
40.7827 87.0
40.7925 95.0
40.8024 84.0
40.8122 85.0
40.8221 87.0
40.8319 87.0
40.8418 93.0
40.8516 88.0
40.8615 77.0
40.8713 94.0
40.8811 66.0
40.891 86.0
40.9008 95.0
40.9107 102.0
40.9205 91.0
40.9304 81.0
40.9402 78.0
40.9501 99.0
40.9599 100.0
40.9698 73.0
40.9796 80.0
40.9895 87.0
40.9993 83.0
41.0092 91.0
41.019 112.0
41.0289 72.0
41.0387 102.0
41.0486 107.0
41.0584 97.0
41.0683 88.0
41.0781 93.0
41.0879 118.0
41.0978 111.0
41.1076 104.0
41.1175 99.0
41.1273 93.0
41.1372 128.0
41.147 102.0
41.1569 106.0
41.1667 94.0
41.1766 97.0
41.1864 109.0
41.1963 125.0
41.2061 109.0
41.216 108.0
41.2258 111.0
41.2357 114.0
41.2455 114.0
41.2554 122.0
41.2652 131.0
41.2751 135.0
41.2849 124.0
41.2947 116.0
41.3046 129.0
41.3144 134.0
41.3243 153.0
41.3341 140.0
41.344 133.0
41.3538 171.0
41.3637 170.0
41.3735 184.0
41.3834 217.0
41.3932 288.0
41.4031 326.0
41.4129 368.0
41.4228 421.0
41.4326 445.0
41.4425 461.0
41.4523 448.0
41.4622 475.0
41.472 422.0
41.4819 419.0
41.4917 441.0
41.5016 459.0
41.5114 544.0
41.5212 556.0
41.5311 755.0
41.5409 788.0
41.5508 1216.0
41.5606 1572.0
41.5705 2180.0
41.5803 3690.0
41.5902 7726.0
41.6 19946.0
41.6099 37720.0
41.6197 45179.0
41.6296 38066.0
41.6394 20675.0
41.6493 9035.0
41.6591 4401.0
41.669 2899.0
41.6788 2516.0
41.6887 2901.0
41.6985 4683.0
41.7084 10409.0
41.7182 18483.0
41.728 21784.0
41.7379 18630.0
41.7477 10530.0
41.7576 4894.0
41.7674 2412.0
41.7773 1524.0
41.7871 1020.0
41.797 802.0
41.8068 596.0
41.8167 518.0
41.8265 488.0
41.8364 414.0
41.8462 414.0
41.8561 327.0
41.8659 308.0
41.8758 306.0
41.8856 286.0
41.8955 210.0
41.9053 198.0
41.9152 178.0
41.925 157.0
41.9349 189.0
41.9447 187.0
41.9545 159.0
41.9644 153.0
41.9742 148.0
41.9841 136.0
41.9939 154.0
42.0038 148.0
42.0136 136.0
42.0235 130.0
42.0333 134.0
42.0432 124.0
42.053 124.0
42.0629 107.0
42.0727 125.0
42.0826 116.0
42.0924 121.0
42.1023 104.0
42.1121 102.0
42.122 113.0
42.1318 90.0
42.1417 98.0
42.1515 111.0
42.1613 107.0
42.1712 102.0
42.181 85.0
42.1909 76.0
42.2007 99.0
42.2106 70.0
42.2204 103.0
42.2303 88.0
42.2401 84.0
42.25 83.0
42.2598 81.0
42.2697 77.0
42.2795 66.0
42.2894 92.0
42.2992 85.0
42.3091 53.0
42.3189 86.0
42.3288 79.0
42.3386 106.0
42.3485 86.0
42.3583 79.0
42.3682 78.0
42.378 77.0
42.3878 59.0
42.3977 82.0
42.4075 70.0
42.4174 88.0
42.4272 80.0
42.4371 87.0
42.4469 69.0
42.4568 72.0
42.4666 64.0
42.4765 74.0
42.4863 72.0
42.4962 76.0
42.506 78.0
42.5159 62.0
42.5257 58.0
42.5356 68.0
42.5454 82.0
42.5553 49.0
42.5651 71.0
42.575 64.0
42.5848 61.0
42.5946 81.0
42.6045 85.0
42.6143 66.0
42.6242 72.0
42.634 71.0
42.6439 55.0
42.6537 72.0
42.6636 74.0
42.6734 64.0
42.6833 67.0
42.6931 69.0
42.703 73.0
42.7128 57.0
42.7227 68.0
42.7325 69.0
42.7424 55.0
42.7522 58.0
42.7621 59.0
42.7719 71.0
42.7818 68.0
42.7916 66.0
42.8014 65.0
42.8113 78.0
42.8211 53.0
42.831 66.0
42.8408 72.0
42.8507 73.0
42.8605 70.0
42.8704 51.0
42.8802 49.0
42.8901 74.0
42.8999 69.0
42.9098 66.0
42.9196 65.0
42.9295 62.0
42.9393 62.0
42.9492 72.0
42.959 69.0
42.9689 49.0
42.9787 62.0
42.9886 56.0
42.9984 59.0
43.0083 58.0
43.0181 55.0
43.0279 64.0
43.0378 64.0
43.0476 58.0
43.0575 82.0
43.0673 52.0
43.0772 67.0
43.087 66.0
43.0969 66.0
43.1067 62.0
43.1166 62.0
43.1264 60.0
43.1363 56.0
43.1461 65.0
43.156 65.0
43.1658 69.0
43.1757 52.0
43.1855 69.0
43.1954 61.0
43.2052 59.0
43.2151 66.0
43.2249 62.0
43.2347 49.0
43.2446 53.0
43.2544 56.0
43.2643 59.0
43.2741 62.0
43.284 72.0
43.2938 65.0
43.3037 67.0
43.3135 62.0
43.3234 62.0
43.3332 72.0
43.3431 63.0
43.3529 53.0
43.3628 60.0
43.3726 67.0
43.3825 81.0
43.3923 65.0
43.4022 58.0
43.412 60.0
43.4219 58.0
43.4317 85.0
43.4416 62.0
43.4514 59.0
43.4612 62.0
43.4711 62.0
43.4809 69.0
43.4908 56.0
43.5006 64.0
43.5105 53.0
43.5203 60.0
43.5302 63.0
43.54 71.0
43.5499 65.0
43.5597 60.0
43.5696 61.0
43.5794 55.0
43.5893 60.0
43.5991 50.0
43.609 62.0
43.6188 60.0
43.6287 65.0
43.6385 67.0
43.6484 67.0
43.6582 50.0
43.668 65.0
43.6779 79.0
43.6877 70.0
43.6976 63.0
43.7074 78.0
43.7173 54.0
43.7271 68.0
43.737 77.0
43.7468 76.0
43.7567 78.0
43.7665 55.0
43.7764 64.0
43.7862 84.0
43.7961 62.0
43.8059 80.0
43.8158 66.0
43.8256 72.0
43.8355 67.0
43.8453 68.0
43.8552 66.0
43.865 78.0
43.8749 68.0
43.8847 73.0
43.8945 67.0
43.9044 59.0
43.9142 64.0
43.9241 67.0
43.9339 75.0
43.9438 69.0
43.9536 88.0
43.9635 74.0
43.9733 56.0
43.9832 76.0
43.993 82.0
44.0029 53.0
44.0127 82.0
44.0226 69.0
44.0324 70.0
44.0423 71.0
44.0521 77.0
44.062 73.0
44.0718 77.0
44.0817 75.0
44.0915 81.0
44.1013 82.0
44.1112 82.0
44.121 77.0
44.1309 82.0
44.1407 81.0
44.1506 82.0
44.1604 72.0
44.1703 89.0
44.1801 81.0
44.19 82.0
44.1998 78.0
44.2097 91.0
44.2195 96.0
44.2294 86.0
44.2392 96.0
44.2491 86.0
44.2589 84.0
44.2688 89.0
44.2786 84.0
44.2885 108.0
44.2983 128.0
44.3081 120.0
44.318 109.0
44.3278 81.0
44.3377 118.0
44.3475 123.0
44.3574 116.0
44.3672 119.0
44.3771 137.0
44.3869 130.0
44.3968 164.0
44.4066 109.0
44.4165 125.0
44.4263 147.0
44.4362 140.0
44.446 132.0
44.4559 126.0
44.4657 137.0
44.4756 130.0
44.4854 117.0
44.4953 112.0
44.5051 115.0
44.515 107.0
44.5248 116.0
44.5346 112.0
44.5445 109.0
44.5543 98.0
44.5642 112.0
44.574 107.0
44.5839 112.0
44.5937 93.0
44.6036 94.0
44.6134 97.0
44.6233 110.0
44.6331 73.0
44.643 79.0
44.6528 73.0
44.6627 88.0
44.6725 97.0
44.6824 81.0
44.6922 59.0
44.7021 86.0
44.7119 71.0
44.7218 67.0
44.7316 73.0
44.7414 66.0
44.7513 77.0
44.7611 64.0
44.771 66.0
44.7808 54.0
44.7907 64.0
44.8005 78.0
44.8104 47.0
44.8202 59.0
44.8301 56.0
44.8399 64.0
44.8498 63.0
44.8596 77.0
44.8695 60.0
44.8793 69.0
44.8892 58.0
44.899 53.0
44.9089 70.0
44.9187 72.0
44.9286 63.0
44.9384 68.0
44.9483 61.0
44.9581 58.0
44.9679 57.0
44.9778 53.0
44.9876 90.0
44.9975 70.0