File: data/W6858m/XRD_2ThetaOmega/W6858m_absolute_2th-om_10-130deg_PIXscan_17min_9.xy
10.0035 17.0
10.0872 24.0
10.1709 20.0
10.2546 22.0
10.3383 21.0
10.422 18.0
10.5057 23.0
10.5894 16.0
10.6731 22.0
10.7568 11.0
10.8405 19.0
10.9242 19.0
11.0079 25.0
11.0916 15.0
11.1753 19.0
11.259 23.0
11.3428 24.0
11.4265 18.0
11.5102 17.0
11.5939 17.0
11.6776 16.0
11.7613 19.0
11.845 20.0
11.9287 24.0
12.0124 12.0
12.0961 17.0
12.1798 19.0
12.2635 14.0
12.3472 19.0
12.4309 9.0
12.5146 15.0
12.5983 14.0
12.682 15.0
12.7657 13.0
12.8495 20.0
12.9332 20.0
13.0169 19.0
13.1006 16.0
13.1843 24.0
13.268 15.0
13.3517 17.0
13.4354 20.0
13.5191 13.0
13.6028 17.0
13.6865 17.0
13.7702 20.0
13.8539 16.0
13.9376 11.0
14.0213 17.0
14.105 18.0
14.1887 13.0
14.2724 25.0
14.3562 14.0
14.4399 19.0
14.5236 13.0
14.6073 15.0
14.691 26.0
14.7747 14.0
14.8584 13.0
14.9421 16.0
15.0258 18.0
15.1095 26.0
15.1932 13.0
15.2769 20.0
15.3606 22.0
15.4443 20.0
15.528 20.0
15.6117 15.0
15.6954 19.0
15.7791 11.0
15.8629 7.0
15.9466 16.0
16.0303 18.0
16.114 18.0
16.1977 16.0
16.2814 23.0
16.3651 23.0
16.4488 19.0
16.5325 13.0
16.6162 16.0
16.6999 19.0
16.7836 15.0
16.8673 14.0
16.951 26.0
17.0347 12.0
17.1184 18.0
17.2021 14.0
17.2858 14.0
17.3696 14.0
17.4533 18.0
17.537 25.0
17.6207 9.0
17.7044 16.0
17.7881 15.0
17.8718 21.0
17.9555 14.0
18.0392 10.0
18.1229 16.0
18.2066 14.0
18.2903 16.0
18.374 10.0
18.4577 16.0
18.5414 6.0
18.6251 17.0
18.7088 18.0
18.7925 13.0
18.8763 14.0
18.96 17.0
19.0437 11.0
19.1274 13.0
19.2111 18.0
19.2948 12.0
19.3785 8.0
19.4622 19.0
19.5459 15.0
19.6296 14.0
19.7133 13.0
19.797 23.0
19.8807 18.0
19.9644 11.0
20.0481 11.0
20.1318 22.0
20.2155 13.0
20.2992 16.0
20.383 17.0
20.4667 18.0
20.5504 17.0
20.6341 9.0
20.7178 11.0
20.8015 18.0
20.8852 14.0
20.9689 16.0
21.0526 12.0
21.1363 15.0
21.22 13.0
21.3037 16.0
21.3874 24.0
21.4711 13.0
21.5548 8.0
21.6385 12.0
21.7222 15.0
21.8059 20.0
21.8897 14.0
21.9734 10.0
22.0571 10.0
22.1408 17.0
22.2245 13.0
22.3082 13.0
22.3919 12.0
22.4756 11.0
22.5593 16.0
22.643 15.0
22.7267 13.0
22.8104 18.0
22.8941 13.0
22.9778 9.0
23.0615 12.0
23.1452 15.0
23.2289 13.0
23.3126 16.0
23.3964 13.0
23.4801 6.0
23.5638 8.0
23.6475 16.0
23.7312 10.0
23.8149 13.0
23.8986 17.0
23.9823 14.0
24.066 15.0
24.1497 16.0
24.2334 5.0
24.3171 13.0
24.4008 14.0
24.4845 10.0
24.5682 14.0
24.6519 9.0
24.7356 8.0
24.8193 15.0
24.9031 14.0
24.9868 16.0
25.0705 7.0
25.1542 10.0
25.2379 15.0
25.3216 7.0
25.4053 17.0
25.489 12.0
25.5727 16.0
25.6564 8.0
25.7401 5.0
25.8238 17.0
25.9075 7.0
25.9912 12.0
26.0749 13.0
26.1586 16.0
26.2423 8.0
26.326 17.0
26.4098 15.0
26.4935 11.0
26.5772 20.0
26.6609 13.0
26.7446 14.0
26.8283 12.0
26.912 11.0
26.9957 8.0
27.0794 7.0
27.1631 11.0
27.2468 8.0
27.3305 11.0
27.4142 14.0
27.4979 10.0
27.5816 10.0
27.6653 9.0
27.749 4.0
27.8327 15.0
27.9165 10.0
28.0002 10.0
28.0839 14.0
28.1676 12.0
28.2513 9.0
28.335 4.0
28.4187 14.0
28.5024 7.0
28.5861 15.0
28.6698 13.0
28.7535 20.0
28.8372 10.0
28.9209 14.0
29.0046 11.0
29.0883 10.0
29.172 11.0
29.2557 12.0
29.3394 13.0
29.4232 8.0
29.5069 10.0
29.5906 7.0
29.6743 9.0
29.758 11.0
29.8417 17.0
29.9254 8.0
30.0091 14.0
30.0928 11.0
30.1765 11.0
30.2602 11.0
30.3439 15.0
30.4276 8.0
30.5113 11.0
30.595 12.0
30.6787 11.0
30.7624 16.0
30.8461 7.0
30.9298 13.0
31.0136 12.0
31.0973 14.0
31.181 13.0
31.2647 18.0
31.3484 11.0
31.4321 9.0
31.5158 12.0
31.5995 9.0
31.6832 18.0
31.7669 12.0
31.8506 14.0
31.9343 6.0
32.018 12.0
32.1017 16.0
32.1854 10.0
32.2691 13.0
32.3528 9.0
32.4365 4.0
32.5203 14.0
32.604 12.0
32.6877 8.0
32.7714 20.0
32.8551 13.0
32.9388 12.0
33.0225 8.0
33.1062 9.0
33.1899 8.0
33.2736 11.0
33.3573 14.0
33.441 5.0
33.5247 10.0
33.6084 8.0
33.6921 11.0
33.7758 8.0
33.8595 16.0
33.9432 16.0
34.027 11.0
34.1107 13.0
34.1944 10.0
34.2781 11.0
34.3618 12.0
34.4455 6.0
34.5292 11.0
34.6129 11.0
34.6966 10.0
34.7803 11.0
34.864 9.0
34.9477 15.0
35.0314 13.0
35.1151 17.0
35.1988 9.0
35.2825 9.0
35.3662 14.0
35.4499 14.0
35.5337 8.0
35.6174 16.0
35.7011 11.0
35.7848 10.0
35.8685 14.0
35.9522 9.0
36.0359 16.0
36.1196 13.0
36.2033 11.0
36.287 11.0
36.3707 17.0
36.4544 10.0
36.5381 8.0
36.6218 5.0
36.7055 11.0
36.7892 8.0
36.8729 14.0
36.9566 6.0
37.0404 10.0
37.1241 10.0
37.2078 14.0
37.2915 8.0
37.3752 7.0
37.4589 11.0
37.5426 7.0
37.6263 8.0
37.71 15.0
37.7937 13.0
37.8774 9.0
37.9611 7.0
38.0448 10.0
38.1285 7.0
38.2122 7.0
38.2959 8.0
38.3796 12.0
38.4633 9.0
38.5471 9.0
38.6308 8.0
38.7145 12.0
38.7982 11.0
38.8819 8.0
38.9656 11.0
39.0493 9.0
39.133 10.0
39.2167 16.0
39.3004 7.0
39.3841 7.0
39.4678 9.0
39.5515 11.0
39.6352 14.0
39.7189 9.0
39.8026 6.0
39.8863 14.0
39.97 11.0
40.0538 7.0
40.1375 12.0
40.2212 7.0
40.3049 10.0
40.3886 9.0
40.4723 12.0
40.556 6.0
40.6397 13.0
40.7234 12.0
40.8071 8.0
40.8908 9.0
40.9745 10.0
41.0582 11.0
41.1419 8.0
41.2256 8.0
41.3093 8.0
41.393 15.0
41.4767 10.0
41.5605 20.0
41.6442 12.0
41.7279 12.0
41.8116 13.0
41.8953 12.0
41.979 10.0
42.0627 15.0
42.1464 16.0
42.2301 9.0
42.3138 11.0
42.3975 13.0
42.4812 12.0
42.5649 10.0
42.6486 9.0
42.7323 18.0
42.816 11.0
42.8997 10.0
42.9834 15.0
43.0672 11.0
43.1509 13.0
43.2346 11.0
43.3183 4.0
43.402 8.0
43.4857 10.0
43.5694 12.0
43.6531 10.0
43.7368 12.0
43.8205 7.0
43.9042 11.0
43.9879 10.0
44.0716 13.0
44.1553 12.0
44.239 20.0
44.3227 27.0
44.4064 17.0
44.4901 20.0
44.5739 16.0
44.6576 11.0
44.7413 14.0
44.825 11.0
44.9087 12.0
44.9924 14.0
45.0761 5.0
45.1598 10.0
45.2435 13.0
45.3272 11.0
45.4109 12.0
45.4946 11.0
45.5783 7.0
45.662 7.0
45.7457 12.0
45.8294 11.0
45.9131 9.0
45.9968 10.0
46.0806 10.0
46.1643 11.0
46.248 10.0
46.3317 9.0
46.4154 8.0
46.4991 9.0
46.5828 6.0
46.6665 16.0
46.7502 14.0
46.8339 10.0
46.9176 9.0
47.0013 17.0
47.085 10.0
47.1687 5.0
47.2524 7.0
47.3361 10.0
47.4198 4.0
47.5035 12.0
47.5873 9.0
47.671 11.0
47.7547 13.0
47.8384 11.0
47.9221 6.0
48.0058 12.0
48.0895 14.0
48.1732 8.0
48.2569 17.0
48.3406 12.0
48.4243 11.0
48.508 8.0
48.5917 7.0
48.6754 11.0
48.7591 12.0
48.8428 6.0
48.9265 8.0
49.0102 13.0
49.094 17.0
49.1777 13.0
49.2614 10.0
49.3451 9.0
49.4288 13.0
49.5125 10.0
49.5962 9.0
49.6799 14.0
49.7636 11.0
49.8473 12.0
49.931 11.0
50.0147 8.0
50.0984 6.0
50.1821 8.0
50.2658 17.0
50.3495 8.0
50.4332 16.0
50.5169 7.0
50.6007 10.0
50.6844 10.0
50.7681 18.0
50.8518 14.0
50.9355 11.0
51.0192 14.0
51.1029 9.0
51.1866 13.0
51.2703 9.0
51.354 9.0
51.4377 9.0
51.5214 13.0
51.6051 10.0
51.6888 8.0
51.7725 8.0
51.8562 13.0
51.9399 8.0
52.0236 17.0
52.1074 13.0
52.1911 7.0
52.2748 10.0
52.3585 8.0
52.4422 6.0
52.5259 15.0
52.6096 11.0
52.6933 7.0
52.777 12.0
52.8607 8.0
52.9444 6.0
53.0281 5.0
53.1118 8.0
53.1955 10.0
53.2792 14.0
53.3629 8.0
53.4466 11.0
53.5303 16.0
53.6141 12.0
53.6978 13.0
53.7815 15.0
53.8652 10.0
53.9489 12.0
54.0326 12.0
54.1163 9.0
54.2 15.0
54.2837 11.0
54.3674 10.0
54.4511 15.0
54.5348 13.0
54.6185 8.0
54.7022 11.0
54.7859 11.0
54.8696 16.0
54.9533 14.0
55.037 6.0
55.1208 15.0
55.2045 11.0
55.2882 7.0
55.3719 6.0
55.4556 13.0
55.5393 35.0
55.623 21.0
55.7067 20.0
55.7904 20.0
55.8741 12.0
55.9578 13.0
56.0415 10.0
56.1252 12.0
56.2089 8.0
56.2926 14.0
56.3763 15.0
56.46 17.0
56.5437 11.0
56.6275 7.0
56.7112 18.0
56.7949 13.0
56.8786 5.0
56.9623 7.0
57.046 6.0
57.1297 12.0
57.2134 10.0
57.2971 7.0
57.3808 11.0
57.4645 13.0
57.5482 16.0
57.6319 8.0
57.7156 12.0
57.7993 18.0
57.883 7.0
57.9667 16.0
58.0504 11.0
58.1342 11.0
58.2179 19.0
58.3016 14.0
58.3853 9.0
58.469 7.0
58.5527 10.0
58.6364 11.0
58.7201 11.0
58.8038 8.0
58.8875 9.0
58.9712 11.0
59.0549 15.0
59.1386 15.0
59.2223 18.0
59.306 14.0
59.3897 11.0
59.4734 12.0
59.5571 7.0
59.6409 11.0
59.7246 15.0
59.8083 18.0
59.892 13.0
59.9757 13.0
60.0594 10.0
60.1431 15.0
60.2268 13.0
60.3105 16.0
60.3942 9.0
60.4779 12.0
60.5616 16.0
60.6453 16.0
60.729 14.0
60.8127 62.0
60.8964 91.0
60.9801 28.0
61.0638 14.0
61.1476 14.0
61.2313 9.0
61.315 17.0
61.3987 10.0
61.4824 13.0
61.5661 17.0
61.6498 12.0
61.7335 9.0
61.8172 15.0
61.9009 14.0
61.9846 16.0
62.0683 11.0
62.152 11.0
62.2357 13.0
62.3194 7.0
62.4031 12.0
62.4868 9.0
62.5705 6.0
62.6543 19.0
62.738 13.0
62.8217 11.0
62.9054 18.0
62.9891 16.0
63.0728 17.0
63.1565 15.0
63.2402 15.0
63.3239 15.0
63.4076 17.0
63.4913 13.0
63.575 16.0
63.6587 14.0
63.7424 19.0
63.8261 14.0
63.9098 14.0
63.9935 18.0
64.0772 19.0
64.161 23.0
64.2447 15.0
64.3284 41.0
64.4121 60.0
64.4958 81.0
64.5795 116.0
64.6632 167.0
64.7469 246.0
64.8306 231.0
64.9143 300.0
64.998 305.0
65.0817 82.0
65.1654 71.0
65.2491 28.0
65.3328 42.0
65.4165 24.0
65.5002 55.0
65.5839 33.0
65.6677 25.0
65.7514 18.0
65.8351 14.0
65.9188 23.0
66.0025 19.0
66.0862 16.0
66.1699 31.0
66.2536 15.0
66.3373 22.0
66.421 32.0
66.5047 25.0
66.5884 34.0
66.6721 19.0
66.7558 21.0
66.8395 31.0
66.9232 27.0
67.0069 21.0
67.0906 33.0
67.1744 40.0
67.2581 30.0
67.3418 56.0
67.4255 47.0
67.5092 58.0
67.5929 70.0
67.6766 78.0
67.7603 146.0
67.844 301.0
67.9277 307.0
68.0114 566.0
68.0951 2607.0
68.1788 30345.0
68.2625 1843.0
68.3462 16170.0
68.4299 1747.0
68.5136 478.0
68.5973 307.0
68.6811 183.0
68.7648 128.0
68.8485 104.0
68.9322 95.0
69.0159 76.0
69.0996 92.0
69.1833 59.0
69.267 62.0
69.3507 73.0
69.4344 64.0
69.5181 39.0
69.6018 64.0
69.6855 47.0
69.7692 50.0
69.8529 44.0
69.9366 45.0
70.0203 38.0
70.104 28.0
70.1878 37.0
70.2715 25.0
70.3552 34.0
70.4389 42.0
70.5226 28.0
70.6063 19.0
70.69 26.0
70.7737 26.0
70.8574 30.0
70.9411 25.0
71.0248 22.0
71.1085 14.0
71.1922 19.0
71.2759 12.0
71.3596 21.0
71.4433 18.0
71.527 14.0
71.6107 18.0
71.6945 17.0
71.7782 10.0
71.8619 17.0
71.9456 9.0
72.0293 13.0
72.113 20.0
72.1967 21.0
72.2804 12.0
72.3641 15.0
72.4478 12.0
72.5315 13.0
72.6152 16.0
72.6989 17.0
72.7826 13.0
72.8663 11.0
72.95 11.0
73.0337 15.0
73.1174 19.0
73.2012 8.0
73.2849 17.0
73.3686 5.0
73.4523 17.0
73.536 11.0
73.6197 11.0
73.7034 11.0
73.7871 11.0
73.8708 14.0
73.9545 10.0
74.0382 13.0
74.1219 10.0
74.2056 17.0
74.2893 14.0
74.373 8.0
74.4567 14.0
74.5404 16.0
74.6241 7.0
74.7079 12.0
74.7916 15.0
74.8753 12.0
74.959 4.0
75.0427 14.0
75.1264 13.0
75.2101 9.0
75.2938 14.0
75.3775 11.0
75.4612 11.0
75.5449 16.0
75.6286 9.0
75.7123 11.0
75.796 11.0
75.8797 14.0
75.9634 13.0
76.0471 13.0
76.1308 17.0
76.2146 6.0
76.2983 12.0
76.382 11.0
76.4657 10.0
76.5494 15.0
76.6331 17.0
76.7168 13.0
76.8005 16.0
76.8842 15.0
76.9679 5.0
77.0516 7.0
77.1353 13.0
77.219 12.0
77.3027 13.0
77.3864 14.0
77.4701 9.0
77.5538 15.0
77.6375 9.0
77.7213 11.0
77.805 15.0
77.8887 11.0
77.9724 12.0
78.0561 12.0
78.1398 12.0
78.2235 15.0
78.3072 11.0
78.3909 8.0
78.4746 10.0
78.5583 15.0
78.642 12.0
78.7257 12.0
78.8094 15.0
78.8931 11.0
78.9768 16.0
79.0605 13.0
79.1442 12.0
79.228 13.0
79.3117 7.0
79.3954 3.0
79.4791 16.0
79.5628 14.0
79.6465 7.0
79.7302 14.0
79.8139 9.0
79.8976 10.0
79.9813 10.0
80.065 8.0
80.1487 8.0
80.2324 11.0
80.3161 12.0
80.3998 6.0
80.4835 8.0
80.5672 15.0
80.6509 18.0
80.7347 11.0
80.8184 9.0
80.9021 10.0
80.9858 10.0
81.0695 18.0
81.1532 8.0
81.2369 7.0
81.3206 13.0
81.4043 10.0
81.488 13.0
81.5717 11.0
81.6554 11.0
81.7391 5.0
81.8228 14.0
81.9065 15.0
81.9902 14.0
82.0739 15.0
82.1576 12.0
82.2414 13.0
82.3251 10.0
82.4088 12.0
82.4925 18.0
82.5762 8.0
82.6599 16.0
82.7436 5.0
82.8273 16.0
82.911 8.0
82.9947 8.0
83.0784 15.0
83.1621 5.0
83.2458 11.0
83.3295 13.0
83.4132 15.0
83.4969 14.0
83.5806 13.0
83.6643 14.0
83.7481 13.0
83.8318 16.0
83.9155 13.0
83.9992 7.0
84.0829 11.0
84.1666 22.0
84.2503 16.0
84.334 10.0
84.4177 11.0
84.5014 11.0
84.5851 10.0
84.6688 10.0
84.7525 7.0
84.8362 9.0
84.9199 15.0
85.0036 10.0
85.0873 13.0
85.171 14.0
85.2548 13.0
85.3385 12.0
85.4222 6.0
85.5059 5.0
85.5896 11.0
85.6733 11.0
85.757 7.0
85.8407 11.0
85.9244 8.0
86.0081 14.0
86.0918 8.0
86.1755 13.0
86.2592 8.0
86.3429 7.0
86.4266 10.0
86.5103 9.0
86.594 10.0
86.6777 8.0
86.7615 8.0
86.8452 10.0
86.9289 16.0
87.0126 14.0
87.0963 12.0
87.18 5.0
87.2637 10.0
87.3474 18.0
87.4311 20.0
87.5148 8.0
87.5985 13.0
87.6822 11.0
87.7659 13.0
87.8496 7.0
87.9333 9.0
88.017 14.0
88.1007 13.0
88.1844 8.0
88.2682 13.0
88.3519 16.0
88.4356 19.0
88.5193 5.0
88.603 5.0
88.6867 18.0
88.7704 13.0
88.8541 10.0
88.9378 12.0
89.0215 9.0
89.1052 15.0
89.1889 10.0
89.2726 9.0
89.3563 12.0
89.44 12.0
89.5237 19.0
89.6074 8.0
89.6911 11.0
89.7749 7.0
89.8586 9.0
89.9423 11.0
90.026 8.0
90.1097 8.0
90.1934 15.0
90.2771 12.0
90.3608 10.0
90.4445 7.0
90.5282 7.0
90.6119 9.0
90.6956 11.0
90.7793 9.0
90.863 17.0
90.9467 14.0
91.0304 14.0
91.1141 10.0
91.1978 11.0
91.2816 6.0
91.3653 11.0
91.449 7.0
91.5327 14.0
91.6164 4.0
91.7001 2.0
91.7838 9.0
91.8675 10.0
91.9512 8.0
92.0349 9.0
92.1186 6.0
92.2023 28.0
92.286 8.0
92.3697 13.0
92.4534 10.0
92.5371 9.0
92.6208 11.0
92.7045 15.0
92.7883 14.0
92.872 11.0
92.9557 12.0
93.0394 10.0
93.1231 16.0
93.2068 10.0
93.2905 13.0
93.3742 8.0
93.4579 10.0
93.5416 11.0
93.6253 13.0
93.709 7.0
93.7927 14.0
93.8764 15.0
93.9601 8.0
94.0438 13.0
94.1275 13.0
94.2112 16.0
94.295 9.0
94.3787 10.0
94.4624 7.0
94.5461 14.0
94.6298 10.0
94.7135 11.0
94.7972 10.0
94.8809 13.0
94.9646 9.0
95.0483 16.0
95.132 9.0
95.2157 18.0
95.2994 15.0
95.3831 11.0
95.4668 4.0
95.5505 8.0
95.6342 15.0
95.7179 13.0
95.8017 10.0
95.8854 12.0
95.9691 11.0
96.0528 15.0
96.1365 11.0
96.2202 8.0
96.3039 7.0
96.3876 13.0
96.4713 19.0
96.555 13.0
96.6387 7.0
96.7224 18.0
96.8061 19.0
96.8898 10.0
96.9735 10.0
97.0572 1.0
97.1409 8.0
97.2246 14.0
97.3084 7.0
97.3921 12.0
97.4758 9.0
97.5595 17.0
97.6432 6.0
97.7269 19.0
97.8106 9.0
97.8943 12.0
97.978 8.0
98.0617 15.0
98.1454 19.0
98.2291 17.0
98.3128 12.0
98.3965 15.0
98.4802 23.0
98.5639 9.0
98.6476 11.0
98.7313 13.0
98.8151 10.0
98.8988 14.0
98.9825 12.0
99.0662 16.0
99.1499 11.0
99.2336 12.0
99.3173 15.0
99.401 14.0
99.4847 12.0
99.5684 14.0
99.6521 9.0
99.7358 14.0
99.8195 15.0
99.9032 11.0
99.9869 18.0
100.071 14.0
100.154 5.0
100.238 7.0
100.322 9.0
100.405 8.0
100.489 15.0
100.573 12.0
100.657 12.0
100.74 8.0
100.824 14.0
100.908 11.0
100.991 10.0
101.075 13.0
101.159 14.0
101.243 14.0
101.326 11.0
101.41 9.0
101.494 7.0
101.577 14.0
101.661 14.0
101.745 7.0
101.828 8.0
101.912 12.0
101.996 15.0
102.08 8.0
102.163 15.0
102.247 9.0
102.331 14.0
102.414 11.0
102.498 6.0
102.582 14.0
102.666 11.0
102.749 11.0
102.833 10.0
102.917 11.0
103 14.0
103.084 12.0
103.168 16.0
103.251 7.0
103.335 11.0
103.419 15.0
103.503 10.0
103.586 10.0
103.67 8.0
103.754 13.0
103.837 16.0
103.921 12.0
104.005 12.0
104.089 9.0
104.172 6.0
104.256 12.0
104.34 7.0
104.423 10.0
104.507 7.0
104.591 17.0
104.674 12.0
104.758 13.0
104.842 16.0
104.926 7.0
105.009 16.0
105.093 11.0
105.177 11.0
105.26 10.0
105.344 11.0
105.428 15.0
105.511 13.0
105.595 9.0
105.679 5.0
105.763 18.0
105.846 5.0
105.93 13.0
106.014 13.0
106.097 4.0
106.181 16.0
106.265 7.0
106.349 8.0
106.432 16.0
106.516 10.0
106.6 9.0
106.683 12.0
106.767 11.0
106.851 16.0
106.934 12.0
107.018 1.0
107.102 10.0
107.186 11.0
107.269 20.0
107.353 12.0
107.437 15.0
107.52 16.0
107.604 16.0
107.688 13.0
107.772 9.0
107.855 15.0
107.939 13.0
108.023 9.0
108.106 15.0
108.19 9.0
108.274 14.0
108.357 11.0
108.441 10.0
108.525 12.0
108.609 7.0
108.692 15.0
108.776 11.0
108.86 12.0
108.943 12.0
109.027 3.0
109.111 7.0
109.195 15.0
109.278 14.0
109.362 4.0
109.446 14.0
109.529 18.0
109.613 14.0
109.697 13.0
109.78 4.0
109.864 7.0
109.948 18.0
110.032 13.0
110.115 11.0
110.199 13.0
110.283 5.0
110.366 15.0
110.45 8.0
110.534 9.0
110.618 9.0
110.701 13.0
110.785 16.0
110.869 24.0
110.952 5.0
111.036 6.0
111.12 11.0
111.203 12.0
111.287 8.0
111.371 10.0
111.455 15.0
111.538 11.0
111.622 7.0
111.706 20.0
111.789 16.0
111.873 11.0
111.957 14.0
112.041 9.0
112.124 13.0
112.208 6.0
112.292 12.0
112.375 15.0
112.459 11.0
112.543 8.0
112.626 13.0
112.71 7.0
112.794 14.0
112.878 10.0
112.961 10.0
113.045 11.0
113.129 6.0
113.212 14.0
113.296 10.0
113.38 12.0
113.464 9.0
113.547 8.0
113.631 5.0
113.715 14.0
113.798 14.0
113.882 11.0
113.966 19.0
114.049 13.0
114.133 9.0
114.217 12.0
114.301 10.0
114.384 14.0
114.468 13.0
114.552 11.0
114.635 12.0
114.719 13.0
114.803 12.0
114.887 9.0
114.97 9.0
115.054 10.0
115.138 9.0
115.221 10.0
115.305 11.0
115.389 11.0
115.472 17.0
115.556 6.0
115.64 20.0
115.724 13.0
115.807 12.0
115.891 13.0
115.975 16.0
116.058 15.0
116.142 19.0
116.226 16.0
116.31 15.0
116.393 14.0
116.477 13.0
116.561 9.0
116.644 14.0
116.728 8.0
116.812 14.0
116.895 16.0
116.979 13.0
117.063 15.0
117.147 17.0
117.23 7.0
117.314 12.0
117.398 14.0
117.481 11.0
117.565 16.0
117.649 13.0
117.733 10.0
117.816 10.0
117.9 9.0
117.984 8.0
118.067 9.0
118.151 11.0
118.235 13.0
118.318 12.0
118.402 9.0
118.486 17.0
118.57 11.0
118.653 5.0
118.737 11.0
118.821 12.0
118.904 12.0
118.988 15.0
119.072 9.0
119.156 9.0
119.239 12.0
119.323 14.0
119.407 12.0
119.49 17.0
119.574 16.0
119.658 9.0
119.741 13.0
119.825 16.0
119.909 8.0
119.993 18.0
120.076 10.0
120.16 7.0
120.244 8.0
120.327 18.0
120.411 11.0
120.495 11.0
120.578 10.0
120.662 10.0
120.746 16.0
120.83 10.0
120.913 10.0
120.997 8.0
121.081 23.0
121.164 11.0
121.248 12.0
121.332 9.0
121.416 14.0
121.499 21.0
121.583 4.0
121.667 9.0
121.75 16.0
121.834 17.0
121.918 7.0
122.001 13.0
122.085 13.0
122.169 14.0
122.253 7.0
122.336 9.0
122.42 7.0
122.504 19.0
122.587 11.0
122.671 16.0
122.755 14.0
122.839 12.0
122.922 11.0
123.006 4.0
123.09 9.0
123.173 8.0
123.257 4.0
123.341 7.0
123.424 8.0
123.508 12.0
123.592 10.0
123.676 18.0
123.759 9.0
123.843 9.0
123.927 4.0
124.01 17.0
124.094 8.0
124.178 16.0
124.262 6.0
124.345 8.0
124.429 10.0
124.513 12.0
124.596 11.0
124.68 15.0
124.764 9.0
124.847 14.0
124.931 14.0
125.015 12.0
125.099 7.0
125.182 11.0
125.266 23.0
125.35 16.0
125.433 13.0
125.517 9.0
125.601 15.0
125.685 10.0
125.768 10.0
125.852 8.0
125.936 12.0
126.019 9.0
126.103 5.0
126.187 7.0
126.27 19.0
126.354 20.0
126.438 11.0
126.522 16.0
126.605 14.0
126.689 18.0
126.773 10.0
126.856 13.0
126.94 21.0
127.024 11.0
127.108 12.0
127.191 14.0
127.275 9.0
127.359 15.0
127.442 12.0
127.526 11.0
127.61 12.0
127.693 12.0
127.777 10.0
127.861 10.0
127.945 12.0
128.028 12.0
128.112 14.0
128.196 14.0
128.279 12.0
128.363 10.0
128.447 13.0
128.531 9.0
128.614 12.0
128.698 10.0
128.782 8.0
128.865 9.0
128.949 14.0
129.033 12.0
129.116 9.0
129.2 13.0
129.284 24.0
129.368 11.0
129.451 10.0
129.535 16.0
129.619 11.0
129.702 9.0
129.786 11.0
129.87 16.0
129.954 16.0
129.998 17.0