File: data/W6908r/XRD_2ThetaOmega/w6908r_scan_2th-om_r2_Cr2O3_45-55deg_PIXscan_5min.xy
45.0025 102.0
45.0123 101.0
45.0222 82.0
45.032 93.0
45.0419 108.0
45.0517 96.0
45.0615 97.0
45.0714 95.0
45.0812 114.0
45.0911 91.0
45.1009 102.0
45.1108 96.0
45.1206 105.0
45.1305 107.0
45.1403 99.0
45.1502 97.0
45.16 93.0
45.1699 88.0
45.1797 106.0
45.1896 99.0
45.1994 105.0
45.2093 93.0
45.2191 108.0
45.229 101.0
45.2388 103.0
45.2487 100.0
45.2585 85.0
45.2684 92.0
45.2782 91.0
45.288 106.0
45.2979 119.0
45.3077 108.0
45.3176 104.0
45.3274 80.0
45.3373 86.0
45.3471 91.0
45.357 118.0
45.3668 101.0
45.3767 79.0
45.3865 102.0
45.3964 84.0
45.4062 112.0
45.4161 118.0
45.4259 87.0
45.4358 91.0
45.4456 88.0
45.4555 109.0
45.4653 100.0
45.4752 87.0
45.485 102.0
45.4948 104.0
45.5047 86.0
45.5145 104.0
45.5244 87.0
45.5342 100.0
45.5441 95.0
45.5539 99.0
45.5638 91.0
45.5736 111.0
45.5835 99.0
45.5933 95.0
45.6032 101.0
45.613 120.0
45.6229 114.0
45.6327 104.0
45.6426 95.0
45.6524 115.0
45.6623 104.0
45.6721 117.0
45.682 90.0
45.6918 88.0
45.7016 110.0
45.7115 99.0
45.7213 109.0
45.7312 105.0
45.741 94.0
45.7509 88.0
45.7607 109.0
45.7706 106.0
45.7804 111.0
45.7903 92.0
45.8001 102.0
45.81 75.0
45.8198 115.0
45.8297 93.0
45.8395 105.0
45.8494 95.0
45.8592 101.0
45.8691 117.0
45.8789 98.0
45.8888 109.0
45.8986 92.0
45.9085 88.0
45.9183 87.0
45.9281 114.0
45.938 90.0
45.9478 100.0
45.9577 98.0
45.9675 104.0
45.9774 101.0
45.9872 92.0
45.9971 94.0
46.0069 88.0
46.0168 121.0
46.0266 97.0
46.0365 96.0
46.0463 96.0
46.0562 101.0
46.066 92.0
46.0759 106.0
46.0857 96.0
46.0956 79.0
46.1054 104.0
46.1153 89.0
46.1251 92.0
46.1349 97.0
46.1448 101.0
46.1546 101.0
46.1645 112.0
46.1743 118.0
46.1842 102.0
46.194 99.0
46.2039 78.0
46.2137 121.0
46.2236 88.0
46.2334 90.0
46.2433 111.0
46.2531 131.0
46.263 120.0
46.2728 119.0
46.2827 78.0
46.2925 106.0
46.3024 93.0
46.3122 95.0
46.3221 103.0
46.3319 94.0
46.3418 106.0
46.3516 121.0
46.3614 105.0
46.3713 111.0
46.3811 88.0
46.391 87.0
46.4008 99.0
46.4107 109.0
46.4205 95.0
46.4304 110.0
46.4402 109.0
46.4501 95.0
46.4599 99.0
46.4698 86.0
46.4796 95.0
46.4895 107.0
46.4993 110.0
46.5092 91.0
46.519 110.0
46.5289 116.0
46.5387 91.0
46.5486 104.0
46.5584 107.0
46.5682 77.0
46.5781 114.0
46.5879 114.0
46.5978 119.0
46.6076 93.0
46.6175 91.0
46.6273 131.0
46.6372 112.0
46.647 114.0
46.6569 97.0
46.6667 109.0
46.6766 85.0
46.6864 122.0
46.6963 111.0
46.7061 103.0
46.716 108.0
46.7258 114.0
46.7357 135.0
46.7455 133.0
46.7554 106.0
46.7652 105.0
46.7751 100.0
46.7849 116.0
46.7947 104.0
46.8046 118.0
46.8144 98.0
46.8243 117.0
46.8341 101.0
46.844 114.0
46.8538 127.0
46.8637 128.0
46.8735 119.0
46.8834 110.0
46.8932 102.0
46.9031 117.0
46.9129 115.0
46.9228 114.0
46.9326 123.0
46.9425 108.0
46.9523 125.0
46.9622 121.0
46.972 131.0
46.9819 134.0
46.9917 133.0
47.0015 156.0
47.0114 153.0
47.0212 181.0
47.0311 206.0
47.0409 219.0
47.0508 336.0
47.0606 467.0
47.0705 727.0
47.0803 959.0
47.0902 1245.0
47.1 1497.0
47.1099 1548.0
47.1197 1472.0
47.1296 1343.0
47.1394 1068.0
47.1493 817.0
47.1591 594.0
47.169 482.0
47.1788 429.0
47.1887 372.0
47.1985 383.0
47.2083 310.0
47.2182 293.0
47.228 221.0
47.2379 190.0
47.2477 180.0
47.2576 166.0
47.2674 172.0
47.2773 133.0
47.2871 156.0
47.297 125.0
47.3068 122.0
47.3167 126.0
47.3265 118.0
47.3364 127.0
47.3462 137.0
47.3561 145.0
47.3659 107.0
47.3758 122.0
47.3856 138.0
47.3955 118.0
47.4053 162.0
47.4152 127.0
47.425 104.0
47.4348 123.0
47.4447 134.0
47.4545 145.0
47.4644 146.0
47.4742 125.0
47.4841 111.0
47.4939 130.0
47.5038 121.0
47.5136 129.0
47.5235 114.0
47.5333 104.0
47.5432 114.0
47.553 131.0
47.5629 110.0
47.5727 119.0
47.5826 133.0
47.5924 113.0
47.6023 122.0
47.6121 118.0
47.622 124.0
47.6318 106.0
47.6416 110.0
47.6515 124.0
47.6613 106.0
47.6712 103.0
47.681 145.0
47.6909 102.0
47.7007 123.0
47.7106 127.0
47.7204 138.0
47.7303 127.0
47.7401 97.0
47.75 119.0
47.7598 103.0
47.7697 129.0
47.7795 117.0
47.7894 115.0
47.7992 150.0
47.8091 112.0
47.8189 115.0
47.8288 125.0
47.8386 108.0
47.8485 128.0
47.8583 123.0
47.8681 126.0
47.878 127.0
47.8878 112.0
47.8977 111.0
47.9075 117.0
47.9174 114.0
47.9272 114.0
47.9371 120.0
47.9469 121.0
47.9568 113.0
47.9666 94.0
47.9765 100.0
47.9863 105.0
47.9962 116.0
48.006 120.0
48.0159 125.0
48.0257 123.0
48.0356 125.0
48.0454 119.0
48.0553 117.0
48.0651 93.0
48.0749 96.0
48.0848 119.0
48.0946 102.0
48.1045 105.0
48.1143 113.0
48.1242 100.0
48.134 106.0
48.1439 140.0
48.1537 104.0
48.1636 130.0
48.1734 126.0
48.1833 129.0
48.1931 126.0
48.203 110.0
48.2128 134.0
48.2227 116.0
48.2325 109.0
48.2424 104.0
48.2522 101.0
48.2621 155.0
48.2719 124.0
48.2818 126.0
48.2916 140.0
48.3014 127.0
48.3113 118.0
48.3211 107.0
48.331 115.0
48.3408 134.0
48.3507 122.0
48.3605 110.0
48.3704 111.0
48.3802 114.0
48.3901 119.0
48.3999 140.0
48.4098 114.0
48.4196 134.0
48.4295 106.0
48.4393 100.0
48.4492 115.0
48.459 112.0
48.4689 122.0
48.4787 115.0
48.4886 120.0
48.4984 119.0
48.5082 123.0
48.5181 129.0
48.5279 107.0
48.5378 110.0
48.5476 124.0
48.5575 112.0
48.5673 108.0
48.5772 118.0
48.587 102.0
48.5969 131.0
48.6067 119.0
48.6166 102.0
48.6264 129.0
48.6363 100.0
48.6461 122.0
48.656 121.0
48.6658 116.0
48.6757 121.0
48.6855 125.0
48.6954 136.0
48.7052 103.0
48.715 107.0
48.7249 140.0
48.7347 112.0
48.7446 113.0
48.7544 124.0
48.7643 126.0
48.7741 132.0
48.784 101.0
48.7938 111.0
48.8037 119.0
48.8135 106.0
48.8234 108.0
48.8332 127.0
48.8431 108.0
48.8529 127.0
48.8628 115.0
48.8726 117.0
48.8825 105.0
48.8923 123.0
48.9022 120.0
48.912 139.0
48.9219 118.0
48.9317 142.0
48.9415 127.0
48.9514 132.0
48.9612 121.0
48.9711 113.0
48.9809 111.0
48.9908 104.0
49.0006 142.0
49.0105 101.0
49.0203 120.0
49.0302 116.0
49.04 108.0
49.0499 110.0
49.0597 119.0
49.0696 136.0
49.0794 107.0
49.0893 126.0
49.0991 108.0
49.109 113.0
49.1188 120.0
49.1287 132.0
49.1385 133.0
49.1483 146.0
49.1582 112.0
49.168 140.0
49.1779 133.0
49.1877 107.0
49.1976 127.0
49.2074 134.0
49.2173 126.0
49.2271 105.0
49.237 122.0
49.2468 135.0
49.2567 137.0
49.2665 129.0
49.2764 124.0
49.2862 126.0
49.2961 154.0
49.3059 117.0
49.3158 141.0
49.3256 138.0
49.3355 140.0
49.3453 126.0
49.3552 150.0
49.365 123.0
49.3748 124.0
49.3847 157.0
49.3945 151.0
49.4044 137.0
49.4142 138.0
49.4241 141.0
49.4339 152.0
49.4438 141.0
49.4536 139.0
49.4635 150.0
49.4733 157.0
49.4832 149.0
49.493 151.0
49.5029 149.0
49.5127 160.0
49.5226 151.0
49.5324 143.0
49.5423 170.0
49.5521 149.0
49.562 176.0
49.5718 160.0
49.5816 168.0
49.5915 190.0
49.6013 199.0
49.6112 155.0
49.621 167.0
49.6309 186.0
49.6407 159.0
49.6506 182.0
49.6604 189.0
49.6703 165.0
49.6801 177.0
49.69 196.0
49.6998 173.0
49.7097 193.0
49.7195 191.0
49.7294 187.0
49.7392 215.0
49.7491 182.0
49.7589 218.0
49.7688 182.0
49.7786 218.0
49.7884 190.0
49.7983 179.0
49.8081 199.0
49.818 185.0
49.8278 205.0
49.8377 210.0
49.8475 208.0
49.8574 202.0
49.8672 231.0
49.8771 238.0
49.8869 232.0
49.8968 216.0
49.9066 215.0
49.9165 230.0
49.9263 195.0
49.9362 222.0
49.946 214.0
49.9559 231.0
49.9657 240.0
49.9756 226.0
49.9854 225.0
49.9953 255.0
50.0051 229.0
50.0149 247.0
50.0248 230.0
50.0346 219.0
50.0445 285.0
50.0543 243.0
50.0642 257.0
50.074 266.0
50.0839 261.0
50.0937 232.0
50.1036 269.0
50.1134 278.0
50.1233 294.0
50.1331 330.0
50.143 327.0
50.1528 309.0
50.1627 326.0
50.1725 310.0
50.1824 333.0
50.1922 288.0
50.2021 301.0
50.2119 278.0
50.2217 297.0
50.2316 305.0
50.2414 279.0
50.2513 311.0
50.2611 268.0
50.271 318.0
50.2808 278.0
50.2907 310.0
50.3005 271.0
50.3104 284.0
50.3202 292.0
50.3301 297.0
50.3399 270.0
50.3498 287.0
50.3596 299.0
50.3695 280.0
50.3793 280.0
50.3892 301.0
50.399 271.0
50.4089 314.0
50.4187 267.0
50.4286 279.0
50.4384 285.0
50.4482 278.0
50.4581 263.0
50.4679 284.0
50.4778 306.0
50.4876 282.0
50.4975 267.0
50.5073 290.0
50.5172 282.0
50.527 269.0
50.5369 280.0
50.5467 285.0
50.5566 290.0
50.5664 301.0
50.5763 268.0
50.5861 276.0
50.596 287.0
50.6058 291.0
50.6157 269.0
50.6255 277.0
50.6354 280.0
50.6452 263.0
50.655 274.0
50.6649 267.0
50.6747 239.0
50.6846 258.0
50.6944 239.0
50.7043 283.0
50.7141 292.0
50.724 230.0
50.7338 266.0
50.7437 255.0
50.7535 223.0
50.7634 266.0
50.7732 261.0
50.7831 285.0
50.7929 257.0
50.8028 255.0
50.8126 264.0
50.8225 278.0
50.8323 263.0
50.8422 296.0
50.852 272.0
50.8619 257.0
50.8717 267.0
50.8815 261.0
50.8914 283.0
50.9012 267.0
50.9111 304.0
50.9209 257.0
50.9308 289.0
50.9406 260.0
50.9505 301.0
50.9603 260.0
50.9702 291.0
50.98 276.0
50.9899 289.0
50.9997 261.0
51.0096 271.0
51.0194 260.0
51.0293 284.0
51.0391 286.0
51.049 281.0
51.0588 280.0
51.0687 287.0
51.0785 284.0
51.0883 303.0
51.0982 296.0
51.108 313.0
51.1179 308.0
51.1277 310.0
51.1376 323.0
51.1474 294.0
51.1573 273.0
51.1671 322.0
51.177 307.0
51.1868 316.0
51.1967 329.0
51.2065 325.0
51.2164 347.0
51.2262 330.0
51.2361 337.0
51.2459 302.0
51.2558 356.0
51.2656 347.0
51.2755 359.0
51.2853 351.0
51.2951 357.0
51.305 344.0
51.3148 331.0
51.3247 371.0
51.3345 376.0
51.3444 383.0
51.3542 365.0
51.3641 416.0
51.3739 393.0
51.3838 382.0
51.3936 396.0
51.4035 433.0
51.4133 403.0
51.4232 406.0
51.433 434.0
51.4429 424.0
51.4527 431.0
51.4626 433.0
51.4724 446.0
51.4823 430.0
51.4921 440.0
51.502 459.0
51.5118 468.0
51.5216 469.0
51.5315 463.0
51.5413 514.0
51.5512 539.0
51.561 496.0
51.5709 500.0
51.5807 473.0
51.5906 478.0
51.6004 534.0
51.6103 535.0
51.6201 513.0
51.63 472.0
51.6398 520.0
51.6497 555.0
51.6595 533.0
51.6694 544.0
51.6792 600.0
51.6891 623.0
51.6989 589.0
51.7088 578.0
51.7186 598.0
51.7284 585.0
51.7383 603.0
51.7481 564.0
51.758 654.0
51.7678 665.0
51.7777 639.0
51.7875 682.0
51.7974 620.0
51.8072 652.0
51.8171 687.0
51.8269 706.0
51.8368 719.0
51.8466 709.0
51.8565 699.0
51.8663 698.0
51.8762 781.0
51.886 746.0
51.8959 753.0
51.9057 789.0
51.9156 783.0
51.9254 770.0
51.9353 811.0
51.9451 835.0
51.9549 860.0
51.9648 839.0
51.9746 894.0
51.9845 920.0
51.9943 931.0
52.0042 907.0
52.014 938.0
52.0239 1018.0
52.0337 1083.0
52.0436 1088.0
52.0534 1087.0
52.0633 1111.0
52.0731 1126.0
52.083 1195.0
52.0928 1238.0
52.1027 1350.0
52.1125 1366.0
52.1224 1410.0
52.1322 1475.0
52.1421 1480.0
52.1519 1594.0
52.1617 1704.0
52.1716 1779.0
52.1814 2107.0
52.1913 2240.0
52.2011 2508.0
52.211 2845.0
52.2208 3225.0
52.2307 3577.0
52.2405 4050.0
52.2504 4458.0
52.2602 4672.0
52.2701 4844.0
52.2799 4855.0
52.2898 4857.0
52.2996 4575.0
52.3095 4649.0
52.3193 4601.0
52.3292 4660.0
52.339 4850.0
52.3489 5227.0
52.3587 5680.0
52.3686 6449.0
52.3784 7249.0
52.3882 8252.0
52.3981 9830.0
52.4079 12049.0
52.4178 15152.0
52.4276 19722.0
52.4375 27459.0
52.4473 41626.0
52.4572 71010.0
52.467 149449.0
52.4769 276698.0
52.4867 357599.0
52.4966 390386.0
52.5064 399038.0
52.5163 375743.0
52.5261 290770.0
52.536 160591.0
52.5458 86404.0
52.5557 51422.0
52.5655 36255.0
52.5754 31070.0
52.5852 32181.0
52.595 42831.0
52.6049 72129.0
52.6147 126566.0
52.6246 172914.0
52.6344 196220.0
52.6443 200301.0
52.6541 191505.0
52.664 159161.0
52.6738 101513.0
52.6837 55866.0
52.6935 31772.0
52.7034 20221.0
52.7132 14277.0
52.7231 10921.0
52.7329 8740.0
52.7428 7552.0
52.7526 6521.0
52.7625 5676.0
52.7723 5153.0
52.7822 4662.0
52.792 4248.0
52.8018 3675.0
52.8117 3619.0
52.8215 3308.0
52.8314 3019.0
52.8412 2908.0
52.8511 2674.0
52.8609 2575.0
52.8708 2333.0
52.8806 2297.0
52.8905 2167.0
52.9003 2029.0
52.9102 1900.0
52.92 1886.0
52.9299 1752.0
52.9397 1726.0
52.9496 1613.0
52.9594 1431.0
52.9693 1449.0
52.9791 1411.0
52.989 1301.0
52.9988 1262.0
53.0087 1187.0
53.0185 1170.0
53.0283 1150.0
53.0382 1150.0
53.048 1064.0
53.0579 1001.0
53.0677 1052.0
53.0776 947.0
53.0874 988.0
53.0973 882.0
53.1071 871.0
53.117 886.0
53.1268 866.0
53.1367 839.0
53.1465 830.0
53.1564 812.0
53.1662 766.0
53.1761 771.0
53.1859 748.0
53.1958 723.0
53.2056 746.0
53.2155 724.0
53.2253 667.0
53.2351 627.0
53.245 646.0
53.2548 617.0
53.2647 613.0
53.2745 574.0
53.2844 577.0
53.2942 649.0
53.3041 541.0
53.3139 541.0
53.3238 530.0
53.3336 511.0
53.3435 503.0
53.3533 483.0
53.3632 492.0
53.373 493.0
53.3829 517.0
53.3927 511.0
53.4026 444.0
53.4124 459.0
53.4223 451.0
53.4321 416.0
53.442 445.0
53.4518 402.0
53.4616 423.0
53.4715 400.0
53.4813 420.0
53.4912 372.0
53.501 366.0
53.5109 370.0
53.5207 350.0
53.5306 366.0
53.5404 335.0
53.5503 328.0
53.5601 340.0
53.57 309.0
53.5798 323.0
53.5897 348.0
53.5995 309.0
53.6094 334.0
53.6192 310.0
53.6291 281.0
53.6389 293.0
53.6488 298.0
53.6586 309.0
53.6684 292.0
53.6783 257.0
53.6881 268.0
53.698 300.0
53.7078 258.0
53.7177 263.0
53.7275 215.0
53.7374 233.0
53.7472 220.0
53.7571 208.0
53.7669 208.0
53.7768 223.0
53.7866 203.0
53.7965 217.0
53.8063 191.0
53.8162 221.0
53.826 216.0
53.8359 210.0
53.8457 172.0
53.8556 208.0
53.8654 171.0
53.8753 176.0
53.8851 193.0
53.8949 224.0
53.9048 206.0
53.9146 210.0
53.9245 195.0
53.9343 183.0
53.9442 199.0
53.954 170.0
53.9639 174.0
53.9737 182.0
53.9836 170.0
53.9934 190.0
54.0033 192.0
54.0131 172.0
54.023 173.0
54.0328 163.0
54.0427 175.0
54.0525 161.0
54.0624 152.0
54.0722 183.0
54.0821 167.0
54.0919 164.0
54.1017 158.0
54.1116 171.0
54.1214 175.0
54.1313 182.0
54.1411 165.0
54.151 176.0
54.1608 159.0
54.1707 185.0
54.1805 173.0
54.1904 181.0
54.2002 147.0
54.2101 174.0
54.2199 160.0
54.2298 187.0
54.2396 153.0
54.2495 162.0
54.2593 181.0
54.2692 200.0
54.279 157.0
54.2889 146.0
54.2987 172.0
54.3085 160.0
54.3184 175.0
54.3282 141.0
54.3381 171.0
54.3479 156.0
54.3578 159.0
54.3676 155.0
54.3775 152.0
54.3873 152.0
54.3972 154.0
54.407 160.0
54.4169 159.0
54.4267 138.0
54.4366 161.0
54.4464 169.0
54.4563 151.0
54.4661 160.0
54.476 138.0
54.4858 161.0
54.4957 147.0
54.5055 141.0
54.5154 152.0
54.5252 145.0
54.535 153.0
54.5449 164.0
54.5547 146.0
54.5646 147.0
54.5744 158.0
54.5843 146.0
54.5941 131.0
54.604 157.0
54.6138 157.0
54.6237 146.0
54.6335 153.0
54.6434 154.0
54.6532 151.0
54.6631 143.0
54.6729 128.0
54.6828 155.0
54.6926 130.0
54.7025 135.0
54.7123 144.0
54.7222 142.0
54.732 158.0
54.7418 128.0
54.7517 131.0
54.7615 108.0
54.7714 136.0
54.7812 135.0
54.7911 154.0
54.8009 126.0
54.8108 129.0
54.8206 144.0
54.8305 131.0
54.8403 142.0
54.8502 146.0
54.86 130.0
54.8699 121.0
54.8797 146.0
54.8896 131.0
54.8994 127.0
54.9093 126.0
54.9191 138.0
54.929 126.0
54.9388 136.0
54.9487 134.0
54.9585 145.0
54.9683 113.0
54.9782 135.0
54.988 128.0
54.9979 145.0