File: data/W6785c/XRD_2ThetaOmega/W6785c_absolute_2th-om_10-130deg_PIXscan_17min_7.xy
10.0035 15.0
10.0872 21.0
10.1709 26.0
10.2546 20.0
10.3383 16.0
10.422 30.0
10.5057 24.0
10.5894 23.0
10.6731 20.0
10.7568 33.0
10.8405 19.0
10.9242 26.0
11.0079 18.0
11.0916 21.0
11.1753 33.0
11.259 18.0
11.3428 21.0
11.4265 15.0
11.5102 13.0
11.5939 24.0
11.6776 15.0
11.7613 27.0
11.845 24.0
11.9287 19.0
12.0124 24.0
12.0961 18.0
12.1798 16.0
12.2635 22.0
12.3472 20.0
12.4309 16.0
12.5146 11.0
12.5983 22.0
12.682 15.0
12.7657 19.0
12.8495 14.0
12.9332 18.0
13.0169 16.0
13.1006 13.0
13.1843 25.0
13.268 22.0
13.3517 21.0
13.4354 25.0
13.5191 19.0
13.6028 21.0
13.6865 14.0
13.7702 16.0
13.8539 14.0
13.9376 15.0
14.0213 24.0
14.105 15.0
14.1887 14.0
14.2724 19.0
14.3562 20.0
14.4399 21.0
14.5236 21.0
14.6073 19.0
14.691 21.0
14.7747 15.0
14.8584 20.0
14.9421 27.0
15.0258 23.0
15.1095 17.0
15.1932 18.0
15.2769 20.0
15.3606 16.0
15.4443 22.0
15.528 15.0
15.6117 14.0
15.6954 10.0
15.7791 10.0
15.8629 21.0
15.9466 15.0
16.0303 16.0
16.114 22.0
16.1977 20.0
16.2814 18.0
16.3651 10.0
16.4488 15.0
16.5325 25.0
16.6162 21.0
16.6999 15.0
16.7836 22.0
16.8673 12.0
16.951 19.0
17.0347 9.0
17.1184 14.0
17.2021 15.0
17.2858 11.0
17.3696 20.0
17.4533 16.0
17.537 27.0
17.6207 14.0
17.7044 14.0
17.7881 26.0
17.8718 12.0
17.9555 16.0
18.0392 15.0
18.1229 12.0
18.2066 22.0
18.2903 20.0
18.374 22.0
18.4577 15.0
18.5414 16.0
18.6251 6.0
18.7088 11.0
18.7925 15.0
18.8763 19.0
18.96 24.0
19.0437 13.0
19.1274 12.0
19.2111 9.0
19.2948 16.0
19.3785 20.0
19.4622 12.0
19.5459 13.0
19.6296 14.0
19.7133 14.0
19.797 13.0
19.8807 16.0
19.9644 15.0
20.0481 18.0
20.1318 17.0
20.2155 17.0
20.2992 17.0
20.383 14.0
20.4667 18.0
20.5504 7.0
20.6341 9.0
20.7178 11.0
20.8015 19.0
20.8852 14.0
20.9689 10.0
21.0526 20.0
21.1363 16.0
21.22 10.0
21.3037 20.0
21.3874 8.0
21.4711 15.0
21.5548 19.0
21.6385 15.0
21.7222 16.0
21.8059 20.0
21.8897 21.0
21.9734 14.0
22.0571 13.0
22.1408 17.0
22.2245 7.0
22.3082 13.0
22.3919 14.0
22.4756 16.0
22.5593 8.0
22.643 17.0
22.7267 11.0
22.8104 6.0
22.8941 16.0
22.9778 9.0
23.0615 13.0
23.1452 15.0
23.2289 7.0
23.3126 13.0
23.3964 8.0
23.4801 22.0
23.5638 11.0
23.6475 16.0
23.7312 12.0
23.8149 16.0
23.8986 13.0
23.9823 16.0
24.066 13.0
24.1497 10.0
24.2334 17.0
24.3171 16.0
24.4008 12.0
24.4845 15.0
24.5682 11.0
24.6519 16.0
24.7356 19.0
24.8193 15.0
24.9031 16.0
24.9868 18.0
25.0705 12.0
25.1542 11.0
25.2379 17.0
25.3216 12.0
25.4053 10.0
25.489 7.0
25.5727 18.0
25.6564 13.0
25.7401 12.0
25.8238 13.0
25.9075 13.0
25.9912 16.0
26.0749 11.0
26.1586 13.0
26.2423 9.0
26.326 22.0
26.4098 14.0
26.4935 7.0
26.5772 17.0
26.6609 15.0
26.7446 14.0
26.8283 15.0
26.912 17.0
26.9957 15.0
27.0794 14.0
27.1631 12.0
27.2468 9.0
27.3305 6.0
27.4142 17.0
27.4979 12.0
27.5816 15.0
27.6653 10.0
27.749 7.0
27.8327 14.0
27.9165 11.0
28.0002 13.0
28.0839 15.0
28.1676 13.0
28.2513 16.0
28.335 9.0
28.4187 8.0
28.5024 10.0
28.5861 10.0
28.6698 13.0
28.7535 10.0
28.8372 10.0
28.9209 12.0
29.0046 10.0
29.0883 13.0
29.172 13.0
29.2557 5.0
29.3394 13.0
29.4232 6.0
29.5069 19.0
29.5906 13.0
29.6743 17.0
29.758 10.0
29.8417 11.0
29.9254 14.0
30.0091 14.0
30.0928 13.0
30.1765 9.0
30.2602 11.0
30.3439 11.0
30.4276 15.0
30.5113 8.0
30.595 14.0
30.6787 17.0
30.7624 12.0
30.8461 17.0
30.9298 9.0
31.0136 17.0
31.0973 12.0
31.181 17.0
31.2647 13.0
31.3484 11.0
31.4321 14.0
31.5158 12.0
31.5995 6.0
31.6832 15.0
31.7669 17.0
31.8506 9.0
31.9343 12.0
32.018 12.0
32.1017 8.0
32.1854 13.0
32.2691 9.0
32.3528 8.0
32.4365 15.0
32.5203 10.0
32.604 14.0
32.6877 17.0
32.7714 8.0
32.8551 10.0
32.9388 11.0
33.0225 18.0
33.1062 11.0
33.1899 13.0
33.2736 11.0
33.3573 5.0
33.441 7.0
33.5247 16.0
33.6084 13.0
33.6921 12.0
33.7758 13.0
33.8595 11.0
33.9432 14.0
34.027 11.0
34.1107 10.0
34.1944 14.0
34.2781 18.0
34.3618 8.0
34.4455 10.0
34.5292 7.0
34.6129 8.0
34.6966 11.0
34.7803 8.0
34.864 13.0
34.9477 10.0
35.0314 11.0
35.1151 6.0
35.1988 11.0
35.2825 12.0
35.3662 11.0
35.4499 14.0
35.5337 9.0
35.6174 22.0
35.7011 7.0
35.7848 11.0
35.8685 15.0
35.9522 7.0
36.0359 15.0
36.1196 10.0
36.2033 13.0
36.287 9.0
36.3707 9.0
36.4544 15.0
36.5381 14.0
36.6218 9.0
36.7055 9.0
36.7892 14.0
36.8729 13.0
36.9566 14.0
37.0404 9.0
37.1241 15.0
37.2078 13.0
37.2915 21.0
37.3752 23.0
37.4589 18.0
37.5426 15.0
37.6263 15.0
37.71 20.0
37.7937 16.0
37.8774 18.0
37.9611 24.0
38.0448 16.0
38.1285 30.0
38.2122 21.0
38.2959 33.0
38.3796 36.0
38.4633 35.0
38.5471 42.0
38.6308 54.0
38.7145 113.0
38.7982 184.0
38.8819 361.0
38.9656 535.0
39.0493 502.0
39.133 304.0
39.2167 166.0
39.3004 90.0
39.3841 43.0
39.4678 30.0
39.5515 24.0
39.6352 22.0
39.7189 18.0
39.8026 34.0
39.8863 18.0
39.97 19.0
40.0538 19.0
40.1375 22.0
40.2212 20.0
40.3049 13.0
40.3886 11.0
40.4723 14.0
40.556 10.0
40.6397 22.0
40.7234 14.0
40.8071 13.0
40.8908 13.0
40.9745 17.0
41.0582 16.0
41.1419 18.0
41.2256 33.0
41.3093 34.0
41.393 49.0
41.4767 83.0
41.5605 722.0
41.6442 1704.0
41.7279 3122.0
41.8116 101.0
41.8953 48.0
41.979 42.0
42.0627 23.0
42.1464 31.0
42.2301 23.0
42.3138 28.0
42.3975 22.0
42.4812 20.0
42.5649 17.0
42.6486 22.0
42.7323 22.0
42.816 19.0
42.8997 15.0
42.9834 16.0
43.0672 13.0
43.1509 10.0
43.2346 10.0
43.3183 13.0
43.402 10.0
43.4857 14.0
43.5694 16.0
43.6531 16.0
43.7368 17.0
43.8205 16.0
43.9042 15.0
43.9879 13.0
44.0716 14.0
44.1553 14.0
44.239 20.0
44.3227 28.0
44.4064 25.0
44.4901 23.0
44.5739 15.0
44.6576 18.0
44.7413 15.0
44.825 14.0
44.9087 13.0
44.9924 14.0
45.0761 11.0
45.1598 10.0
45.2435 17.0
45.3272 20.0
45.4109 12.0
45.4946 8.0
45.5783 7.0
45.662 15.0
45.7457 5.0
45.8294 8.0
45.9131 14.0
45.9968 10.0
46.0806 11.0
46.1643 11.0
46.248 9.0
46.3317 9.0
46.4154 9.0
46.4991 12.0
46.5828 13.0
46.6665 10.0
46.7502 6.0
46.8339 13.0
46.9176 10.0
47.0013 11.0
47.085 15.0
47.1687 9.0
47.2524 12.0
47.3361 12.0
47.4198 7.0
47.5035 15.0
47.5873 10.0
47.671 11.0
47.7547 11.0
47.8384 14.0
47.9221 11.0
48.0058 12.0
48.0895 8.0
48.1732 14.0
48.2569 12.0
48.3406 25.0
48.4243 14.0
48.508 10.0
48.5917 7.0
48.6754 14.0
48.7591 6.0
48.8428 8.0
48.9265 16.0
49.0102 15.0
49.094 13.0
49.1777 14.0
49.2614 10.0
49.3451 9.0
49.4288 7.0
49.5125 12.0
49.5962 21.0
49.6799 8.0
49.7636 13.0
49.8473 14.0
49.931 9.0
50.0147 13.0
50.0984 14.0
50.1821 13.0
50.2658 13.0
50.3495 14.0
50.4332 15.0
50.5169 7.0
50.6007 16.0
50.6844 18.0
50.7681 11.0
50.8518 11.0
50.9355 10.0
51.0192 9.0
51.1029 11.0
51.1866 13.0
51.2703 15.0
51.354 11.0
51.4377 15.0
51.5214 10.0
51.6051 17.0
51.6888 10.0
51.7725 6.0
51.8562 14.0
51.9399 12.0
52.0236 18.0
52.1074 11.0
52.1911 13.0
52.2748 11.0
52.3585 8.0
52.4422 14.0
52.5259 10.0
52.6096 15.0
52.6933 6.0
52.777 12.0
52.8607 10.0
52.9444 8.0
53.0281 17.0
53.1118 12.0
53.1955 15.0
53.2792 11.0
53.3629 9.0
53.4466 11.0
53.5303 8.0
53.6141 14.0
53.6978 13.0
53.7815 8.0
53.8652 13.0
53.9489 8.0
54.0326 9.0
54.1163 14.0
54.2 10.0
54.2837 9.0
54.3674 13.0
54.4511 6.0
54.5348 13.0
54.6185 19.0
54.7022 16.0
54.7859 8.0
54.8696 15.0
54.9533 13.0
55.037 10.0
55.1208 13.0
55.2045 11.0
55.2882 16.0
55.3719 8.0
55.4556 10.0
55.5393 12.0
55.623 12.0
55.7067 13.0
55.7904 12.0
55.8741 10.0
55.9578 12.0
56.0415 10.0
56.1252 9.0
56.2089 11.0
56.2926 14.0
56.3763 15.0
56.46 15.0
56.5437 13.0
56.6275 8.0
56.7112 10.0
56.7949 11.0
56.8786 14.0
56.9623 10.0
57.046 14.0
57.1297 16.0
57.2134 14.0
57.2971 11.0
57.3808 12.0
57.4645 8.0
57.5482 17.0
57.6319 14.0
57.7156 9.0
57.7993 11.0
57.883 4.0
57.9667 5.0
58.0504 9.0
58.1342 12.0
58.2179 15.0
58.3016 15.0
58.3853 8.0
58.469 16.0
58.5527 11.0
58.6364 13.0
58.7201 15.0
58.8038 15.0
58.8875 14.0
58.9712 17.0
59.0549 8.0
59.1386 10.0
59.2223 9.0
59.306 10.0
59.3897 14.0
59.4734 16.0
59.5571 9.0
59.6409 16.0
59.7246 13.0
59.8083 7.0
59.892 16.0
59.9757 17.0
60.0594 15.0
60.1431 11.0
60.2268 9.0
60.3105 9.0
60.3942 6.0
60.4779 11.0
60.5616 15.0
60.6453 15.0
60.729 10.0
60.8127 15.0
60.8964 19.0
60.9801 14.0
61.0638 10.0
61.1476 18.0
61.2313 17.0
61.315 11.0
61.3987 15.0
61.4824 10.0
61.5661 11.0
61.6498 9.0
61.7335 11.0
61.8172 7.0
61.9009 10.0
61.9846 10.0
62.0683 6.0
62.152 14.0
62.2357 13.0
62.3194 11.0
62.4031 17.0
62.4868 8.0
62.5705 9.0
62.6543 9.0
62.738 17.0
62.8217 9.0
62.9054 16.0
62.9891 15.0
63.0728 12.0
63.1565 9.0
63.2402 13.0
63.3239 18.0
63.4076 13.0
63.4913 6.0
63.575 15.0
63.6587 9.0
63.7424 11.0
63.8261 9.0
63.9098 14.0
63.9935 12.0
64.0772 10.0
64.161 10.0
64.2447 12.0
64.3284 14.0
64.4121 13.0
64.4958 14.0
64.5795 11.0
64.6632 10.0
64.7469 16.0
64.8306 9.0
64.9143 14.0
64.998 16.0
65.0817 13.0
65.1654 6.0
65.2491 11.0
65.3328 11.0
65.4165 11.0
65.5002 13.0
65.5839 16.0
65.6677 8.0
65.7514 12.0
65.8351 17.0
65.9188 9.0
66.0025 18.0
66.0862 12.0
66.1699 15.0
66.2536 9.0
66.3373 8.0
66.421 14.0
66.5047 3.0
66.5884 5.0
66.6721 16.0
66.7558 3.0
66.8395 17.0
66.9232 14.0
67.0069 9.0
67.0906 13.0
67.1744 13.0
67.2581 8.0
67.3418 14.0
67.4255 15.0
67.5092 13.0
67.5929 13.0
67.6766 17.0
67.7603 6.0
67.844 14.0
67.9277 12.0
68.0114 13.0
68.0951 14.0
68.1788 13.0
68.2625 13.0
68.3462 12.0
68.4299 17.0
68.5136 11.0
68.5973 13.0
68.6811 10.0
68.7648 9.0
68.8485 11.0
68.9322 11.0
69.0159 12.0
69.0996 14.0
69.1833 11.0
69.267 15.0
69.3507 15.0
69.4344 21.0
69.5181 8.0
69.6018 13.0
69.6855 9.0
69.7692 17.0
69.8529 12.0
69.9366 8.0
70.0203 13.0
70.104 14.0
70.1878 12.0
70.2715 19.0
70.3552 7.0
70.4389 10.0
70.5226 14.0
70.6063 17.0
70.69 11.0
70.7737 16.0
70.8574 12.0
70.9411 13.0
71.0248 13.0
71.1085 16.0
71.1922 7.0
71.2759 9.0
71.3596 10.0
71.4433 12.0
71.527 10.0
71.6107 17.0
71.6945 14.0
71.7782 12.0
71.8619 7.0
71.9456 10.0
72.0293 15.0
72.113 13.0
72.1967 14.0
72.2804 15.0
72.3641 10.0
72.4478 17.0
72.5315 21.0
72.6152 16.0
72.6989 7.0
72.7826 18.0
72.8663 13.0
72.95 14.0
73.0337 12.0
73.1174 7.0
73.2012 14.0
73.2849 13.0
73.3686 13.0
73.4523 14.0
73.536 15.0
73.6197 12.0
73.7034 11.0
73.7871 11.0
73.8708 8.0
73.9545 10.0
74.0382 13.0
74.1219 16.0
74.2056 17.0
74.2893 18.0
74.373 3.0
74.4567 9.0
74.5404 13.0
74.6241 10.0
74.7079 7.0
74.7916 19.0
74.8753 18.0
74.959 14.0
75.0427 12.0
75.1264 13.0
75.2101 12.0
75.2938 6.0
75.3775 7.0
75.4612 11.0
75.5449 11.0
75.6286 19.0
75.7123 17.0
75.796 11.0
75.8797 9.0
75.9634 9.0
76.0471 12.0
76.1308 17.0
76.2146 10.0
76.2983 9.0
76.382 11.0
76.4657 8.0
76.5494 7.0
76.6331 14.0
76.7168 19.0
76.8005 10.0
76.8842 11.0
76.9679 18.0
77.0516 12.0
77.1353 9.0
77.219 9.0
77.3027 11.0
77.3864 6.0
77.4701 15.0
77.5538 16.0
77.6375 10.0
77.7213 14.0
77.805 15.0
77.8887 11.0
77.9724 14.0
78.0561 12.0
78.1398 8.0
78.2235 12.0
78.3072 10.0
78.3909 15.0
78.4746 9.0
78.5583 5.0
78.642 9.0
78.7257 10.0
78.8094 15.0
78.8931 14.0
78.9768 11.0
79.0605 8.0
79.1442 15.0
79.228 12.0
79.3117 15.0
79.3954 10.0
79.4791 14.0
79.5628 15.0
79.6465 6.0
79.7302 8.0
79.8139 15.0
79.8976 20.0
79.9813 29.0
80.065 9.0
80.1487 17.0
80.2324 13.0
80.3161 11.0
80.3998 8.0
80.4835 10.0
80.5672 14.0
80.6509 12.0
80.7347 14.0
80.8184 14.0
80.9021 14.0
80.9858 11.0
81.0695 10.0
81.1532 14.0
81.2369 10.0
81.3206 15.0
81.4043 16.0
81.488 17.0
81.5717 14.0
81.6554 10.0
81.7391 12.0
81.8228 10.0
81.9065 18.0
81.9902 17.0
82.0739 15.0
82.1576 19.0
82.2414 22.0
82.3251 20.0
82.4088 18.0
82.4925 22.0
82.5762 25.0
82.6599 18.0
82.7436 23.0
82.8273 15.0
82.911 12.0
82.9947 25.0
83.0784 28.0
83.1621 32.0
83.2458 27.0
83.3295 36.0
83.4132 51.0
83.4969 57.0
83.5806 75.0
83.6643 82.0
83.7481 85.0
83.8318 88.0
83.9155 102.0
83.9992 81.0
84.0829 79.0
84.1666 70.0
84.2503 71.0
84.334 43.0
84.4177 35.0
84.5014 31.0
84.5851 34.0
84.6688 19.0
84.7525 23.0
84.8362 15.0
84.9199 18.0
85.0036 15.0
85.0873 15.0
85.171 18.0
85.2548 22.0
85.3385 16.0
85.4222 16.0
85.5059 15.0
85.5896 18.0
85.6733 14.0
85.757 12.0
85.8407 27.0
85.9244 39.0
86.0081 24.0
86.0918 16.0
86.1755 11.0
86.2592 11.0
86.3429 16.0
86.4266 16.0
86.5103 20.0
86.594 10.0
86.6777 11.0
86.7615 16.0
86.8452 10.0
86.9289 16.0
87.0126 13.0
87.0963 13.0
87.18 14.0
87.2637 21.0
87.3474 18.0
87.4311 15.0
87.5148 9.0
87.5985 11.0
87.6822 12.0
87.7659 6.0
87.8496 15.0
87.9333 13.0
88.017 12.0
88.1007 13.0
88.1844 16.0
88.2682 23.0
88.3519 18.0
88.4356 27.0
88.5193 15.0
88.603 13.0
88.6867 21.0
88.7704 16.0
88.8541 17.0
88.9378 12.0
89.0215 21.0
89.1052 20.0
89.1889 19.0
89.2726 16.0
89.3563 19.0
89.44 15.0
89.5237 19.0
89.6074 18.0
89.6911 17.0
89.7749 22.0
89.8586 23.0
89.9423 28.0
90.026 27.0
90.1097 28.0
90.1934 55.0
90.2771 49.0
90.3608 64.0
90.4445 96.0
90.5282 183.0
90.6119 1266.0
90.6956 5361.0
90.7793 479.0
90.863 378.0
90.9467 3488.0
91.0304 677.0
91.1141 144.0
91.1978 81.0
91.2816 59.0
91.3653 35.0
91.449 28.0
91.5327 33.0
91.6164 20.0
91.7001 22.0
91.7838 28.0
91.8675 22.0
91.9512 28.0
92.0349 23.0
92.1186 16.0
92.2023 19.0
92.286 22.0
92.3697 22.0
92.4534 18.0
92.5371 16.0
92.6208 18.0
92.7045 8.0
92.7883 20.0
92.872 14.0
92.9557 16.0
93.0394 16.0
93.1231 16.0
93.2068 14.0
93.2905 21.0
93.3742 23.0
93.4579 15.0
93.5416 18.0
93.6253 16.0
93.709 26.0
93.7927 15.0
93.8764 12.0
93.9601 21.0
94.0438 16.0
94.1275 18.0
94.2112 18.0
94.295 14.0
94.3787 8.0
94.4624 20.0
94.5461 11.0
94.6298 18.0
94.7135 11.0
94.7972 11.0
94.8809 16.0
94.9646 12.0
95.0483 20.0
95.132 10.0
95.2157 19.0
95.2994 19.0
95.3831 11.0
95.4668 10.0
95.5505 17.0
95.6342 16.0
95.7179 17.0
95.8017 13.0
95.8854 9.0
95.9691 13.0
96.0528 9.0
96.1365 10.0
96.2202 6.0
96.3039 16.0
96.3876 19.0
96.4713 8.0
96.555 21.0
96.6387 20.0
96.7224 17.0
96.8061 13.0
96.8898 11.0
96.9735 15.0
97.0572 20.0
97.1409 15.0
97.2246 11.0
97.3084 14.0
97.3921 13.0
97.4758 10.0
97.5595 11.0
97.6432 12.0
97.7269 16.0
97.8106 14.0
97.8943 9.0
97.978 19.0
98.0617 13.0
98.1454 26.0
98.2291 13.0
98.3128 17.0
98.3965 13.0
98.4802 10.0
98.5639 11.0
98.6476 15.0
98.7313 10.0
98.8151 16.0
98.8988 13.0
98.9825 16.0
99.0662 9.0
99.1499 18.0
99.2336 6.0
99.3173 12.0
99.401 15.0
99.4847 12.0
99.5684 15.0
99.6521 17.0
99.7358 19.0
99.8195 18.0
99.9032 17.0
99.9869 11.0
100.071 23.0
100.154 17.0
100.238 14.0
100.322 11.0
100.405 13.0
100.489 15.0
100.573 14.0
100.657 15.0
100.74 12.0
100.824 12.0
100.908 11.0
100.991 6.0
101.075 11.0
101.159 9.0
101.243 12.0
101.326 13.0
101.41 15.0
101.494 14.0
101.577 13.0
101.661 11.0
101.745 17.0
101.828 24.0
101.912 13.0
101.996 22.0
102.08 6.0
102.163 13.0
102.247 12.0
102.331 17.0
102.414 11.0
102.498 9.0
102.582 11.0
102.666 13.0
102.749 14.0
102.833 17.0
102.917 12.0
103 17.0
103.084 13.0
103.168 10.0
103.251 16.0
103.335 12.0
103.419 13.0
103.503 12.0
103.586 16.0
103.67 8.0
103.754 15.0
103.837 15.0
103.921 14.0
104.005 20.0
104.089 16.0
104.172 8.0
104.256 8.0
104.34 17.0
104.423 10.0
104.507 8.0
104.591 13.0
104.674 16.0
104.758 8.0
104.842 16.0
104.926 11.0
105.009 11.0
105.093 9.0
105.177 18.0
105.26 13.0
105.344 23.0
105.428 18.0
105.511 6.0
105.595 18.0
105.679 11.0
105.763 16.0
105.846 10.0
105.93 12.0
106.014 10.0
106.097 16.0
106.181 7.0
106.265 13.0
106.349 17.0
106.432 16.0
106.516 13.0
106.6 11.0
106.683 9.0
106.767 14.0
106.851 11.0
106.934 11.0
107.018 15.0
107.102 15.0
107.186 18.0
107.269 19.0
107.353 16.0
107.437 14.0
107.52 12.0
107.604 8.0
107.688 15.0
107.772 12.0
107.855 21.0
107.939 9.0
108.023 11.0
108.106 11.0
108.19 15.0
108.274 12.0
108.357 10.0
108.441 11.0
108.525 14.0
108.609 12.0
108.692 10.0
108.776 15.0
108.86 16.0
108.943 16.0
109.027 16.0
109.111 7.0
109.195 16.0
109.278 14.0
109.362 14.0
109.446 11.0
109.529 14.0
109.613 12.0
109.697 16.0
109.78 10.0
109.864 17.0
109.948 10.0
110.032 17.0
110.115 14.0
110.199 8.0
110.283 17.0
110.366 10.0
110.45 12.0
110.534 15.0
110.618 14.0
110.701 9.0
110.785 22.0
110.869 8.0
110.952 6.0
111.036 13.0
111.12 19.0
111.203 15.0
111.287 13.0
111.371 16.0
111.455 12.0
111.538 15.0
111.622 16.0
111.706 15.0
111.789 16.0
111.873 7.0
111.957 15.0
112.041 7.0
112.124 22.0
112.208 21.0
112.292 14.0
112.375 17.0
112.459 8.0
112.543 10.0
112.626 10.0
112.71 11.0
112.794 8.0
112.878 16.0
112.961 6.0
113.045 11.0
113.129 14.0
113.212 16.0
113.296 10.0
113.38 10.0
113.464 11.0
113.547 12.0
113.631 7.0
113.715 13.0
113.798 17.0
113.882 13.0
113.966 8.0
114.049 9.0
114.133 17.0
114.217 15.0
114.301 17.0
114.384 12.0
114.468 11.0
114.552 16.0
114.635 14.0
114.719 9.0
114.803 14.0
114.887 7.0
114.97 11.0
115.054 12.0
115.138 12.0
115.221 15.0
115.305 12.0
115.389 14.0
115.472 13.0
115.556 10.0
115.64 7.0
115.724 11.0
115.807 11.0
115.891 9.0
115.975 15.0
116.058 13.0
116.142 16.0
116.226 18.0
116.31 10.0
116.393 12.0
116.477 17.0
116.561 9.0
116.644 11.0
116.728 7.0
116.812 5.0
116.895 17.0
116.979 11.0
117.063 15.0
117.147 14.0
117.23 7.0
117.314 8.0
117.398 16.0
117.481 11.0
117.565 13.0
117.649 16.0
117.733 13.0
117.816 11.0
117.9 9.0
117.984 11.0
118.067 17.0
118.151 10.0
118.235 10.0
118.318 10.0
118.402 10.0
118.486 9.0
118.57 15.0
118.653 13.0
118.737 13.0
118.821 12.0
118.904 15.0
118.988 16.0
119.072 14.0
119.156 12.0
119.239 10.0
119.323 8.0
119.407 14.0
119.49 7.0
119.574 12.0
119.658 15.0
119.741 10.0
119.825 10.0
119.909 16.0
119.993 12.0
120.076 15.0
120.16 14.0
120.244 12.0
120.327 11.0
120.411 16.0
120.495 10.0
120.578 13.0
120.662 9.0
120.746 8.0
120.83 17.0
120.913 11.0
120.997 11.0
121.081 13.0
121.164 18.0
121.248 18.0
121.332 12.0
121.416 15.0
121.499 16.0
121.583 13.0
121.667 13.0
121.75 6.0
121.834 18.0
121.918 19.0
122.001 13.0
122.085 11.0
122.169 15.0
122.253 8.0
122.336 8.0
122.42 9.0
122.504 13.0
122.587 16.0
122.671 21.0
122.755 7.0
122.839 14.0
122.922 9.0
123.006 14.0
123.09 14.0
123.173 13.0
123.257 6.0
123.341 14.0
123.424 14.0
123.508 9.0
123.592 12.0
123.676 5.0
123.759 17.0
123.843 11.0
123.927 9.0
124.01 8.0
124.094 16.0
124.178 15.0
124.262 11.0
124.345 12.0
124.429 18.0
124.513 17.0
124.596 12.0
124.68 10.0
124.764 13.0
124.847 12.0
124.931 19.0
125.015 11.0
125.099 15.0
125.182 25.0
125.266 16.0
125.35 17.0
125.433 8.0
125.517 17.0
125.601 13.0
125.685 17.0
125.768 11.0
125.852 11.0
125.936 17.0
126.019 15.0
126.103 18.0
126.187 13.0
126.27 19.0
126.354 16.0
126.438 12.0
126.522 13.0
126.605 16.0
126.689 18.0
126.773 13.0
126.856 12.0
126.94 9.0
127.024 15.0
127.108 17.0
127.191 14.0
127.275 13.0
127.359 12.0
127.442 15.0
127.526 7.0
127.61 11.0
127.693 13.0
127.777 17.0
127.861 17.0
127.945 14.0
128.028 12.0
128.112 13.0
128.196 16.0
128.279 11.0
128.363 13.0
128.447 13.0
128.531 10.0
128.614 10.0
128.698 18.0
128.782 9.0
128.865 12.0
128.949 11.0
129.033 16.0
129.116 15.0
129.2 9.0
129.284 11.0
129.368 21.0
129.451 14.0
129.535 10.0
129.619 11.0
129.702 11.0
129.786 20.0
129.87 12.0
129.954 19.0
129.998 14.0