File: data/w6929a/XRD_Omega/film_a_scan_omega_4deg_step_0.005deg0_C2.xy
16.32240 168.0
16.32740 166.0
16.33240 193.0
16.33740 171.0
16.34240 175.0
16.34740 173.0
16.35240 204.0
16.35740 203.0
16.36240 203.0
16.36740 194.0
16.37240 207.0
16.37740 229.0
16.38240 182.0
16.38740 218.0
16.39240 226.0
16.39740 196.0
16.40240 202.0
16.40740 207.0
16.41240 228.0
16.41740 199.0
16.42240 201.0
16.42740 189.0
16.43240 200.0
16.43740 200.0
16.44240 218.0
16.44740 206.0
16.45240 208.0
16.45740 232.0
16.46240 210.0
16.46740 228.0
16.47240 200.0
16.47740 247.0
16.48240 217.0
16.48740 218.0
16.49240 204.0
16.49740 216.0
16.50240 237.0
16.50740 231.0
16.51240 214.0
16.51740 219.0
16.52240 219.0
16.52740 220.0
16.53240 223.0
16.53740 237.0
16.54240 233.0
16.54740 255.0
16.55240 241.0
16.55740 262.0
16.56240 244.0
16.56740 257.0
16.57240 253.0
16.57740 231.0
16.58240 243.0
16.58740 249.0
16.59240 257.0
16.59740 244.0
16.60240 243.0
16.60740 240.0
16.61240 240.0
16.61740 267.0
16.62240 245.0
16.62740 271.0
16.63240 260.0
16.63740 264.0
16.64240 287.0
16.64740 253.0
16.65240 246.0
16.65740 282.0
16.66240 283.0
16.66740 244.0
16.67240 273.0
16.67740 276.0
16.68240 265.0
16.68740 299.0
16.69240 255.0
16.69740 281.0
16.70240 270.0
16.70740 283.0
16.71240 249.0
16.71740 289.0
16.72240 268.0
16.72740 289.0
16.73240 308.0
16.73740 288.0
16.74240 289.0
16.74740 321.0
16.75240 323.0
16.75740 314.0
16.76240 321.0
16.76740 359.0
16.77240 299.0
16.77740 312.0
16.78240 287.0
16.78740 329.0
16.79240 342.0
16.79740 309.0
16.80240 355.0
16.80740 322.0
16.81240 317.0
16.81740 333.0
16.82240 335.0
16.82740 290.0
16.83240 310.0
16.83740 314.0
16.84240 358.0
16.84740 341.0
16.85240 334.0
16.85740 345.0
16.86240 357.0
16.86740 335.0
16.87240 331.0
16.87740 328.0
16.88240 341.0
16.88740 352.0
16.89240 359.0
16.89740 344.0
16.90240 347.0
16.90740 330.0
16.91240 363.0
16.91740 375.0
16.92240 364.0
16.92740 376.0
16.93240 371.0
16.93740 366.0
16.94240 337.0
16.94740 405.0
16.95240 355.0
16.95740 387.0
16.96240 386.0
16.96740 385.0
16.97240 378.0
16.97740 362.0
16.98240 396.0
16.98740 390.0
16.99240 358.0
16.99740 413.0
17.00240 421.0
17.00740 419.0
17.01240 427.0
17.01740 428.0
17.02240 414.0
17.02740 415.0
17.03240 424.0
17.03740 396.0
17.04240 404.0
17.04740 443.0
17.05240 462.0
17.05740 415.0
17.06240 426.0
17.06740 432.0
17.07240 428.0
17.07740 458.0
17.08240 445.0
17.08740 435.0
17.09240 431.0
17.09740 414.0
17.10240 459.0
17.10740 497.0
17.11240 441.0
17.11740 458.0
17.12240 436.0
17.12740 467.0
17.13240 478.0
17.13740 491.0
17.14240 506.0
17.14740 463.0
17.15240 487.0
17.15740 503.0
17.16240 488.0
17.16740 474.0
17.17240 480.0
17.17740 481.0
17.18240 495.0
17.18740 561.0
17.19240 493.0
17.19740 507.0
17.20240 517.0
17.20740 525.0
17.21240 505.0
17.21740 486.0
17.22240 534.0
17.22740 537.0
17.23240 503.0
17.23740 581.0
17.24240 516.0
17.24740 482.0
17.25240 507.0
17.25740 530.0
17.26240 502.0
17.26740 558.0
17.27240 531.0
17.27740 502.0
17.28240 566.0
17.28740 591.0
17.29240 627.0
17.29740 539.0
17.30240 562.0
17.30740 524.0
17.31240 558.0
17.31740 597.0
17.32240 566.0
17.32740 583.0
17.33240 578.0
17.33740 540.0
17.34240 578.0
17.34740 565.0
17.35240 582.0
17.35740 605.0
17.36240 597.0
17.36740 624.0
17.37240 566.0
17.37740 592.0
17.38240 635.0
17.38740 591.0
17.39240 627.0
17.39740 648.0
17.40240 634.0
17.40740 635.0
17.41240 621.0
17.41740 646.0
17.42240 687.0
17.42740 658.0
17.43240 671.0
17.43740 712.0
17.44240 652.0
17.44740 596.0
17.45240 648.0
17.45740 673.0
17.46240 700.0
17.46740 687.0
17.47240 695.0
17.47740 695.0
17.48240 686.0
17.48740 681.0
17.49240 700.0
17.49740 704.0
17.50240 713.0
17.50740 733.0
17.51240 663.0
17.51740 713.0
17.52240 769.0
17.52740 731.0
17.53240 704.0
17.53740 755.0
17.54240 744.0
17.54740 722.0
17.55240 779.0
17.55740 737.0
17.56240 757.0
17.56740 739.0
17.57240 784.0
17.57740 798.0
17.58240 785.0
17.58740 783.0
17.59240 729.0
17.59740 790.0
17.60240 784.0
17.60740 803.0
17.61240 802.0
17.61740 811.0
17.62240 782.0
17.62740 802.0
17.63240 812.0
17.63740 832.0
17.64240 837.0
17.64740 811.0
17.65240 852.0
17.65740 825.0
17.66240 826.0
17.66740 859.0
17.67240 811.0
17.67740 905.0
17.68240 876.0
17.68740 875.0
17.69240 863.0
17.69740 922.0
17.70240 890.0
17.70740 935.0
17.71240 901.0
17.71740 891.0
17.72240 946.0
17.72740 965.0
17.73240 933.0
17.73740 897.0
17.74240 915.0
17.74740 950.0
17.75240 943.0
17.75740 943.0
17.76240 885.0
17.76740 981.0
17.77240 991.0
17.77740 921.0
17.78240 989.0
17.78740 915.0
17.79240 969.0
17.79740 1044.0
17.80240 1021.0
17.80740 997.0
17.81240 981.0
17.81740 996.0
17.82240 1078.0
17.82740 1070.0
17.83240 1069.0
17.83740 1018.0
17.84240 1033.0
17.84740 1037.0
17.85240 1050.0
17.85740 1100.0
17.86240 1068.0
17.86740 1037.0
17.87240 1098.0
17.87740 1079.0
17.88240 1068.0
17.88740 1065.0
17.89240 1114.0
17.89740 1097.0
17.90240 1177.0
17.90740 1122.0
17.91240 1135.0
17.91740 1142.0
17.92240 1159.0
17.92740 1192.0
17.93240 1205.0
17.93740 1176.0
17.94240 1209.0
17.94740 1149.0
17.95240 1229.0
17.95740 1242.0
17.96240 1180.0
17.96740 1212.0
17.97240 1262.0
17.97740 1252.0
17.98240 1243.0
17.98740 1264.0
17.99240 1209.0
17.99740 1320.0
18.00240 1248.0
18.00740 1237.0
18.01240 1331.0
18.01740 1321.0
18.02240 1303.0
18.02740 1292.0
18.03240 1356.0
18.03740 1317.0
18.04240 1357.0
18.04740 1377.0
18.05240 1379.0
18.05740 1394.0
18.06240 1376.0
18.06740 1460.0
18.07240 1425.0
18.07740 1411.0
18.08240 1465.0
18.08740 1435.0
18.09240 1345.0
18.09740 1466.0
18.10240 1425.0
18.10740 1482.0
18.11240 1493.0
18.11740 1503.0
18.12240 1501.0
18.12740 1527.0
18.13240 1486.0
18.13740 1570.0
18.14240 1556.0
18.14740 1537.0
18.15240 1588.0
18.15740 1684.0
18.16240 1607.0
18.16740 1780.0
18.17240 1691.0
18.17740 1742.0
18.18240 1687.0
18.18740 1789.0
18.19240 1694.0
18.19740 1846.0
18.20240 1859.0
18.20740 1811.0
18.21240 1796.0
18.21740 1796.0
18.22240 1856.0
18.22740 1912.0
18.23240 2005.0
18.23740 1917.0
18.24240 1984.0
18.24740 2134.0
18.25240 2226.0
18.25740 2393.0
18.26240 2524.0
18.26740 2564.0
18.27240 2745.0
18.27740 2888.0
18.28240 3003.0
18.28740 3064.0
18.29240 3060.0
18.29740 3058.0
18.30240 3087.0
18.30740 3040.0
18.31240 2879.0
18.31740 2917.0
18.32240 2748.0
18.32740 2726.0
18.33240 2622.0
18.33740 2505.0
18.34240 2570.0
18.34740 2370.0
18.35240 2419.0
18.35740 2262.0
18.36240 2209.0
18.36740 2180.0
18.37240 2093.0
18.37740 1990.0
18.38240 1881.0
18.38740 1876.0
18.39240 1884.0
18.39740 1915.0
18.40240 1797.0
18.40740 1804.0
18.41240 1792.0
18.41740 1832.0
18.42240 1756.0
18.42740 1694.0
18.43240 1637.0
18.43740 1581.0
18.44240 1640.0
18.44740 1530.0
18.45240 1546.0
18.45740 1536.0
18.46240 1504.0
18.46740 1512.0
18.47240 1519.0
18.47740 1485.0
18.48240 1547.0
18.48740 1449.0
18.49240 1558.0
18.49740 1495.0
18.50240 1434.0
18.50740 1346.0
18.51240 1428.0
18.51740 1388.0
18.52240 1395.0
18.52740 1380.0
18.53240 1381.0
18.53740 1388.0
18.54240 1359.0
18.54740 1341.0
18.55240 1330.0
18.55740 1332.0
18.56240 1343.0
18.56740 1266.0
18.57240 1275.0
18.57740 1306.0
18.58240 1286.0
18.58740 1304.0
18.59240 1260.0
18.59740 1247.0
18.60240 1207.0
18.60740 1296.0
18.61240 1227.0
18.61740 1253.0
18.62240 1252.0
18.62740 1212.0
18.63240 1247.0
18.63740 1188.0
18.64240 1189.0
18.64740 1182.0
18.65240 1162.0
18.65740 1143.0
18.66240 1182.0
18.66740 1139.0
18.67240 1161.0
18.67740 1119.0
18.68240 1103.0
18.68740 1157.0
18.69240 1061.0
18.69740 1174.0
18.70240 1122.0
18.70740 1177.0
18.71240 1132.0
18.71740 1040.0
18.72240 1042.0
18.72740 1049.0
18.73240 1042.0
18.73740 971.0
18.74240 1032.0
18.74740 1070.0
18.75240 1079.0
18.75740 1036.0
18.76240 961.0
18.76740 995.0
18.77240 987.0
18.77740 951.0
18.78240 969.0
18.78740 1007.0
18.79240 885.0
18.79740 946.0
18.80240 995.0
18.80740 925.0
18.81240 912.0
18.81740 955.0
18.82240 1022.0
18.82740 938.0
18.83240 899.0
18.83740 883.0
18.84240 918.0
18.84740 902.0
18.85240 891.0
18.85740 896.0
18.86240 953.0
18.86740 928.0
18.87240 920.0
18.87740 910.0
18.88240 892.0
18.88740 875.0
18.89240 846.0
18.89740 865.0
18.90240 855.0
18.90740 862.0
18.91240 872.0
18.91740 862.0
18.92240 811.0
18.92740 753.0
18.93240 778.0
18.93740 751.0
18.94240 748.0
18.94740 758.0
18.95240 796.0
18.95740 763.0
18.96240 798.0
18.96740 759.0
18.97240 766.0
18.97740 793.0
18.98240 808.0
18.98740 821.0
18.99240 772.0
18.99740 749.0
19.00240 820.0
19.00740 749.0
19.01240 784.0
19.01740 727.0
19.02240 762.0
19.02740 707.0
19.03240 731.0
19.03740 723.0
19.04240 710.0
19.04740 733.0
19.05240 691.0
19.05740 639.0
19.06240 690.0
19.06740 706.0
19.07240 685.0
19.07740 657.0
19.08240 647.0
19.08740 687.0
19.09240 704.0
19.09740 612.0
19.10240 639.0
19.10740 651.0
19.11240 660.0
19.11740 644.0
19.12240 671.0
19.12740 673.0
19.13240 671.0
19.13740 622.0
19.14240 626.0
19.14740 628.0
19.15240 598.0
19.15740 620.0
19.16240 619.0
19.16740 626.0
19.17240 602.0
19.17740 571.0
19.18240 585.0
19.18740 569.0
19.19240 600.0
19.19740 532.0
19.20240 636.0
19.20740 548.0
19.21240 544.0
19.21740 562.0
19.22240 534.0
19.22740 590.0
19.23240 562.0
19.23740 542.0
19.24240 544.0
19.24740 533.0
19.25240 581.0
19.25740 554.0
19.26240 509.0
19.26740 512.0
19.27240 506.0
19.27740 506.0
19.28240 496.0
19.28740 503.0
19.29240 482.0
19.29740 467.0
19.30240 511.0
19.30740 510.0
19.31240 534.0
19.31740 455.0
19.32240 499.0
19.32740 495.0
19.33240 462.0
19.33740 461.0
19.34240 465.0
19.34740 494.0
19.35240 477.0
19.35740 424.0
19.36240 484.0
19.36740 464.0
19.37240 430.0
19.37740 459.0
19.38240 461.0
19.38740 424.0
19.39240 391.0
19.39740 457.0
19.40240 428.0
19.40740 416.0
19.41240 433.0
19.41740 452.0
19.42240 445.0
19.42740 431.0
19.43240 458.0
19.43740 459.0
19.44240 418.0
19.44740 407.0
19.45240 416.0
19.45740 451.0
19.46240 395.0
19.46740 408.0
19.47240 382.0
19.47740 415.0
19.48240 431.0
19.48740 383.0
19.49240 374.0
19.49740 407.0
19.50240 369.0
19.50740 398.0
19.51240 401.0
19.51740 394.0
19.52240 357.0
19.52740 410.0
19.53240 360.0
19.53740 394.0
19.54240 383.0
19.54740 359.0
19.55240 351.0
19.55740 373.0
19.56240 367.0
19.56740 331.0
19.57240 351.0
19.57740 393.0
19.58240 327.0
19.58740 361.0
19.59240 322.0
19.59740 321.0
19.60240 347.0
19.60740 320.0
19.61240 327.0
19.61740 337.0
19.62240 350.0
19.62740 322.0
19.63240 355.0
19.63740 380.0
19.64240 333.0
19.64740 288.0
19.65240 326.0
19.65740 330.0
19.66240 320.0
19.66740 327.0
19.67240 341.0
19.67740 291.0
19.68240 314.0
19.68740 320.0
19.69240 278.0
19.69740 291.0
19.70240 281.0
19.70740 289.0
19.71240 331.0
19.71740 285.0
19.72240 284.0
19.72740 282.0
19.73240 312.0
19.73740 273.0
19.74240 295.0
19.74740 275.0
19.75240 284.0
19.75740 291.0
19.76240 280.0
19.76740 274.0
19.77240 267.0
19.77740 269.0
19.78240 283.0
19.78740 267.0
19.79240 258.0
19.79740 257.0
19.80240 254.0
19.80740 279.0
19.81240 254.0
19.81740 225.0
19.82240 247.0
19.82740 273.0
19.83240 259.0
19.83740 235.0
19.84240 229.0
19.84740 275.0
19.85240 277.0
19.85740 267.0
19.86240 256.0
19.86740 234.0
19.87240 240.0
19.87740 228.0
19.88240 266.0
19.88740 220.0
19.89240 234.0
19.89740 237.0
19.90240 273.0
19.90740 254.0
19.91240 246.0
19.91740 252.0
19.92240 223.0
19.92740 280.0
19.93240 221.0
19.93740 200.0
19.94240 223.0
19.94740 193.0
19.95240 221.0
19.95740 185.0
19.96240 220.0
19.96740 198.0
19.97240 198.0
19.97740 215.0
19.98240 219.0
19.98740 219.0
19.99240 189.0
19.99740 223.0
20.00240 205.0
20.00740 215.0
20.01240 185.0
20.01740 227.0
20.02240 200.0
20.02740 189.0
20.03240 201.0
20.03740 216.0
20.04240 203.0
20.04740 169.0
20.05240 193.0
20.05740 192.0
20.06240 204.0
20.06740 198.0
20.07240 178.0
20.07740 168.0
20.08240 196.0
20.08740 205.0
20.09240 196.0
20.09740 182.0
20.10240 189.0
20.10740 177.0
20.11240 184.0
20.11740 170.0
20.12240 175.0
20.12740 195.0
20.13240 182.0
20.13740 144.0
20.14240 171.0
20.14740 177.0
20.15240 178.0
20.15740 172.0
20.16240 174.0
20.16740 169.0
20.17240 150.0
20.17740 184.0
20.18240 150.0
20.18740 175.0
20.19240 169.0
20.19740 166.0
20.20240 172.0
20.20740 174.0
20.21240 166.0
20.21740 157.0
20.22240 153.0
20.22740 170.0
20.23240 151.0
20.23740 157.0
20.24240 167.0
20.24740 143.0
20.25240 158.0
20.25740 146.0
20.26240 128.0
20.26740 177.0
20.27240 151.0
20.27740 144.0
20.28240 157.0