File: data/W6908m/XRD_2ThetaOmega/scan_2th-om_m_Cr2O3_55-75deg_PIXscan_4min_C9.xy
55.0019 135.0
55.0166 161.0
55.0314 160.0
55.0462 129.0
55.0609 163.0
55.0757 143.0
55.0905 159.0
55.1053 137.0
55.12 121.0
55.1348 130.0
55.1496 159.0
55.1643 137.0
55.1791 156.0
55.1939 141.0
55.2087 129.0
55.2234 147.0
55.2382 144.0
55.253 140.0
55.2678 132.0
55.2825 140.0
55.2973 152.0
55.3121 146.0
55.3268 129.0
55.3416 153.0
55.3564 135.0
55.3712 153.0
55.3859 136.0
55.4007 153.0
55.4155 137.0
55.4302 128.0
55.445 135.0
55.4598 131.0
55.4746 139.0
55.4893 121.0
55.5041 142.0
55.5189 116.0
55.5336 133.0
55.5484 138.0
55.5632 146.0
55.578 150.0
55.5927 147.0
55.6075 132.0
55.6223 134.0
55.637 133.0
55.6518 130.0
55.6666 160.0
55.6814 120.0
55.6961 148.0
55.7109 144.0
55.7257 134.0
55.7404 128.0
55.7552 135.0
55.77 143.0
55.7848 136.0
55.7995 136.0
55.8143 149.0
55.8291 142.0
55.8438 145.0
55.8586 157.0
55.8734 133.0
55.8882 142.0
55.9029 140.0
55.9177 143.0
55.9325 126.0
55.9472 147.0
55.962 129.0
55.9768 151.0
55.9916 128.0
56.0063 129.0
56.0211 126.0
56.0359 122.0
56.0506 137.0
56.0654 125.0
56.0802 149.0
56.095 138.0
56.1097 156.0
56.1245 126.0
56.1393 154.0
56.154 144.0
56.1688 140.0
56.1836 130.0
56.1984 139.0
56.2131 138.0
56.2279 155.0
56.2427 146.0
56.2574 128.0
56.2722 146.0
56.287 113.0
56.3018 142.0
56.3165 150.0
56.3313 152.0
56.3461 128.0
56.3608 128.0
56.3756 159.0
56.3904 131.0
56.4052 154.0
56.4199 124.0
56.4347 160.0
56.4495 140.0
56.4642 130.0
56.479 119.0
56.4938 128.0
56.5086 137.0
56.5233 169.0
56.5381 121.0
56.5529 147.0
56.5676 146.0
56.5824 140.0
56.5972 146.0
56.612 143.0
56.6267 139.0
56.6415 145.0
56.6563 145.0
56.671 119.0
56.6858 165.0
56.7006 134.0
56.7154 144.0
56.7301 157.0
56.7449 148.0
56.7597 144.0
56.7745 150.0
56.7892 141.0
56.804 145.0
56.8188 143.0
56.8335 117.0
56.8483 130.0
56.8631 149.0
56.8779 153.0
56.8926 139.0
56.9074 115.0
56.9222 138.0
56.9369 131.0
56.9517 129.0
56.9665 153.0
56.9813 144.0
56.996 137.0
57.0108 156.0
57.0256 133.0
57.0403 151.0
57.0551 135.0
57.0699 158.0
57.0847 161.0
57.0994 138.0
57.1142 145.0
57.129 155.0
57.1437 128.0
57.1585 145.0
57.1733 160.0
57.1881 130.0
57.2028 155.0
57.2176 118.0
57.2324 157.0
57.2471 157.0
57.2619 141.0
57.2767 146.0
57.2915 133.0
57.3062 148.0
57.321 135.0
57.3358 150.0
57.3505 130.0
57.3653 144.0
57.3801 139.0
57.3949 134.0
57.4096 126.0
57.4244 145.0
57.4392 115.0
57.4539 120.0
57.4687 140.0
57.4835 136.0
57.4983 138.0
57.513 138.0
57.5278 144.0
57.5426 131.0
57.5573 146.0
57.5721 144.0
57.5869 117.0
57.6017 146.0
57.6164 135.0
57.6312 140.0
57.646 142.0
57.6607 161.0
57.6755 176.0
57.6903 149.0
57.7051 148.0
57.7198 154.0
57.7346 141.0
57.7494 152.0
57.7641 144.0
57.7789 150.0
57.7937 148.0
57.8085 142.0
57.8232 151.0
57.838 148.0
57.8528 129.0
57.8675 133.0
57.8823 150.0
57.8971 134.0
57.9119 155.0
57.9266 138.0
57.9414 159.0
57.9562 150.0
57.9709 149.0
57.9857 118.0
58.0005 142.0
58.0153 145.0
58.03 156.0
58.0448 142.0
58.0596 150.0
58.0743 135.0
58.0891 167.0
58.1039 153.0
58.1187 147.0
58.1334 138.0
58.1482 124.0
58.163 140.0
58.1777 131.0
58.1925 148.0
58.2073 126.0
58.2221 156.0
58.2368 136.0
58.2516 145.0
58.2664 120.0
58.2812 127.0
58.2959 164.0
58.3107 127.0
58.3255 142.0
58.3402 148.0
58.355 137.0
58.3698 142.0
58.3846 139.0
58.3993 142.0
58.4141 148.0
58.4289 137.0
58.4436 136.0
58.4584 138.0
58.4732 128.0
58.488 147.0
58.5027 147.0
58.5175 131.0
58.5323 138.0
58.547 140.0
58.5618 135.0
58.5766 136.0
58.5914 132.0
58.6061 155.0
58.6209 158.0
58.6357 144.0
58.6504 148.0
58.6652 135.0
58.68 136.0
58.6948 142.0
58.7095 132.0
58.7243 136.0
58.7391 168.0
58.7538 158.0
58.7686 148.0
58.7834 135.0
58.7982 149.0
58.8129 139.0
58.8277 139.0
58.8425 149.0
58.8572 126.0
58.872 121.0
58.8868 152.0
58.9016 135.0
58.9163 153.0
58.9311 157.0
58.9459 128.0
58.9606 144.0
58.9754 172.0
58.9902 130.0
59.005 149.0
59.0197 132.0
59.0345 158.0
59.0493 138.0
59.064 132.0
59.0788 157.0
59.0936 162.0
59.1084 126.0
59.1231 144.0
59.1379 160.0
59.1527 140.0
59.1674 138.0
59.1822 151.0
59.197 160.0
59.2118 149.0
59.2265 132.0
59.2413 132.0
59.2561 133.0
59.2708 143.0
59.2856 141.0
59.3004 131.0
59.3152 151.0
59.3299 129.0
59.3447 142.0
59.3595 134.0
59.3742 148.0
59.389 160.0
59.4038 147.0
59.4186 152.0
59.4333 146.0
59.4481 134.0
59.4629 130.0
59.4776 141.0
59.4924 139.0
59.5072 131.0
59.522 146.0
59.5367 146.0
59.5515 154.0
59.5663 149.0
59.581 137.0
59.5958 142.0
59.6106 147.0
59.6254 146.0
59.6401 124.0
59.6549 152.0
59.6697 142.0
59.6844 135.0
59.6992 159.0
59.714 130.0
59.7288 142.0
59.7435 164.0
59.7583 132.0
59.7731 150.0
59.7878 141.0
59.8026 133.0
59.8174 140.0
59.8322 132.0
59.8469 135.0
59.8617 143.0
59.8765 146.0
59.8913 157.0
59.906 153.0
59.9208 156.0
59.9356 123.0
59.9503 127.0
59.9651 128.0
59.9799 142.0
59.9947 142.0
60.0094 120.0
60.0242 145.0
60.039 149.0
60.0537 159.0
60.0685 140.0
60.0833 129.0
60.0981 148.0
60.1128 138.0
60.1276 142.0
60.1424 141.0
60.1571 179.0
60.1719 136.0
60.1867 148.0
60.2015 167.0
60.2162 152.0
60.231 144.0
60.2458 157.0
60.2605 145.0
60.2753 164.0
60.2901 137.0
60.3049 152.0
60.3196 155.0
60.3344 165.0
60.3492 158.0
60.3639 156.0
60.3787 142.0
60.3935 138.0
60.4083 160.0
60.423 161.0
60.4378 161.0
60.4526 155.0
60.4673 167.0
60.4821 134.0
60.4969 154.0
60.5117 136.0
60.5264 161.0
60.5412 137.0
60.556 148.0
60.5707 159.0
60.5855 188.0
60.6003 165.0
60.6151 140.0
60.6298 131.0
60.6446 160.0
60.6594 154.0
60.6741 167.0
60.6889 193.0
60.7037 188.0
60.7185 196.0
60.7332 190.0
60.748 265.0
60.7628 319.0
60.7775 452.0
60.7923 597.0
60.8071 921.0
60.8219 1082.0
60.8366 1098.0
60.8514 960.0
60.8662 723.0
60.8809 581.0
60.8957 526.0
60.9105 494.0
60.9253 471.0
60.94 408.0
60.9548 319.0
60.9696 260.0
60.9843 209.0
60.9991 228.0
61.0139 182.0
61.0287 196.0
61.0434 185.0
61.0582 189.0
61.073 185.0
61.0877 154.0
61.1025 163.0
61.1173 179.0
61.1321 172.0
61.1468 144.0
61.1616 165.0
61.1764 159.0
61.1911 145.0
61.2059 150.0
61.2207 159.0
61.2355 151.0
61.2502 163.0
61.265 171.0
61.2798 171.0
61.2945 152.0
61.3093 154.0
61.3241 149.0
61.3389 155.0
61.3536 175.0
61.3684 152.0
61.3832 158.0
61.398 158.0
61.4127 172.0
61.4275 142.0
61.4423 134.0
61.457 164.0
61.4718 151.0
61.4866 152.0
61.5014 159.0
61.5161 142.0
61.5309 159.0
61.5457 141.0
61.5604 170.0
61.5752 168.0
61.59 147.0
61.6048 147.0
61.6195 170.0
61.6343 176.0
61.6491 151.0
61.6638 155.0
61.6786 156.0
61.6934 152.0
61.7082 146.0
61.7229 163.0
61.7377 170.0
61.7525 160.0
61.7672 167.0
61.782 162.0
61.7968 152.0
61.8116 145.0
61.8263 151.0
61.8411 152.0
61.8559 160.0
61.8706 169.0
61.8854 142.0
61.9002 178.0
61.915 142.0
61.9297 163.0
61.9445 179.0
61.9593 148.0
61.974 145.0
61.9888 147.0
62.0036 146.0
62.0184 155.0
62.0331 152.0
62.0479 154.0
62.0627 153.0
62.0774 156.0
62.0922 167.0
62.107 141.0
62.1218 161.0
62.1365 138.0
62.1513 149.0
62.1661 129.0
62.1808 157.0
62.1956 153.0
62.2104 172.0
62.2252 159.0
62.2399 141.0
62.2547 155.0
62.2695 167.0
62.2842 150.0
62.299 140.0
62.3138 135.0
62.3286 148.0
62.3433 140.0
62.3581 176.0
62.3729 143.0
62.3876 157.0
62.4024 145.0
62.4172 146.0
62.432 169.0
62.4467 122.0
62.4615 173.0
62.4763 159.0
62.491 144.0
62.5058 163.0
62.5206 157.0
62.5354 162.0
62.5501 167.0
62.5649 136.0
62.5797 156.0
62.5944 153.0
62.6092 153.0
62.624 140.0
62.6388 132.0
62.6535 156.0
62.6683 122.0
62.6831 152.0
62.6978 161.0
62.7126 153.0
62.7274 144.0
62.7422 147.0
62.7569 162.0
62.7717 171.0
62.7865 184.0
62.8012 142.0
62.816 138.0
62.8308 151.0
62.8456 147.0
62.8603 166.0
62.8751 148.0
62.8899 152.0
62.9047 159.0
62.9194 154.0
62.9342 147.0
62.949 180.0
62.9637 155.0
62.9785 149.0
62.9933 163.0
63.0081 156.0
63.0228 153.0
63.0376 134.0
63.0524 146.0
63.0671 174.0
63.0819 158.0
63.0967 166.0
63.1115 154.0
63.1262 155.0
63.141 146.0
63.1558 176.0
63.1705 162.0
63.1853 156.0
63.2001 160.0
63.2149 142.0
63.2296 150.0
63.2444 149.0
63.2592 158.0
63.2739 177.0
63.2887 172.0
63.3035 177.0
63.3183 168.0
63.333 135.0
63.3478 154.0
63.3626 145.0
63.3773 169.0
63.3921 165.0
63.4069 154.0
63.4217 152.0
63.4364 154.0
63.4512 151.0
63.466 181.0
63.4807 165.0
63.4955 169.0
63.5103 170.0
63.5251 160.0
63.5398 161.0
63.5546 181.0
63.5694 161.0
63.5841 168.0
63.5989 138.0
63.6137 170.0
63.6285 169.0
63.6432 172.0
63.658 165.0
63.6728 154.0
63.6875 143.0
63.7023 177.0
63.7171 187.0
63.7319 173.0
63.7466 169.0
63.7614 165.0
63.7762 146.0
63.7909 158.0
63.8057 176.0
63.8205 156.0
63.8353 167.0
63.85 177.0
63.8648 184.0
63.8796 154.0
63.8943 157.0
63.9091 156.0
63.9239 153.0
63.9387 170.0
63.9534 168.0
63.9682 171.0
63.983 174.0
63.9977 161.0
64.0125 166.0
64.0273 180.0
64.0421 172.0
64.0568 156.0
64.0716 158.0
64.0864 183.0
64.1011 185.0
64.1159 188.0
64.1307 169.0
64.1455 180.0
64.1602 177.0
64.175 181.0
64.1898 198.0
64.2045 170.0
64.2193 175.0
64.2341 153.0
64.2489 184.0
64.2636 184.0
64.2784 174.0
64.2932 185.0
64.3079 179.0
64.3227 202.0
64.3375 202.0
64.3523 183.0
64.367 202.0
64.3818 188.0
64.3966 199.0
64.4114 199.0
64.4261 210.0
64.4409 220.0
64.4557 203.0
64.4704 222.0
64.4852 241.0
64.5 210.0
64.5148 215.0
64.5295 214.0
64.5443 229.0
64.5591 237.0
64.5738 258.0
64.5886 242.0
64.6034 255.0
64.6182 269.0
64.6329 264.0
64.6477 268.0
64.6625 284.0
64.6772 279.0
64.692 297.0
64.7068 297.0
64.7216 279.0
64.7363 288.0
64.7511 304.0
64.7659 281.0
64.7806 328.0
64.7954 291.0
64.8102 308.0
64.825 350.0
64.8397 331.0
64.8545 343.0
64.8693 354.0
64.884 304.0
64.8988 371.0
64.9136 343.0
64.9284 358.0
64.9431 372.0
64.9579 342.0
64.9727 362.0
64.9874 349.0
65.0022 334.0
65.017 334.0
65.0318 365.0
65.0465 334.0
65.0613 344.0
65.0761 370.0
65.0908 375.0
65.1056 360.0
65.1204 325.0
65.1352 361.0
65.1499 361.0
65.1647 343.0
65.1795 371.0
65.1942 354.0
65.209 315.0
65.2238 331.0
65.2386 350.0
65.2533 359.0
65.2681 325.0
65.2829 340.0
65.2976 334.0
65.3124 316.0
65.3272 352.0
65.342 320.0
65.3567 315.0
65.3715 311.0
65.3863 293.0
65.401 269.0
65.4158 244.0
65.4306 264.0
65.4454 301.0
65.4601 291.0
65.4749 293.0
65.4897 283.0
65.5044 279.0
65.5192 292.0
65.534 274.0
65.5488 238.0
65.5635 256.0
65.5783 257.0
65.5931 231.0
65.6078 243.0
65.6226 261.0
65.6374 242.0
65.6522 239.0
65.6669 272.0
65.6817 230.0
65.6965 235.0
65.7112 255.0
65.726 219.0
65.7408 234.0
65.7556 227.0
65.7703 224.0
65.7851 223.0
65.7999 236.0
65.8146 218.0
65.8294 217.0
65.8442 195.0
65.859 234.0
65.8737 220.0
65.8885 206.0
65.9033 209.0
65.9181 266.0
65.9328 235.0
65.9476 196.0
65.9624 228.0
65.9771 235.0
65.9919 232.0
66.0067 207.0
66.0215 219.0
66.0362 221.0
66.051 235.0
66.0658 211.0
66.0805 225.0
66.0953 232.0
66.1101 211.0
66.1249 228.0
66.1396 222.0
66.1544 293.0
66.1692 231.0
66.1839 296.0
66.1987 262.0
66.2135 271.0
66.2283 266.0
66.243 288.0
66.2578 233.0
66.2726 256.0
66.2873 230.0
66.3021 261.0
66.3169 269.0
66.3317 320.0
66.3464 300.0
66.3612 310.0
66.376 272.0
66.3907 291.0
66.4055 302.0
66.4203 293.0
66.4351 277.0
66.4498 289.0
66.4646 316.0
66.4794 290.0
66.4941 316.0
66.5089 319.0
66.5237 295.0
66.5385 296.0
66.5532 321.0
66.568 299.0
66.5828 301.0
66.5975 312.0
66.6123 365.0
66.6271 345.0
66.6419 296.0
66.6566 304.0
66.6714 302.0
66.6862 332.0
66.7009 367.0
66.7157 318.0
66.7305 338.0
66.7453 317.0
66.76 354.0
66.7748 375.0
66.7896 369.0
66.8043 355.0
66.8191 361.0
66.8339 363.0
66.8487 380.0
66.8634 393.0
66.8782 412.0
66.893 360.0
66.9077 412.0
66.9225 394.0
66.9373 389.0
66.9521 438.0
66.9668 445.0
66.9816 383.0
66.9964 400.0
67.0111 419.0
67.0259 405.0
67.0407 418.0
67.0555 423.0
67.0702 417.0
67.085 446.0
67.0998 441.0
67.1145 443.0
67.1293 410.0
67.1441 485.0
67.1589 459.0
67.1736 477.0
67.1884 422.0
67.2032 486.0
67.2179 506.0
67.2327 490.0
67.2475 528.0
67.2623 480.0
67.277 503.0
67.2918 535.0
67.3066 538.0
67.3213 534.0
67.3361 540.0
67.3509 611.0
67.3657 611.0
67.3804 637.0
67.3952 629.0
67.41 628.0
67.4248 629.0
67.4395 634.0
67.4543 672.0
67.4691 686.0
67.4838 663.0
67.4986 673.0
67.5134 734.0
67.5282 759.0
67.5429 731.0
67.5577 775.0
67.5725 784.0
67.5872 837.0
67.602 837.0
67.6168 919.0
67.6316 885.0
67.6463 938.0
67.6611 920.0
67.6759 1008.0
67.6906 1104.0
67.7054 1198.0
67.7202 1389.0
67.735 1550.0
67.7497 1663.0
67.7645 2003.0
67.7793 2233.0
67.794 2428.0
67.8088 2799.0
67.8236 2834.0
67.8384 3037.0
67.8531 2961.0
67.8679 2939.0
67.8827 2874.0
67.8974 2686.0
67.9122 2875.0
67.927 2886.0
67.9418 3033.0
67.9565 3365.0
67.9713 3869.0
67.9861 4427.0
68.0008 4925.0
68.0156 5920.0
68.0304 7391.0
68.0452 9414.0
68.0599 12055.0
68.0747 17617.0
68.0895 26787.0
68.1042 46953.0
68.119 127738.0
68.1338 216961.0
68.1486 274361.0
68.1633 273079.0
68.1781 188861.0
68.1929 100999.0
68.2076 45774.0
68.2224 28954.0
68.2372 18746.0
68.252 15895.0
68.2667 15753.0
68.2815 19335.0
68.2963 30525.0
68.311 62315.0
68.3258 108879.0
68.3406 135069.0
68.3554 134254.0
68.3701 101268.0
68.3849 55108.0
68.3997 28005.0
68.4144 15690.0
68.4292 10306.0
68.444 7309.0
68.4588 5976.0
68.4735 4963.0
68.4883 4147.0
68.5031 3615.0
68.5178 3317.0
68.5326 2943.0
68.5474 2639.0
68.5622 2447.0
68.5769 2206.0
68.5917 2095.0
68.6065 1931.0
68.6212 1804.0
68.636 1669.0
68.6508 1624.0
68.6656 1555.0
68.6803 1447.0
68.6951 1346.0
68.7099 1278.0
68.7246 1219.0
68.7394 1175.0
68.7542 1166.0
68.769 1133.0
68.7837 1017.0
68.7985 977.0
68.8133 929.0
68.828 949.0
68.8428 868.0
68.8576 846.0
68.8724 819.0
68.8871 808.0
68.9019 743.0
68.9167 756.0
68.9315 696.0
68.9462 709.0
68.961 665.0
68.9758 683.0
68.9905 660.0
69.0053 649.0
69.0201 602.0
69.0349 608.0
69.0496 624.0
69.0644 603.0
69.0792 569.0
69.0939 555.0
69.1087 508.0
69.1235 500.0
69.1383 498.0
69.153 491.0
69.1678 452.0
69.1826 482.0
69.1973 457.0
69.2121 470.0
69.2269 493.0
69.2417 442.0
69.2564 427.0
69.2712 407.0
69.286 432.0
69.3007 413.0
69.3155 366.0
69.3303 410.0
69.3451 407.0
69.3598 416.0
69.3746 357.0
69.3894 384.0
69.4041 355.0
69.4189 360.0
69.4337 351.0
69.4485 349.0
69.4632 339.0
69.478 341.0
69.4928 341.0
69.5075 298.0
69.5223 315.0
69.5371 342.0
69.5519 313.0
69.5666 292.0
69.5814 321.0
69.5962 292.0
69.6109 315.0
69.6257 304.0
69.6405 308.0
69.6553 275.0
69.67 269.0
69.6848 265.0
69.6996 217.0
69.7143 264.0
69.7291 262.0
69.7439 289.0
69.7587 229.0
69.7734 264.0
69.7882 214.0
69.803 236.0
69.8177 278.0
69.8325 218.0
69.8473 207.0
69.8621 201.0
69.8768 224.0
69.8916 222.0
69.9064 233.0
69.9211 243.0
69.9359 236.0
69.9507 227.0
69.9655 238.0
69.9802 221.0
69.995 205.0
70.0098 198.0
70.0245 221.0
70.0393 219.0
70.0541 199.0
70.0689 225.0
70.0836 220.0
70.0984 208.0
70.1132 214.0
70.1279 220.0
70.1427 172.0
70.1575 203.0
70.1723 209.0
70.187 171.0
70.2018 194.0
70.2166 192.0
70.2313 196.0
70.2461 213.0
70.2609 210.0
70.2757 193.0
70.2904 186.0
70.3052 207.0
70.32 206.0
70.3347 210.0
70.3495 193.0
70.3643 163.0
70.3791 184.0
70.3938 199.0
70.4086 168.0
70.4234 182.0
70.4382 196.0
70.4529 196.0
70.4677 187.0
70.4825 184.0
70.4972 177.0
70.512 196.0
70.5268 178.0
70.5416 187.0
70.5563 192.0
70.5711 180.0
70.5859 199.0
70.6006 205.0
70.6154 213.0
70.6302 182.0
70.645 171.0
70.6597 190.0
70.6745 174.0
70.6893 196.0
70.704 195.0
70.7188 172.0
70.7336 221.0
70.7484 212.0
70.7631 183.0
70.7779 181.0
70.7927 180.0
70.8074 188.0
70.8222 183.0
70.837 162.0
70.8518 158.0
70.8665 170.0
70.8813 206.0
70.8961 170.0
70.9108 183.0
70.9256 174.0
70.9404 174.0
70.9552 163.0
70.9699 177.0
70.9847 183.0
70.9995 167.0
71.0142 166.0
71.029 160.0
71.0438 163.0
71.0586 180.0
71.0733 152.0
71.0881 179.0
71.1029 189.0
71.1176 187.0
71.1324 167.0
71.1472 203.0
71.162 157.0
71.1767 172.0
71.1915 182.0
71.2063 155.0
71.221 176.0
71.2358 158.0
71.2506 166.0
71.2654 180.0
71.2801 185.0
71.2949 185.0
71.3097 162.0
71.3244 155.0
71.3392 143.0
71.354 197.0
71.3688 171.0
71.3835 179.0
71.3983 198.0
71.4131 157.0
71.4278 158.0
71.4426 167.0
71.4574 165.0
71.4722 191.0
71.4869 175.0
71.5017 161.0
71.5165 177.0
71.5312 180.0
71.546 168.0
71.5608 141.0
71.5756 187.0
71.5903 154.0
71.6051 166.0
71.6199 184.0
71.6346 149.0
71.6494 159.0
71.6642 162.0
71.679 187.0
71.6937 188.0
71.7085 161.0
71.7233 174.0
71.738 156.0
71.7528 154.0
71.7676 144.0
71.7824 153.0
71.7971 183.0
71.8119 154.0
71.8267 165.0
71.8414 173.0
71.8562 152.0
71.871 169.0
71.8858 171.0
71.9005 193.0
71.9153 153.0
71.9301 150.0
71.9449 168.0
71.9596 168.0
71.9744 157.0
71.9892 177.0
72.0039 166.0
72.0187 151.0
72.0335 181.0
72.0483 174.0
72.063 162.0
72.0778 166.0
72.0926 166.0
72.1073 176.0
72.1221 170.0
72.1369 170.0
72.1517 146.0
72.1664 195.0
72.1812 171.0
72.196 161.0
72.2107 147.0
72.2255 169.0
72.2403 142.0
72.2551 162.0
72.2698 152.0
72.2846 141.0
72.2994 193.0
72.3141 153.0
72.3289 180.0
72.3437 154.0
72.3585 157.0
72.3732 164.0
72.388 174.0
72.4028 149.0
72.4175 151.0
72.4323 160.0
72.4471 143.0
72.4619 160.0
72.4766 144.0
72.4914 172.0
72.5062 177.0
72.5209 154.0
72.5357 164.0
72.5505 168.0
72.5653 137.0
72.58 135.0
72.5948 158.0
72.6096 154.0
72.6243 157.0
72.6391 152.0
72.6539 146.0
72.6687 153.0
72.6834 155.0
72.6982 165.0
72.713 155.0
72.7277 130.0
72.7425 162.0
72.7573 146.0
72.7721 181.0
72.7868 140.0
72.8016 179.0
72.8164 140.0
72.8311 144.0
72.8459 169.0
72.8607 144.0
72.8755 155.0
72.8902 143.0
72.905 158.0
72.9198 163.0
72.9345 154.0
72.9493 152.0
72.9641 132.0
72.9789 169.0
72.9936 157.0
73.0084 150.0
73.0232 188.0
73.0379 157.0
73.0527 156.0
73.0675 146.0
73.0823 160.0
73.097 158.0
73.1118 134.0
73.1266 167.0
73.1413 160.0
73.1561 152.0
73.1709 135.0
73.1857 159.0
73.2004 146.0
73.2152 141.0
73.23 152.0
73.2447 171.0
73.2595 155.0
73.2743 140.0
73.2891 175.0
73.3038 135.0
73.3186 159.0
73.3334 161.0
73.3481 147.0
73.3629 156.0
73.3777 152.0
73.3925 174.0
73.4072 172.0
73.422 166.0
73.4368 139.0
73.4516 162.0
73.4663 139.0
73.4811 164.0
73.4959 161.0
73.5106 145.0
73.5254 148.0
73.5402 133.0
73.555 158.0
73.5697 167.0
73.5845 171.0
73.5993 160.0
73.614 144.0
73.6288 151.0
73.6436 160.0
73.6584 165.0
73.6731 167.0
73.6879 151.0
73.7027 133.0
73.7174 145.0
73.7322 147.0
73.747 151.0
73.7618 181.0
73.7765 153.0
73.7913 159.0
73.8061 158.0
73.8208 162.0
73.8356 174.0
73.8504 166.0
73.8652 157.0
73.8799 139.0
73.8947 160.0
73.9095 166.0
73.9242 161.0
73.939 160.0
73.9538 152.0
73.9686 139.0
73.9833 146.0
73.9981 176.0
74.0129 136.0
74.0276 170.0
74.0424 160.0
74.0572 133.0
74.072 170.0
74.0867 141.0
74.1015 153.0
74.1163 147.0
74.131 135.0
74.1458 147.0
74.1606 160.0
74.1754 155.0
74.1901 158.0
74.2049 154.0
74.2197 146.0
74.2344 145.0
74.2492 149.0
74.264 141.0
74.2788 158.0
74.2935 147.0
74.3083 157.0
74.3231 152.0
74.3378 136.0
74.3526 160.0
74.3674 137.0
74.3822 157.0
74.3969 145.0
74.4117 143.0
74.4265 144.0
74.4412 159.0
74.456 170.0
74.4708 146.0
74.4856 147.0
74.5003 147.0
74.5151 175.0
74.5299 173.0
74.5446 148.0
74.5594 146.0
74.5742 161.0
74.589 181.0
74.6037 166.0
74.6185 134.0
74.6333 148.0
74.648 168.0
74.6628 161.0
74.6776 140.0
74.6924 165.0
74.7071 144.0
74.7219 135.0
74.7367 151.0
74.7514 159.0
74.7662 148.0
74.781 120.0
74.7958 145.0
74.8105 152.0
74.8253 173.0
74.8401 154.0
74.8548 162.0
74.8696 132.0
74.8844 144.0
74.8992 159.0
74.9139 163.0
74.9287 143.0
74.9435 161.0
74.9583 150.0
74.973 164.0
74.9878 150.0
74.9976 150.0