File: data/W6906a/XRD_Omega/scan_omega_4deg_step_0.005deg0_C7_1.xy
16.23490 67.0
16.23990 69.0
16.24490 51.0
16.24990 54.0
16.25490 57.0
16.25990 47.0
16.26490 56.0
16.26990 63.0
16.27490 67.0
16.27990 49.0
16.28490 66.0
16.28990 56.0
16.29490 61.0
16.29990 45.0
16.30490 60.0
16.30990 71.0
16.31490 52.0
16.31990 67.0
16.32490 61.0
16.32990 55.0
16.33490 58.0
16.33990 60.0
16.34490 59.0
16.34990 63.0
16.35490 64.0
16.35990 58.0
16.36490 76.0
16.36990 63.0
16.37490 49.0
16.37990 55.0
16.38490 57.0
16.38990 66.0
16.39490 64.0
16.39990 57.0
16.40490 61.0
16.40990 62.0
16.41490 65.0
16.41990 55.0
16.42490 66.0
16.42990 62.0
16.43490 70.0
16.43990 71.0
16.44490 54.0
16.44990 60.0
16.45490 73.0
16.45990 64.0
16.46490 55.0
16.46990 61.0
16.47490 62.0
16.47990 58.0
16.48490 65.0
16.48990 61.0
16.49490 56.0
16.49990 70.0
16.50490 65.0
16.50990 56.0
16.51490 65.0
16.51990 52.0
16.52490 80.0
16.52990 46.0
16.53490 57.0
16.53990 60.0
16.54490 78.0
16.54990 72.0
16.55490 74.0
16.55990 56.0
16.56490 67.0
16.56990 59.0
16.57490 52.0
16.57990 59.0
16.58490 56.0
16.58990 48.0
16.59490 58.0
16.59990 55.0
16.60490 68.0
16.60990 56.0
16.61490 62.0
16.61990 75.0
16.62490 56.0
16.62990 68.0
16.63490 59.0
16.63990 58.0
16.64490 66.0
16.64990 66.0
16.65490 56.0
16.65990 65.0
16.66490 54.0
16.66990 65.0
16.67490 61.0
16.67990 65.0
16.68490 49.0
16.68990 63.0
16.69490 53.0
16.69990 71.0
16.70490 58.0
16.70990 68.0
16.71490 69.0
16.71990 75.0
16.72490 76.0
16.72990 60.0
16.73490 57.0
16.73990 71.0
16.74490 59.0
16.74990 56.0
16.75490 54.0
16.75990 59.0
16.76490 50.0
16.76990 75.0
16.77490 62.0
16.77990 62.0
16.78490 75.0
16.78990 55.0
16.79490 53.0
16.79990 55.0
16.80490 55.0
16.80990 59.0
16.81490 63.0
16.81990 66.0
16.82490 62.0
16.82990 67.0
16.83490 61.0
16.83990 59.0
16.84490 48.0
16.84990 74.0
16.85490 59.0
16.85990 64.0
16.86490 71.0
16.86990 61.0
16.87490 56.0
16.87990 74.0
16.88490 58.0
16.88990 65.0
16.89490 70.0
16.89990 69.0
16.90490 61.0
16.90990 69.0
16.91490 68.0
16.91990 48.0
16.92490 54.0
16.92990 65.0
16.93490 72.0
16.93990 58.0
16.94490 54.0
16.94990 72.0
16.95490 65.0
16.95990 49.0
16.96490 78.0
16.96990 51.0
16.97490 56.0
16.97990 58.0
16.98490 65.0
16.98990 65.0
16.99490 55.0
16.99990 61.0
17.00490 63.0
17.00990 67.0
17.01490 61.0
17.01990 75.0
17.02490 59.0
17.02990 63.0
17.03490 59.0
17.03990 76.0
17.04490 56.0
17.04990 71.0
17.05490 67.0
17.05990 64.0
17.06490 49.0
17.06990 64.0
17.07490 61.0
17.07990 83.0
17.08490 69.0
17.08990 64.0
17.09490 76.0
17.09990 72.0
17.10490 74.0
17.10990 66.0
17.11490 68.0
17.11990 70.0
17.12490 67.0
17.12990 75.0
17.13490 84.0
17.13990 63.0
17.14490 70.0
17.14990 79.0
17.15490 68.0
17.15990 65.0
17.16490 68.0
17.16990 62.0
17.17490 68.0
17.17990 64.0
17.18490 67.0
17.18990 78.0
17.19490 57.0
17.19990 63.0
17.20490 60.0
17.20990 69.0
17.21490 71.0
17.21990 75.0
17.22490 63.0
17.22990 69.0
17.23490 86.0
17.23990 72.0
17.24490 72.0
17.24990 90.0
17.25490 60.0
17.25990 93.0
17.26490 71.0
17.26990 65.0
17.27490 73.0
17.27990 83.0
17.28490 73.0
17.28990 83.0
17.29490 86.0
17.29990 69.0
17.30490 86.0
17.30990 77.0
17.31490 64.0
17.31990 82.0
17.32490 64.0
17.32990 70.0
17.33490 67.0
17.33990 78.0
17.34490 83.0
17.34990 85.0
17.35490 84.0
17.35990 83.0
17.36490 89.0
17.36990 55.0
17.37490 92.0
17.37990 68.0
17.38490 81.0
17.38990 80.0
17.39490 89.0
17.39990 92.0
17.40490 84.0
17.40990 86.0
17.41490 76.0
17.41990 100.0
17.42490 77.0
17.42990 85.0
17.43490 83.0
17.43990 74.0
17.44490 96.0
17.44990 91.0
17.45490 89.0
17.45990 97.0
17.46490 92.0
17.46990 88.0
17.47490 98.0
17.47990 82.0
17.48490 85.0
17.48990 108.0
17.49490 88.0
17.49990 94.0
17.50490 99.0
17.50990 82.0
17.51490 95.0
17.51990 73.0
17.52490 102.0
17.52990 103.0
17.53490 125.0
17.53990 95.0
17.54490 105.0
17.54990 109.0
17.55490 97.0
17.55990 108.0
17.56490 111.0
17.56990 109.0
17.57490 123.0
17.57990 118.0
17.58490 113.0
17.58990 131.0
17.59490 104.0
17.59990 118.0
17.60490 122.0
17.60990 120.0
17.61490 142.0
17.61990 120.0
17.62490 101.0
17.62990 130.0
17.63490 124.0
17.63990 122.0
17.64490 118.0
17.64990 157.0
17.65490 133.0
17.65990 137.0
17.66490 118.0
17.66990 141.0
17.67490 136.0
17.67990 116.0
17.68490 142.0
17.68990 163.0
17.69490 183.0
17.69990 155.0
17.70490 151.0
17.70990 172.0
17.71490 168.0
17.71990 192.0
17.72490 167.0
17.72990 176.0
17.73490 156.0
17.73990 194.0
17.74490 194.0
17.74990 205.0
17.75490 215.0
17.75990 202.0
17.76490 199.0
17.76990 212.0
17.77490 225.0
17.77990 212.0
17.78490 215.0
17.78990 209.0
17.79490 218.0
17.79990 245.0
17.80490 252.0
17.80990 268.0
17.81490 290.0
17.81990 309.0
17.82490 312.0
17.82990 279.0
17.83490 285.0
17.83990 305.0
17.84490 314.0
17.84990 315.0
17.85490 305.0
17.85990 330.0
17.86490 351.0
17.86990 365.0
17.87490 368.0
17.87990 355.0
17.88490 344.0
17.88990 368.0
17.89490 405.0
17.89990 407.0
17.90490 414.0
17.90990 480.0
17.91490 500.0
17.91990 550.0
17.92490 484.0
17.92990 508.0
17.93490 517.0
17.93990 566.0
17.94490 558.0
17.94990 553.0
17.95490 591.0
17.95990 571.0
17.96490 630.0
17.96990 685.0
17.97490 676.0
17.97990 692.0
17.98490 750.0
17.98990 720.0
17.99490 761.0
17.99990 780.0
18.00490 869.0
18.00990 878.0
18.01490 833.0
18.01990 922.0
18.02490 966.0
18.02990 939.0
18.03490 993.0
18.03990 1046.0
18.04490 1074.0
18.04990 1084.0
18.05490 1138.0
18.05990 1100.0
18.06490 1135.0
18.06990 1241.0
18.07490 1318.0
18.07990 1360.0
18.08490 1423.0
18.08990 1535.0
18.09490 1669.0
18.09990 1856.0
18.10490 1887.0
18.10990 1951.0
18.11490 2137.0
18.11990 2097.0
18.12490 2246.0
18.12990 2215.0
18.13490 2381.0
18.13990 2386.0
18.14490 2648.0
18.14990 2679.0
18.15490 2709.0
18.15990 2924.0
18.16490 2970.0
18.16990 3095.0
18.17490 3127.0
18.17990 3169.0
18.18490 3320.0
18.18990 3244.0
18.19490 3206.0
18.19990 3272.0
18.20490 3300.0
18.20990 3366.0
18.21490 3391.0
18.21990 3395.0
18.22490 3309.0
18.22990 3409.0
18.23490 3175.0
18.23990 3354.0
18.24490 3341.0
18.24990 3207.0
18.25490 3221.0
18.25990 3123.0
18.26490 3034.0
18.26990 3001.0
18.27490 2971.0
18.27990 2901.0
18.28490 2816.0
18.28990 2720.0
18.29490 2677.0
18.29990 2511.0
18.30490 2454.0
18.30990 2267.0
18.31490 2238.0
18.31990 2197.0
18.32490 2240.0
18.32990 1995.0
18.33490 1985.0
18.33990 1889.0
18.34490 1703.0
18.34990 1618.0
18.35490 1386.0
18.35990 1430.0
18.36490 1267.0
18.36990 1185.0
18.37490 1192.0
18.37990 1132.0
18.38490 1149.0
18.38990 1039.0
18.39490 1017.0
18.39990 1053.0
18.40490 930.0
18.40990 914.0
18.41490 931.0
18.41990 902.0
18.42490 918.0
18.42990 840.0
18.43490 792.0
18.43990 750.0
18.44490 700.0
18.44990 802.0
18.45490 720.0
18.45990 704.0
18.46490 686.0
18.46990 630.0
18.47490 571.0
18.47990 589.0
18.48490 582.0
18.48990 579.0
18.49490 575.0
18.49990 548.0
18.50490 564.0
18.50990 513.0
18.51490 478.0
18.51990 461.0
18.52490 468.0
18.52990 447.0
18.53490 433.0
18.53990 431.0
18.54490 418.0
18.54990 394.0
18.55490 428.0
18.55990 414.0
18.56490 363.0
18.56990 328.0
18.57490 340.0
18.57990 320.0
18.58490 327.0
18.58990 326.0
18.59490 300.0
18.59990 279.0
18.60490 289.0
18.60990 291.0
18.61490 297.0
18.61990 234.0
18.62490 248.0
18.62990 271.0
18.63490 240.0
18.63990 267.0
18.64490 225.0
18.64990 239.0
18.65490 248.0
18.65990 229.0
18.66490 203.0
18.66990 198.0
18.67490 210.0
18.67990 196.0
18.68490 209.0
18.68990 197.0
18.69490 163.0
18.69990 188.0
18.70490 199.0
18.70990 175.0
18.71490 176.0
18.71990 170.0
18.72490 177.0
18.72990 154.0
18.73490 181.0
18.73990 149.0
18.74490 138.0
18.74990 137.0
18.75490 160.0
18.75990 147.0
18.76490 113.0
18.76990 131.0
18.77490 121.0
18.77990 148.0
18.78490 141.0
18.78990 119.0
18.79490 129.0
18.79990 135.0
18.80490 135.0
18.80990 113.0
18.81490 123.0
18.81990 117.0
18.82490 119.0
18.82990 94.0
18.83490 117.0
18.83990 121.0
18.84490 105.0
18.84990 107.0
18.85490 115.0
18.85990 115.0
18.86490 96.0
18.86990 104.0
18.87490 118.0
18.87990 101.0
18.88490 130.0
18.88990 105.0
18.89490 96.0
18.89990 90.0
18.90490 121.0
18.90990 107.0
18.91490 95.0
18.91990 107.0
18.92490 104.0
18.92990 104.0
18.93490 81.0
18.93990 97.0
18.94490 99.0
18.94990 105.0
18.95490 88.0
18.95990 111.0
18.96490 92.0
18.96990 96.0
18.97490 92.0
18.97990 107.0
18.98490 92.0
18.98990 98.0
18.99490 84.0
18.99990 114.0
19.00490 105.0
19.00990 78.0
19.01490 86.0
19.01990 76.0
19.02490 64.0
19.02990 86.0
19.03490 79.0
19.03990 71.0
19.04490 79.0
19.04990 74.0
19.05490 71.0
19.05990 62.0
19.06490 82.0
19.06990 85.0
19.07490 72.0
19.07990 66.0
19.08490 83.0
19.08990 68.0
19.09490 84.0
19.09990 84.0
19.10490 72.0
19.10990 68.0
19.11490 75.0
19.11990 75.0
19.12490 80.0
19.12990 62.0
19.13490 55.0
19.13990 95.0
19.14490 57.0
19.14990 52.0
19.15490 67.0
19.15990 74.0
19.16490 73.0
19.16990 72.0
19.17490 64.0
19.17990 61.0
19.18490 70.0
19.18990 65.0
19.19490 67.0
19.19990 78.0
19.20490 56.0
19.20990 57.0
19.21490 67.0
19.21990 71.0
19.22490 59.0
19.22990 68.0
19.23490 72.0
19.23990 61.0
19.24490 58.0
19.24990 51.0
19.25490 64.0
19.25990 77.0
19.26490 64.0
19.26990 64.0
19.27490 67.0
19.27990 80.0
19.28490 72.0
19.28990 56.0
19.29490 59.0
19.29990 73.0
19.30490 71.0
19.30990 55.0
19.31490 75.0
19.31990 52.0
19.32490 54.0
19.32990 71.0
19.33490 67.0
19.33990 61.0
19.34490 68.0
19.34990 58.0
19.35490 58.0
19.35990 60.0
19.36490 50.0
19.36990 51.0
19.37490 64.0
19.37990 74.0
19.38490 65.0
19.38990 66.0
19.39490 69.0
19.39990 56.0
19.40490 67.0
19.40990 52.0
19.41490 71.0
19.41990 40.0
19.42490 55.0
19.42990 52.0
19.43490 47.0
19.43990 56.0
19.44490 65.0
19.44990 50.0
19.45490 45.0
19.45990 57.0
19.46490 56.0
19.46990 55.0
19.47490 49.0
19.47990 42.0
19.48490 61.0
19.48990 66.0
19.49490 57.0
19.49990 61.0
19.50490 59.0
19.50990 58.0
19.51490 54.0
19.51990 52.0
19.52490 55.0
19.52990 45.0
19.53490 53.0
19.53990 61.0
19.54490 56.0
19.54990 48.0
19.55490 60.0
19.55990 48.0
19.56490 51.0
19.56990 59.0
19.57490 59.0
19.57990 64.0
19.58490 59.0
19.58990 41.0
19.59490 46.0
19.59990 47.0
19.60490 46.0
19.60990 58.0
19.61490 65.0
19.61990 59.0
19.62490 52.0
19.62990 64.0
19.63490 62.0
19.63990 47.0
19.64490 53.0
19.64990 51.0
19.65490 60.0
19.65990 59.0
19.66490 51.0
19.66990 57.0
19.67490 53.0
19.67990 56.0
19.68490 46.0
19.68990 64.0
19.69490 60.0
19.69990 52.0
19.70490 42.0
19.70990 46.0
19.71490 55.0
19.71990 56.0
19.72490 53.0
19.72990 52.0
19.73490 48.0
19.73990 61.0
19.74490 47.0
19.74990 55.0
19.75490 58.0
19.75990 75.0
19.76490 59.0
19.76990 47.0
19.77490 47.0
19.77990 43.0
19.78490 43.0
19.78990 64.0
19.79490 53.0
19.79990 33.0
19.80490 39.0
19.80990 51.0
19.81490 42.0
19.81990 69.0
19.82490 60.0
19.82990 56.0
19.83490 59.0
19.83990 48.0
19.84490 47.0
19.84990 63.0
19.85490 48.0
19.85990 56.0
19.86490 36.0
19.86990 59.0
19.87490 64.0
19.87990 59.0
19.88490 46.0
19.88990 54.0
19.89490 56.0
19.89990 56.0
19.90490 56.0
19.90990 46.0
19.91490 46.0
19.91990 56.0
19.92490 61.0
19.92990 49.0
19.93490 53.0
19.93990 51.0
19.94490 42.0
19.94990 60.0
19.95490 53.0
19.95990 53.0
19.96490 61.0
19.96990 43.0
19.97490 46.0
19.97990 42.0
19.98490 60.0
19.98990 54.0
19.99490 59.0
19.99990 48.0
20.00490 42.0
20.00990 51.0
20.01490 59.0
20.01990 47.0
20.02490 46.0
20.02990 47.0
20.03490 55.0
20.03990 59.0
20.04490 40.0
20.04990 53.0
20.05490 47.0
20.05990 47.0
20.06490 58.0
20.06990 40.0
20.07490 51.0
20.07990 56.0
20.08490 44.0
20.08990 38.0
20.09490 50.0
20.09990 39.0
20.10490 49.0
20.10990 49.0
20.11490 38.0
20.11990 57.0
20.12490 46.0
20.12990 42.0
20.13490 57.0
20.13990 52.0
20.14490 39.0
20.14990 62.0
20.15490 37.0
20.15990 46.0
20.16490 40.0
20.16990 61.0
20.17490 46.0
20.17990 55.0
20.18490 47.0
20.18990 52.0
20.19490 52.0