File: data/W6901c/XRD_Omega/scan_omega_4deg_step_0.005deg0_C2_3.xy
17.21060 64.0
17.21560 64.0
17.22060 55.0
17.22560 52.0
17.23060 68.0
17.23560 67.0
17.24060 56.0
17.24560 55.0
17.25060 53.0
17.25560 55.0
17.26060 60.0
17.26560 67.0
17.27060 56.0
17.27560 65.0
17.28060 58.0
17.28560 65.0
17.29060 59.0
17.29560 59.0
17.30060 52.0
17.30560 54.0
17.31060 65.0
17.31560 76.0
17.32060 69.0
17.32560 55.0
17.33060 61.0
17.33560 81.0
17.34060 54.0
17.34560 46.0
17.35060 63.0
17.35560 79.0
17.36060 64.0
17.36560 59.0
17.37060 64.0
17.37560 55.0
17.38060 60.0
17.38560 70.0
17.39060 72.0
17.39560 65.0
17.40060 66.0
17.40560 63.0
17.41060 69.0
17.41560 72.0
17.42060 63.0
17.42560 61.0
17.43060 75.0
17.43560 66.0
17.44060 65.0
17.44560 50.0
17.45060 70.0
17.45560 67.0
17.46060 67.0
17.46560 50.0
17.47060 59.0
17.47560 61.0
17.48060 68.0
17.48560 68.0
17.49060 59.0
17.49560 64.0
17.50060 68.0
17.50560 56.0
17.51060 61.0
17.51560 68.0
17.52060 51.0
17.52560 58.0
17.53060 79.0
17.53560 50.0
17.54060 57.0
17.54560 70.0
17.55060 54.0
17.55560 64.0
17.56060 63.0
17.56560 64.0
17.57060 70.0
17.57560 67.0
17.58060 58.0
17.58560 63.0
17.59060 64.0
17.59560 65.0
17.60060 67.0
17.60560 65.0
17.61060 52.0
17.61560 62.0
17.62060 59.0
17.62560 87.0
17.63060 64.0
17.63560 67.0
17.64060 65.0
17.64560 52.0
17.65060 56.0
17.65560 66.0
17.66060 52.0
17.66560 59.0
17.67060 61.0
17.67560 73.0
17.68060 72.0
17.68560 71.0
17.69060 56.0
17.69560 73.0
17.70060 59.0
17.70560 61.0
17.71060 64.0
17.71560 67.0
17.72060 61.0
17.72560 63.0
17.73060 73.0
17.73560 69.0
17.74060 77.0
17.74560 57.0
17.75060 59.0
17.75560 53.0
17.76060 67.0
17.76560 52.0
17.77060 64.0
17.77560 68.0
17.78060 60.0
17.78560 66.0
17.79060 76.0
17.79560 68.0
17.80060 49.0
17.80560 62.0
17.81060 62.0
17.81560 64.0
17.82060 66.0
17.82560 62.0
17.83060 71.0
17.83560 81.0
17.84060 61.0
17.84560 74.0
17.85060 79.0
17.85560 62.0
17.86060 70.0
17.86560 63.0
17.87060 69.0
17.87560 67.0
17.88060 65.0
17.88560 66.0
17.89060 80.0
17.89560 57.0
17.90060 65.0
17.90560 63.0
17.91060 55.0
17.91560 74.0
17.92060 79.0
17.92560 80.0
17.93060 63.0
17.93560 72.0
17.94060 75.0
17.94560 61.0
17.95060 57.0
17.95560 67.0
17.96060 68.0
17.96560 66.0
17.97060 61.0
17.97560 75.0
17.98060 65.0
17.98560 61.0
17.99060 63.0
17.99560 79.0
18.00060 73.0
18.00560 67.0
18.01060 67.0
18.01560 63.0
18.02060 79.0
18.02560 69.0
18.03060 69.0
18.03560 71.0
18.04060 66.0
18.04560 83.0
18.05060 60.0
18.05560 77.0
18.06060 78.0
18.06560 74.0
18.07060 85.0
18.07560 72.0
18.08060 61.0
18.08560 78.0
18.09060 83.0
18.09560 74.0
18.10060 69.0
18.10560 76.0
18.11060 73.0
18.11560 68.0
18.12060 79.0
18.12560 82.0
18.13060 64.0
18.13560 77.0
18.14060 77.0
18.14560 65.0
18.15060 71.0
18.15560 73.0
18.16060 69.0
18.16560 88.0
18.17060 75.0
18.17560 84.0
18.18060 72.0
18.18560 75.0
18.19060 88.0
18.19560 78.0
18.20060 85.0
18.20560 78.0
18.21060 80.0
18.21560 83.0
18.22060 83.0
18.22560 89.0
18.23060 94.0
18.23560 83.0
18.24060 76.0
18.24560 78.0
18.25060 91.0
18.25560 81.0
18.26060 98.0
18.26560 87.0
18.27060 90.0
18.27560 103.0
18.28060 88.0
18.28560 81.0
18.29060 86.0
18.29560 89.0
18.30060 101.0
18.30560 86.0
18.31060 91.0
18.31560 86.0
18.32060 86.0
18.32560 72.0
18.33060 78.0
18.33560 84.0
18.34060 84.0
18.34560 87.0
18.35060 76.0
18.35560 84.0
18.36060 85.0
18.36560 82.0
18.37060 76.0
18.37560 88.0
18.38060 98.0
18.38560 101.0
18.39060 119.0
18.39560 75.0
18.40060 97.0
18.40560 85.0
18.41060 86.0
18.41560 93.0
18.42060 104.0
18.42560 97.0
18.43060 83.0
18.43560 73.0
18.44060 105.0
18.44560 86.0
18.45060 87.0
18.45560 96.0
18.46060 106.0
18.46560 102.0
18.47060 89.0
18.47560 100.0
18.48060 109.0
18.48560 102.0
18.49060 103.0
18.49560 87.0
18.50060 101.0
18.50560 103.0
18.51060 96.0
18.51560 93.0
18.52060 89.0
18.52560 99.0
18.53060 114.0
18.53560 91.0
18.54060 107.0
18.54560 110.0
18.55060 115.0
18.55560 90.0
18.56060 96.0
18.56560 105.0
18.57060 97.0
18.57560 120.0
18.58060 119.0
18.58560 108.0
18.59060 106.0
18.59560 112.0
18.60060 101.0
18.60560 107.0
18.61060 107.0
18.61560 98.0
18.62060 123.0
18.62560 105.0
18.63060 100.0
18.63560 103.0
18.64060 118.0
18.64560 110.0
18.65060 149.0
18.65560 116.0
18.66060 108.0
18.66560 132.0
18.67060 113.0
18.67560 131.0
18.68060 121.0
18.68560 120.0
18.69060 126.0
18.69560 134.0
18.70060 148.0
18.70560 139.0
18.71060 134.0
18.71560 121.0
18.72060 111.0
18.72560 126.0
18.73060 134.0
18.73560 133.0
18.74060 145.0
18.74560 124.0
18.75060 121.0
18.75560 121.0
18.76060 126.0
18.76560 143.0
18.77060 146.0
18.77560 129.0
18.78060 144.0
18.78560 156.0
18.79060 143.0
18.79560 120.0
18.80060 119.0
18.80560 139.0
18.81060 130.0
18.81560 121.0
18.82060 152.0
18.82560 144.0
18.83060 148.0
18.83560 137.0
18.84060 160.0
18.84560 144.0
18.85060 142.0
18.85560 125.0
18.86060 139.0
18.86560 121.0
18.87060 130.0
18.87560 167.0
18.88060 154.0
18.88560 168.0
18.89060 152.0
18.89560 147.0
18.90060 132.0
18.90560 154.0
18.91060 161.0
18.91560 151.0
18.92060 147.0
18.92560 167.0
18.93060 174.0
18.93560 168.0
18.94060 166.0
18.94560 161.0
18.95060 178.0
18.95560 156.0
18.96060 169.0
18.96560 155.0
18.97060 161.0
18.97560 184.0
18.98060 166.0
18.98560 177.0
18.99060 182.0
18.99560 195.0
19.00060 185.0
19.00560 181.0
19.01060 186.0
19.01560 182.0
19.02060 184.0
19.02560 190.0
19.03060 199.0
19.03560 184.0
19.04060 151.0
19.04560 201.0
19.05060 177.0
19.05560 176.0
19.06060 174.0
19.06560 189.0
19.07060 199.0
19.07560 190.0
19.08060 216.0
19.08560 239.0
19.09060 248.0
19.09560 241.0
19.10060 228.0
19.10560 261.0
19.11060 228.0
19.11560 251.0
19.12060 246.0
19.12560 248.0
19.13060 234.0
19.13560 248.0
19.14060 232.0
19.14560 254.0
19.15060 229.0
19.15560 250.0
19.16060 268.0
19.16560 223.0
19.17060 207.0
19.17560 238.0
19.18060 226.0
19.18560 256.0
19.19060 241.0
19.19560 256.0
19.20060 242.0
19.20560 229.0
19.21060 198.0
19.21560 218.0
19.22060 236.0
19.22560 227.0
19.23060 233.0
19.23560 251.0
19.24060 196.0
19.24560 194.0
19.25060 246.0
19.25560 219.0
19.26060 246.0
19.26560 235.0
19.27060 221.0
19.27560 226.0
19.28060 201.0
19.28560 216.0
19.29060 216.0
19.29560 219.0
19.30060 206.0
19.30560 241.0
19.31060 198.0
19.31560 230.0
19.32060 226.0
19.32560 215.0
19.33060 210.0
19.33560 261.0
19.34060 208.0
19.34560 206.0
19.35060 176.0
19.35560 186.0
19.36060 193.0
19.36560 189.0
19.37060 181.0
19.37560 187.0
19.38060 191.0
19.38560 175.0
19.39060 160.0
19.39560 183.0
19.40060 186.0
19.40560 190.0
19.41060 168.0
19.41560 160.0
19.42060 178.0
19.42560 178.0
19.43060 174.0
19.43560 159.0
19.44060 168.0
19.44560 163.0
19.45060 172.0
19.45560 179.0
19.46060 169.0
19.46560 165.0
19.47060 172.0
19.47560 150.0
19.48060 175.0
19.48560 152.0
19.49060 140.0
19.49560 187.0
19.50060 140.0
19.50560 190.0
19.51060 154.0
19.51560 169.0
19.52060 128.0
19.52560 138.0
19.53060 178.0
19.53560 154.0
19.54060 175.0
19.54560 132.0
19.55060 144.0
19.55560 137.0
19.56060 145.0
19.56560 141.0
19.57060 130.0
19.57560 142.0
19.58060 161.0
19.58560 151.0
19.59060 130.0
19.59560 124.0
19.60060 127.0
19.60560 123.0
19.61060 128.0
19.61560 143.0
19.62060 146.0
19.62560 142.0
19.63060 126.0
19.63560 160.0
19.64060 138.0
19.64560 124.0
19.65060 131.0
19.65560 158.0
19.66060 117.0
19.66560 130.0
19.67060 122.0
19.67560 104.0
19.68060 125.0
19.68560 123.0
19.69060 117.0
19.69560 146.0
19.70060 126.0
19.70560 110.0
19.71060 140.0
19.71560 106.0
19.72060 105.0
19.72560 118.0
19.73060 113.0
19.73560 121.0
19.74060 106.0
19.74560 123.0
19.75060 127.0
19.75560 126.0
19.76060 94.0
19.76560 131.0
19.77060 96.0
19.77560 113.0
19.78060 127.0
19.78560 105.0
19.79060 94.0
19.79560 107.0
19.80060 116.0
19.80560 107.0
19.81060 101.0
19.81560 106.0
19.82060 104.0
19.82560 138.0
19.83060 112.0
19.83560 101.0
19.84060 109.0
19.84560 114.0
19.85060 97.0
19.85560 121.0
19.86060 100.0
19.86560 90.0
19.87060 119.0
19.87560 105.0
19.88060 86.0
19.88560 93.0
19.89060 97.0
19.89560 85.0
19.90060 100.0
19.90560 96.0
19.91060 105.0
19.91560 105.0
19.92060 99.0
19.92560 101.0
19.93060 97.0
19.93560 87.0
19.94060 97.0
19.94560 89.0
19.95060 98.0
19.95560 90.0
19.96060 78.0
19.96560 115.0
19.97060 80.0
19.97560 94.0
19.98060 75.0
19.98560 97.0
19.99060 96.0
19.99560 94.0
20.00060 96.0
20.00560 100.0
20.01060 93.0
20.01560 94.0
20.02060 93.0
20.02560 69.0
20.03060 85.0
20.03560 85.0
20.04060 91.0
20.04560 84.0
20.05060 93.0
20.05560 99.0
20.06060 94.0
20.06560 87.0
20.07060 81.0
20.07560 80.0
20.08060 79.0
20.08560 64.0
20.09060 91.0
20.09560 74.0
20.10060 88.0
20.10560 87.0
20.11060 71.0
20.11560 77.0
20.12060 99.0
20.12560 80.0
20.13060 75.0
20.13560 74.0
20.14060 78.0
20.14560 74.0
20.15060 86.0
20.15560 83.0
20.16060 76.0
20.16560 97.0
20.17060 67.0
20.17560 86.0
20.18060 79.0
20.18560 97.0
20.19060 76.0
20.19560 74.0
20.20060 85.0
20.20560 84.0
20.21060 67.0
20.21560 71.0
20.22060 77.0
20.22560 56.0
20.23060 87.0
20.23560 67.0
20.24060 77.0
20.24560 66.0
20.25060 78.0
20.25560 76.0
20.26060 59.0
20.26560 63.0
20.27060 81.0
20.27560 70.0
20.28060 71.0
20.28560 85.0
20.29060 80.0
20.29560 79.0
20.30060 65.0
20.30560 67.0
20.31060 76.0
20.31560 76.0
20.32060 73.0
20.32560 56.0
20.33060 72.0
20.33560 71.0
20.34060 63.0
20.34560 82.0
20.35060 76.0
20.35560 76.0
20.36060 67.0
20.36560 83.0
20.37060 76.0
20.37560 70.0
20.38060 69.0
20.38560 68.0
20.39060 65.0
20.39560 83.0
20.40060 56.0
20.40560 70.0
20.41060 76.0
20.41560 55.0
20.42060 70.0
20.42560 61.0
20.43060 75.0
20.43560 64.0
20.44060 65.0
20.44560 63.0
20.45060 71.0
20.45560 74.0
20.46060 63.0
20.46560 61.0
20.47060 63.0
20.47560 69.0
20.48060 76.0
20.48560 57.0
20.49060 72.0
20.49560 66.0
20.50060 50.0
20.50560 65.0
20.51060 67.0
20.51560 62.0
20.52060 57.0
20.52560 65.0
20.53060 78.0
20.53560 47.0
20.54060 59.0
20.54560 78.0
20.55060 62.0
20.55560 65.0
20.56060 60.0
20.56560 68.0
20.57060 56.0
20.57560 67.0
20.58060 61.0
20.58560 51.0
20.59060 65.0
20.59560 55.0
20.60060 67.0
20.60560 73.0
20.61060 66.0
20.61560 84.0
20.62060 46.0
20.62560 66.0
20.63060 53.0
20.63560 68.0
20.64060 52.0
20.64560 62.0
20.65060 59.0
20.65560 50.0
20.66060 80.0
20.66560 48.0
20.67060 63.0
20.67560 50.0
20.68060 61.0
20.68560 60.0
20.69060 64.0
20.69560 55.0
20.70060 53.0
20.70560 49.0
20.71060 69.0
20.71560 64.0
20.72060 65.0
20.72560 70.0
20.73060 64.0
20.73560 63.0
20.74060 59.0
20.74560 52.0
20.75060 65.0
20.75560 59.0
20.76060 55.0
20.76560 61.0
20.77060 54.0
20.77560 52.0
20.78060 61.0
20.78560 53.0
20.79060 58.0
20.79560 60.0
20.80060 62.0
20.80560 78.0
20.81060 57.0
20.81560 59.0
20.82060 52.0
20.82560 71.0
20.83060 61.0
20.83560 67.0
20.84060 56.0
20.84560 64.0
20.85060 61.0
20.85560 64.0
20.86060 61.0
20.86560 52.0
20.87060 56.0
20.87560 69.0
20.88060 54.0
20.88560 50.0
20.89060 63.0
20.89560 66.0
20.90060 68.0
20.90560 42.0
20.91060 58.0
20.91560 65.0
20.92060 51.0
20.92560 65.0
20.93060 64.0
20.93560 58.0
20.94060 58.0
20.94560 54.0
20.95060 44.0
20.95560 60.0
20.96060 50.0
20.96560 60.0
20.97060 49.0
20.97560 55.0
20.98060 51.0
20.98560 62.0
20.99060 56.0
20.99560 55.0
21.00060 44.0
21.00560 51.0
21.01060 61.0
21.01560 57.0
21.02060 61.0
21.02560 64.0
21.03060 56.0
21.03560 37.0
21.04060 69.0
21.04560 50.0
21.05060 46.0
21.05560 49.0
21.06060 53.0
21.06560 55.0
21.07060 46.0
21.07560 58.0
21.08060 52.0
21.08560 44.0
21.09060 57.0
21.09560 44.0
21.10060 52.0
21.10560 43.0
21.11060 63.0
21.11560 54.0
21.12060 61.0
21.12560 49.0
21.13060 54.0
21.13560 56.0
21.14060 50.0
21.14560 70.0
21.15060 68.0
21.15560 62.0
21.16060 66.0
21.16560 56.0
21.17060 64.0