File: data/w6931c/XRD_Omega/film_c_scan_omega_4deg_step_0.005deg0.xy
17.41970 35.0
17.42470 35.0
17.42970 32.0
17.43470 35.0
17.43970 28.0
17.44470 26.0
17.44970 40.0
17.45470 35.0
17.45970 28.0
17.46470 32.0
17.46970 40.0
17.47470 37.0
17.47970 42.0
17.48470 26.0
17.48970 36.0
17.49470 43.0
17.49970 29.0
17.50470 25.0
17.50970 41.0
17.51470 28.0
17.51970 40.0
17.52470 38.0
17.52970 36.0
17.53470 34.0
17.53970 27.0
17.54470 34.0
17.54970 42.0
17.55470 44.0
17.55970 33.0
17.56470 28.0
17.56970 35.0
17.57470 35.0
17.57970 32.0
17.58470 33.0
17.58970 28.0
17.59470 29.0
17.59970 36.0
17.60470 22.0
17.60970 24.0
17.61470 29.0
17.61970 26.0
17.62470 43.0
17.62970 26.0
17.63470 34.0
17.63970 29.0
17.64470 33.0
17.64970 41.0
17.65470 41.0
17.65970 22.0
17.66470 29.0
17.66970 35.0
17.67470 30.0
17.67970 42.0
17.68470 42.0
17.68970 33.0
17.69470 32.0
17.69970 35.0
17.70470 47.0
17.70970 42.0
17.71470 28.0
17.71970 36.0
17.72470 34.0
17.72970 42.0
17.73470 43.0
17.73970 36.0
17.74470 32.0
17.74970 37.0
17.75470 41.0
17.75970 39.0
17.76470 36.0
17.76970 33.0
17.77470 31.0
17.77970 42.0
17.78470 42.0
17.78970 42.0
17.79470 47.0
17.79970 36.0
17.80470 28.0
17.80970 35.0
17.81470 26.0
17.81970 35.0
17.82470 40.0
17.82970 41.0
17.83470 38.0
17.83970 31.0
17.84470 48.0
17.84970 40.0
17.85470 39.0
17.85970 36.0
17.86470 38.0
17.86970 37.0
17.87470 38.0
17.87970 40.0
17.88470 38.0
17.88970 41.0
17.89470 53.0
17.89970 46.0
17.90470 34.0
17.90970 35.0
17.91470 41.0
17.91970 52.0
17.92470 42.0
17.92970 48.0
17.93470 50.0
17.93970 43.0
17.94470 52.0
17.94970 40.0
17.95470 39.0
17.95970 50.0
17.96470 48.0
17.96970 54.0
17.97470 42.0
17.97970 34.0
17.98470 57.0
17.98970 42.0
17.99470 45.0
17.99970 45.0
18.00470 48.0
18.00970 32.0
18.01470 47.0
18.01970 44.0
18.02470 46.0
18.02970 52.0
18.03470 35.0
18.03970 40.0
18.04470 37.0
18.04970 48.0
18.05470 36.0
18.05970 45.0
18.06470 37.0
18.06970 51.0
18.07470 59.0
18.07970 51.0
18.08470 49.0
18.08970 57.0
18.09470 53.0
18.09970 65.0
18.10470 53.0
18.10970 52.0
18.11470 56.0
18.11970 46.0
18.12470 52.0
18.12970 52.0
18.13470 72.0
18.13970 50.0
18.14470 51.0
18.14970 60.0
18.15470 50.0
18.15970 74.0
18.16470 71.0
18.16970 56.0
18.17470 63.0
18.17970 64.0
18.18470 48.0
18.18970 61.0
18.19470 56.0
18.19970 59.0
18.20470 54.0
18.20970 46.0
18.21470 53.0
18.21970 76.0
18.22470 49.0
18.22970 52.0
18.23470 63.0
18.23970 63.0
18.24470 55.0
18.24970 71.0
18.25470 75.0
18.25970 78.0
18.26470 55.0
18.26970 56.0
18.27470 72.0
18.27970 64.0
18.28470 69.0
18.28970 68.0
18.29470 63.0
18.29970 67.0
18.30470 73.0
18.30970 80.0
18.31470 77.0
18.31970 87.0
18.32470 68.0
18.32970 77.0
18.33470 80.0
18.33970 73.0
18.34470 75.0
18.34970 79.0
18.35470 81.0
18.35970 68.0
18.36470 83.0
18.36970 76.0
18.37470 69.0
18.37970 87.0
18.38470 93.0
18.38970 87.0
18.39470 85.0
18.39970 87.0
18.40470 100.0
18.40970 96.0
18.41470 80.0
18.41970 85.0
18.42470 101.0
18.42970 94.0
18.43470 108.0
18.43970 94.0
18.44470 93.0
18.44970 94.0
18.45470 102.0
18.45970 91.0
18.46470 90.0
18.46970 118.0
18.47470 99.0
18.47970 101.0
18.48470 105.0
18.48970 117.0
18.49470 96.0
18.49970 121.0
18.50470 105.0
18.50970 99.0
18.51470 113.0
18.51970 110.0
18.52470 114.0
18.52970 120.0
18.53470 108.0
18.53970 124.0
18.54470 118.0
18.54970 121.0
18.55470 127.0
18.55970 139.0
18.56470 149.0
18.56970 140.0
18.57470 127.0
18.57970 143.0
18.58470 117.0
18.58970 135.0
18.59470 164.0
18.59970 129.0
18.60470 143.0
18.60970 153.0
18.61470 123.0
18.61970 160.0
18.62470 159.0
18.62970 142.0
18.63470 136.0
18.63970 169.0
18.64470 154.0
18.64970 171.0
18.65470 158.0
18.65970 162.0
18.66470 134.0
18.66970 177.0
18.67470 175.0
18.67970 168.0
18.68470 170.0
18.68970 177.0
18.69470 203.0
18.69970 205.0
18.70470 187.0
18.70970 178.0
18.71470 193.0
18.71970 215.0
18.72470 190.0
18.72970 196.0
18.73470 210.0
18.73970 205.0
18.74470 218.0
18.74970 212.0
18.75470 244.0
18.75970 215.0
18.76470 220.0
18.76970 222.0
18.77470 243.0
18.77970 262.0
18.78470 238.0
18.78970 226.0
18.79470 271.0
18.79970 225.0
18.80470 251.0
18.80970 228.0
18.81470 246.0
18.81970 227.0
18.82470 259.0
18.82970 275.0
18.83470 285.0
18.83970 259.0
18.84470 266.0
18.84970 265.0
18.85470 286.0
18.85970 307.0
18.86470 319.0
18.86970 288.0
18.87470 306.0
18.87970 309.0
18.88470 306.0
18.88970 327.0
18.89470 348.0
18.89970 329.0
18.90470 318.0
18.90970 319.0
18.91470 353.0
18.91970 365.0
18.92470 340.0
18.92970 368.0
18.93470 337.0
18.93970 381.0
18.94470 353.0
18.94970 398.0
18.95470 389.0
18.95970 401.0
18.96470 399.0
18.96970 421.0
18.97470 444.0
18.97970 423.0
18.98470 422.0
18.98970 442.0
18.99470 427.0
18.99970 463.0
19.00470 418.0
19.00970 495.0
19.01470 465.0
19.01970 476.0
19.02470 528.0
19.02970 461.0
19.03470 507.0
19.03970 500.0
19.04470 487.0
19.04970 518.0
19.05470 520.0
19.05970 597.0
19.06470 560.0
19.06970 578.0
19.07470 565.0
19.07970 591.0
19.08470 539.0
19.08970 562.0
19.09470 565.0
19.09970 610.0
19.10470 591.0
19.10970 621.0
19.11470 642.0
19.11970 603.0
19.12470 611.0
19.12970 628.0
19.13470 638.0
19.13970 633.0
19.14470 701.0
19.14970 673.0
19.15470 673.0
19.15970 704.0
19.16470 746.0
19.16970 727.0
19.17470 775.0
19.17970 749.0
19.18470 776.0
19.18970 786.0
19.19470 726.0
19.19970 755.0
19.20470 773.0
19.20970 769.0
19.21470 766.0
19.21970 823.0
19.22470 767.0
19.22970 810.0
19.23470 879.0
19.23970 821.0
19.24470 810.0
19.24970 874.0
19.25470 911.0
19.25970 905.0
19.26470 894.0
19.26970 875.0
19.27470 838.0
19.27970 909.0
19.28470 868.0
19.28970 940.0
19.29470 931.0
19.29970 923.0
19.30470 889.0
19.30970 962.0
19.31470 960.0
19.31970 1017.0
19.32470 1001.0
19.32970 1012.0
19.33470 960.0
19.33970 983.0
19.34470 971.0
19.34970 1002.0
19.35470 981.0
19.35970 1046.0
19.36470 1073.0
19.36970 1027.0
19.37470 1054.0
19.37970 1027.0
19.38470 984.0
19.38970 999.0
19.39470 992.0
19.39970 964.0
19.40470 1018.0
19.40970 1007.0
19.41470 1022.0
19.41970 982.0
19.42470 958.0
19.42970 985.0
19.43470 1040.0
19.43970 1045.0
19.44470 1020.0
19.44970 983.0
19.45470 987.0
19.45970 941.0
19.46470 957.0
19.46970 963.0
19.47470 922.0
19.47970 927.0
19.48470 1026.0
19.48970 959.0
19.49470 968.0
19.49970 892.0
19.50470 937.0
19.50970 890.0
19.51470 909.0
19.51970 887.0
19.52470 900.0
19.52970 864.0
19.53470 860.0
19.53970 878.0
19.54470 821.0
19.54970 862.0
19.55470 825.0
19.55970 815.0
19.56470 793.0
19.56970 783.0
19.57470 776.0
19.57970 743.0
19.58470 740.0
19.58970 797.0
19.59470 741.0
19.59970 756.0
19.60470 710.0
19.60970 753.0
19.61470 729.0
19.61970 715.0
19.62470 678.0
19.62970 708.0
19.63470 680.0
19.63970 679.0
19.64470 599.0
19.64970 681.0
19.65470 650.0
19.65970 623.0
19.66470 665.0
19.66970 582.0
19.67470 577.0
19.67970 598.0
19.68470 631.0
19.68970 580.0
19.69470 589.0
19.69970 573.0
19.70470 572.0
19.70970 521.0
19.71470 586.0
19.71970 520.0
19.72470 526.0
19.72970 559.0
19.73470 557.0
19.73970 531.0
19.74470 516.0
19.74970 508.0
19.75470 516.0
19.75970 492.0
19.76470 512.0
19.76970 504.0
19.77470 479.0
19.77970 514.0
19.78470 466.0
19.78970 454.0
19.79470 438.0
19.79970 453.0
19.80470 467.0
19.80970 478.0
19.81470 457.0
19.81970 454.0
19.82470 435.0
19.82970 415.0
19.83470 407.0
19.83970 394.0
19.84470 409.0
19.84970 395.0
19.85470 424.0
19.85970 396.0
19.86470 400.0
19.86970 369.0
19.87470 356.0
19.87970 358.0
19.88470 366.0
19.88970 360.0
19.89470 363.0
19.89970 339.0
19.90470 299.0
19.90970 324.0
19.91470 330.0
19.91970 342.0
19.92470 322.0
19.92970 310.0
19.93470 323.0
19.93970 299.0
19.94470 349.0
19.94970 308.0
19.95470 315.0
19.95970 320.0
19.96470 289.0
19.96970 278.0
19.97470 275.0
19.97970 266.0
19.98470 247.0
19.98970 301.0
19.99470 227.0
19.99970 287.0
20.00470 243.0
20.00970 252.0
20.01470 231.0
20.01970 230.0
20.02470 267.0
20.02970 278.0
20.03470 247.0
20.03970 253.0
20.04470 220.0
20.04970 233.0
20.05470 231.0
20.05970 231.0
20.06470 230.0
20.06970 214.0
20.07470 226.0
20.07970 213.0
20.08470 195.0
20.08970 198.0
20.09470 190.0
20.09970 176.0
20.10470 178.0
20.10970 192.0
20.11470 182.0
20.11970 160.0
20.12470 176.0
20.12970 173.0
20.13470 179.0
20.13970 179.0
20.14470 161.0
20.14970 159.0
20.15470 175.0
20.15970 177.0
20.16470 169.0
20.16970 170.0
20.17470 157.0
20.17970 158.0
20.18470 125.0
20.18970 149.0
20.19470 139.0
20.19970 154.0
20.20470 106.0
20.20970 150.0
20.21470 137.0
20.21970 139.0
20.22470 136.0
20.22970 116.0
20.23470 125.0
20.23970 136.0
20.24470 109.0
20.24970 103.0
20.25470 114.0
20.25970 108.0
20.26470 128.0
20.26970 111.0
20.27470 125.0
20.27970 144.0
20.28470 90.0
20.28970 107.0
20.29470 103.0
20.29970 115.0
20.30470 112.0
20.30970 111.0
20.31470 99.0
20.31970 110.0
20.32470 116.0
20.32970 96.0
20.33470 89.0
20.33970 87.0
20.34470 105.0
20.34970 92.0
20.35470 106.0
20.35970 88.0
20.36470 86.0
20.36970 94.0
20.37470 95.0
20.37970 100.0
20.38470 83.0
20.38970 94.0
20.39470 91.0
20.39970 76.0
20.40470 74.0
20.40970 86.0
20.41470 80.0
20.41970 82.0
20.42470 64.0
20.42970 73.0
20.43470 102.0
20.43970 84.0
20.44470 72.0
20.44970 86.0
20.45470 90.0
20.45970 82.0
20.46470 69.0
20.46970 64.0
20.47470 70.0
20.47970 76.0
20.48470 55.0
20.48970 50.0
20.49470 70.0
20.49970 80.0
20.50470 76.0
20.50970 57.0
20.51470 64.0
20.51970 74.0
20.52470 69.0
20.52970 50.0
20.53470 72.0
20.53970 50.0
20.54470 70.0
20.54970 60.0
20.55470 61.0
20.55970 51.0
20.56470 69.0
20.56970 48.0
20.57470 56.0
20.57970 70.0
20.58470 61.0
20.58970 61.0
20.59470 58.0
20.59970 48.0
20.60470 62.0
20.60970 65.0
20.61470 70.0
20.61970 55.0
20.62470 48.0
20.62970 46.0
20.63470 57.0
20.63970 47.0
20.64470 50.0
20.64970 46.0
20.65470 55.0
20.65970 61.0
20.66470 38.0
20.66970 53.0
20.67470 41.0
20.67970 45.0
20.68470 47.0
20.68970 51.0
20.69470 48.0
20.69970 53.0
20.70470 50.0
20.70970 39.0
20.71470 40.0
20.71970 47.0
20.72470 41.0
20.72970 43.0
20.73470 39.0
20.73970 65.0
20.74470 45.0
20.74970 49.0
20.75470 38.0
20.75970 48.0
20.76470 34.0
20.76970 38.0
20.77470 37.0
20.77970 43.0
20.78470 50.0
20.78970 53.0
20.79470 41.0
20.79970 43.0
20.80470 47.0
20.80970 36.0
20.81470 46.0
20.81970 44.0
20.82470 35.0
20.82970 34.0
20.83470 38.0
20.83970 36.0
20.84470 51.0
20.84970 36.0
20.85470 41.0
20.85970 41.0
20.86470 31.0
20.86970 37.0
20.87470 43.0
20.87970 34.0
20.88470 38.0
20.88970 36.0
20.89470 28.0
20.89970 38.0
20.90470 26.0
20.90970 40.0
20.91470 33.0
20.91970 28.0
20.92470 39.0
20.92970 52.0
20.93470 33.0
20.93970 33.0
20.94470 25.0
20.94970 41.0
20.95470 30.0
20.95970 32.0
20.96470 29.0
20.96970 42.0
20.97470 37.0
20.97970 31.0
20.98470 30.0
20.98970 36.0
20.99470 30.0
20.99970 37.0
21.00470 36.0
21.00970 29.0
21.01470 34.0
21.01970 35.0
21.02470 34.0
21.02970 35.0
21.03470 39.0
21.03970 32.0
21.04470 42.0
21.04970 33.0
21.05470 29.0
21.05970 38.0
21.06470 31.0
21.06970 33.0
21.07470 23.0
21.07970 36.0
21.08470 30.0
21.08970 23.0
21.09470 36.0
21.09970 32.0
21.10470 31.0
21.10970 31.0
21.11470 24.0
21.11970 27.0
21.12470 32.0
21.12970 37.0
21.13470 26.0
21.13970 21.0
21.14470 26.0
21.14970 36.0
21.15470 27.0
21.15970 27.0
21.16470 30.0
21.16970 32.0
21.17470 28.0
21.17970 24.0
21.18470 26.0
21.18970 32.0
21.19470 24.0
21.19970 35.0
21.20470 24.0
21.20970 34.0
21.21470 22.0
21.21970 31.0
21.22470 37.0
21.22970 37.0
21.23470 27.0
21.23970 33.0
21.24470 26.0
21.24970 24.0
21.25470 27.0
21.25970 34.0
21.26470 24.0
21.26970 28.0
21.27470 24.0
21.27970 27.0
21.28470 22.0
21.28970 31.0
21.29470 31.0
21.29970 30.0
21.30470 35.0
21.30970 35.0
21.31470 23.0
21.31970 28.0
21.32470 26.0
21.32970 23.0
21.33470 31.0
21.33970 21.0
21.34470 33.0
21.34970 33.0
21.35470 30.0
21.35970 28.0
21.36470 23.0
21.36970 28.0
21.37470 27.0
21.37970 27.0