File: data/W6907c/XRD_2ThetaOmega/scan_2th-om_c_Cr2O3_35-45deg_PIXscan_4min_C8.xy
35.0021 110.0
35.0119 95.0
35.0218 101.0
35.0316 118.0
35.0415 111.0
35.0513 113.0
35.0611 124.0
35.071 111.0
35.0808 131.0
35.0907 99.0
35.1005 120.0
35.1104 107.0
35.1202 128.0
35.1301 121.0
35.1399 94.0
35.1498 101.0
35.1596 118.0
35.1695 123.0
35.1793 120.0
35.1892 116.0
35.199 112.0
35.2089 114.0
35.2187 119.0
35.2286 125.0
35.2384 117.0
35.2483 116.0
35.2581 118.0
35.268 128.0
35.2778 101.0
35.2876 136.0
35.2975 122.0
35.3073 123.0
35.3172 125.0
35.327 128.0
35.3369 125.0
35.3467 129.0
35.3566 125.0
35.3664 113.0
35.3763 119.0
35.3861 127.0
35.396 122.0
35.4058 98.0
35.4157 106.0
35.4255 121.0
35.4354 123.0
35.4452 127.0
35.4551 120.0
35.4649 121.0
35.4748 107.0
35.4846 132.0
35.4944 127.0
35.5043 119.0
35.5141 111.0
35.524 115.0
35.5338 117.0
35.5437 140.0
35.5535 122.0
35.5634 128.0
35.5732 101.0
35.5831 111.0
35.5929 130.0
35.6028 122.0
35.6126 144.0
35.6225 121.0
35.6323 122.0
35.6422 139.0
35.652 117.0
35.6619 119.0
35.6717 116.0
35.6816 102.0
35.6914 134.0
35.7012 117.0
35.7111 117.0
35.7209 100.0
35.7308 118.0
35.7406 111.0
35.7505 123.0
35.7603 109.0
35.7702 123.0
35.78 109.0
35.7899 135.0
35.7997 122.0
35.8096 105.0
35.8194 117.0
35.8293 130.0
35.8391 99.0
35.849 97.0
35.8588 110.0
35.8687 105.0
35.8785 121.0
35.8884 124.0
35.8982 114.0
35.9081 91.0
35.9179 125.0
35.9277 101.0
35.9376 108.0
35.9474 117.0
35.9573 98.0
35.9671 120.0
35.977 101.0
35.9868 100.0
35.9967 113.0
36.0065 112.0
36.0164 118.0
36.0262 113.0
36.0361 125.0
36.0459 108.0
36.0558 113.0
36.0656 125.0
36.0755 125.0
36.0853 132.0
36.0952 101.0
36.105 119.0
36.1149 134.0
36.1247 114.0
36.1345 91.0
36.1444 112.0
36.1542 118.0
36.1641 114.0
36.1739 116.0
36.1838 125.0
36.1936 100.0
36.2035 103.0
36.2133 98.0
36.2232 128.0
36.233 137.0
36.2429 102.0
36.2527 115.0
36.2626 115.0
36.2724 114.0
36.2823 112.0
36.2921 126.0
36.302 122.0
36.3118 122.0
36.3217 138.0
36.3315 122.0
36.3414 103.0
36.3512 103.0
36.361 112.0
36.3709 130.0
36.3807 104.0
36.3906 98.0
36.4004 104.0
36.4103 150.0
36.4201 116.0
36.43 95.0
36.4398 111.0
36.4497 107.0
36.4595 115.0
36.4694 135.0
36.4792 129.0
36.4891 117.0
36.4989 115.0
36.5088 133.0
36.5186 116.0
36.5285 121.0
36.5383 131.0
36.5482 123.0
36.558 107.0
36.5678 109.0
36.5777 104.0
36.5875 127.0
36.5974 120.0
36.6072 105.0
36.6171 96.0
36.6269 110.0
36.6368 117.0
36.6466 99.0
36.6565 117.0
36.6663 111.0
36.6762 114.0
36.686 121.0
36.6959 139.0
36.7057 100.0
36.7156 110.0
36.7254 112.0
36.7353 111.0
36.7451 127.0
36.755 120.0
36.7648 123.0
36.7747 124.0
36.7845 100.0
36.7943 124.0
36.8042 141.0
36.814 135.0
36.8239 115.0
36.8337 135.0
36.8436 112.0
36.8534 130.0
36.8633 105.0
36.8731 115.0
36.883 120.0
36.8928 101.0
36.9027 105.0
36.9125 127.0
36.9224 134.0
36.9322 114.0
36.9421 110.0
36.9519 114.0
36.9618 125.0
36.9716 106.0
36.9815 125.0
36.9913 123.0
37.0011 126.0
37.011 107.0
37.0208 114.0
37.0307 117.0
37.0405 134.0
37.0504 103.0
37.0602 104.0
37.0701 103.0
37.0799 108.0
37.0898 110.0
37.0996 116.0
37.1095 118.0
37.1193 124.0
37.1292 107.0
37.139 108.0
37.1489 116.0
37.1587 115.0
37.1686 115.0
37.1784 118.0
37.1883 116.0
37.1981 129.0
37.2079 117.0
37.2178 115.0
37.2276 134.0
37.2375 123.0
37.2473 118.0
37.2572 110.0
37.267 104.0
37.2769 122.0
37.2867 108.0
37.2966 133.0
37.3064 122.0
37.3163 123.0
37.3261 114.0
37.336 113.0
37.3458 119.0
37.3557 119.0
37.3655 126.0
37.3754 133.0
37.3852 140.0
37.3951 177.0
37.4049 188.0
37.4148 299.0
37.4246 337.0
37.4344 343.0
37.4443 376.0
37.4541 310.0
37.464 262.0
37.4738 173.0
37.4837 168.0
37.4935 142.0
37.5034 131.0
37.5132 123.0
37.5231 113.0
37.5329 141.0
37.5428 150.0
37.5526 114.0
37.5625 133.0
37.5723 134.0
37.5822 110.0
37.592 130.0
37.6019 105.0
37.6117 124.0
37.6216 139.0
37.6314 133.0
37.6412 111.0
37.6511 125.0
37.6609 120.0
37.6708 135.0
37.6806 122.0
37.6905 141.0
37.7003 109.0
37.7102 120.0
37.72 112.0
37.7299 130.0
37.7397 116.0
37.7496 142.0
37.7594 137.0
37.7693 132.0
37.7791 135.0
37.789 127.0
37.7988 120.0
37.8087 121.0
37.8185 134.0
37.8284 140.0
37.8382 124.0
37.8481 124.0
37.8579 102.0
37.8677 129.0
37.8776 118.0
37.8874 121.0
37.8973 122.0
37.9071 110.0
37.917 121.0
37.9268 114.0
37.9367 133.0
37.9465 114.0
37.9564 126.0
37.9662 113.0
37.9761 142.0
37.9859 121.0
37.9958 129.0
38.0056 119.0
38.0155 130.0
38.0253 130.0
38.0352 149.0
38.045 129.0
38.0549 134.0
38.0647 132.0
38.0745 134.0
38.0844 114.0
38.0942 110.0
38.1041 150.0
38.1139 111.0
38.1238 118.0
38.1336 110.0
38.1435 122.0
38.1533 133.0
38.1632 115.0
38.173 138.0
38.1829 117.0
38.1927 129.0
38.2026 128.0
38.2124 122.0
38.2223 132.0
38.2321 115.0
38.242 136.0
38.2518 128.0
38.2617 134.0
38.2715 138.0
38.2814 140.0
38.2912 130.0
38.301 117.0
38.3109 153.0
38.3207 121.0
38.3306 130.0
38.3404 138.0
38.3503 141.0
38.3601 123.0
38.37 108.0
38.3798 133.0
38.3897 126.0
38.3995 122.0
38.4094 145.0
38.4192 131.0
38.4291 152.0
38.4389 145.0
38.4488 147.0
38.4586 137.0
38.4685 133.0
38.4783 131.0
38.4882 123.0
38.498 123.0
38.5078 127.0
38.5177 129.0
38.5275 157.0
38.5374 133.0
38.5472 139.0
38.5571 147.0
38.5669 137.0
38.5768 128.0
38.5866 160.0
38.5965 165.0
38.6063 158.0
38.6162 134.0
38.626 147.0
38.6359 140.0
38.6457 142.0
38.6556 152.0
38.6654 169.0
38.6753 147.0
38.6851 172.0
38.695 151.0
38.7048 171.0
38.7146 159.0
38.7245 158.0
38.7343 152.0
38.7442 152.0
38.754 169.0
38.7639 161.0
38.7737 175.0
38.7836 176.0
38.7934 197.0
38.8033 143.0
38.8131 179.0
38.823 179.0
38.8328 185.0
38.8427 173.0
38.8525 163.0
38.8624 194.0
38.8722 202.0
38.8821 196.0
38.8919 183.0
38.9018 212.0
38.9116 201.0
38.9215 207.0
38.9313 257.0
38.9411 213.0
38.951 213.0
38.9608 224.0
38.9707 219.0
38.9805 193.0
38.9904 219.0
39.0002 279.0
39.0101 215.0
39.0199 258.0
39.0298 213.0
39.0396 261.0
39.0495 273.0
39.0593 313.0
39.0692 315.0
39.079 355.0
39.0889 353.0
39.0987 394.0
39.1086 412.0
39.1184 421.0
39.1283 433.0
39.1381 427.0
39.1479 450.0
39.1578 440.0
39.1676 452.0
39.1775 458.0
39.1873 476.0
39.1972 449.0
39.207 491.0
39.2169 569.0
39.2267 527.0
39.2366 592.0
39.2464 701.0
39.2563 722.0
39.2661 824.0
39.276 847.0
39.2858 998.0
39.2957 1180.0
39.3055 1327.0
39.3154 1412.0
39.3252 1586.0
39.3351 1745.0
39.3449 1874.0
39.3548 2019.0
39.3646 2143.0
39.3744 2180.0
39.3843 2317.0
39.3941 2370.0
39.404 2544.0
39.4138 2447.0
39.4237 2530.0
39.4335 2501.0
39.4434 2475.0
39.4532 2438.0
39.4631 2307.0
39.4729 2330.0
39.4828 2200.0
39.4926 2134.0
39.5025 1979.0
39.5123 1861.0
39.5222 1686.0
39.532 1639.0
39.5419 1535.0
39.5517 1412.0
39.5616 1313.0
39.5714 1219.0
39.5812 1080.0
39.5911 965.0
39.6009 899.0
39.6108 818.0
39.6206 675.0
39.6305 645.0
39.6403 600.0
39.6502 540.0
39.66 541.0
39.6699 444.0
39.6797 443.0
39.6896 407.0
39.6994 377.0
39.7093 388.0
39.7191 334.0
39.729 326.0
39.7388 277.0
39.7487 266.0
39.7585 275.0
39.7684 312.0
39.7782 279.0
39.788 265.0
39.7979 233.0
39.8077 255.0
39.8176 223.0
39.8274 222.0
39.8373 238.0
39.8471 162.0
39.857 220.0
39.8668 196.0
39.8767 188.0
39.8865 178.0
39.8964 180.0
39.9062 191.0
39.9161 163.0
39.9259 186.0
39.9358 174.0
39.9456 197.0
39.9555 177.0
39.9653 174.0
39.9752 174.0
39.985 177.0
39.9949 169.0
40.0047 132.0
40.0145 133.0
40.0244 154.0
40.0342 137.0
40.0441 150.0
40.0539 137.0
40.0638 150.0
40.0736 153.0
40.0835 139.0
40.0933 134.0
40.1032 136.0
40.113 130.0
40.1229 138.0
40.1327 142.0
40.1426 165.0
40.1524 151.0
40.1623 136.0
40.1721 147.0
40.182 143.0
40.1918 127.0
40.2017 146.0
40.2115 155.0
40.2213 146.0
40.2312 153.0
40.241 133.0
40.2509 146.0
40.2607 131.0
40.2706 173.0
40.2804 141.0
40.2903 137.0
40.3001 137.0
40.31 133.0
40.3198 128.0
40.3297 144.0
40.3395 164.0
40.3494 125.0
40.3592 142.0
40.3691 147.0
40.3789 125.0
40.3888 140.0
40.3986 160.0
40.4085 166.0
40.4183 128.0
40.4282 147.0
40.438 130.0
40.4478 148.0
40.4577 141.0
40.4675 134.0
40.4774 130.0
40.4872 161.0
40.4971 142.0
40.5069 152.0
40.5168 138.0
40.5266 137.0
40.5365 138.0
40.5463 149.0
40.5562 145.0
40.566 148.0
40.5759 143.0
40.5857 149.0
40.5956 143.0
40.6054 171.0
40.6153 156.0
40.6251 170.0
40.635 141.0
40.6448 169.0
40.6546 167.0
40.6645 167.0
40.6743 167.0
40.6842 166.0
40.694 171.0
40.7039 156.0
40.7137 158.0
40.7236 153.0
40.7334 191.0
40.7433 183.0
40.7531 164.0
40.763 174.0
40.7728 151.0
40.7827 166.0
40.7925 165.0
40.8024 166.0
40.8122 191.0
40.8221 197.0
40.8319 176.0
40.8418 194.0
40.8516 169.0
40.8615 181.0
40.8713 169.0
40.8811 209.0
40.891 178.0
40.9008 190.0
40.9107 184.0
40.9205 176.0
40.9304 178.0
40.9402 177.0
40.9501 206.0
40.9599 176.0
40.9698 193.0
40.9796 174.0
40.9895 182.0
40.9993 208.0
41.0092 180.0
41.019 193.0
41.0289 218.0
41.0387 203.0
41.0486 194.0
41.0584 205.0
41.0683 189.0
41.0781 224.0
41.0879 184.0
41.0978 210.0
41.1076 218.0
41.1175 184.0
41.1273 185.0
41.1372 201.0
41.147 223.0
41.1569 224.0
41.1667 223.0
41.1766 208.0
41.1864 216.0
41.1963 271.0
41.2061 287.0
41.216 257.0
41.2258 214.0
41.2357 297.0
41.2455 283.0
41.2554 292.0
41.2652 318.0
41.2751 321.0
41.2849 318.0
41.2947 325.0
41.3046 331.0
41.3144 375.0
41.3243 324.0
41.3341 409.0
41.344 456.0
41.3538 445.0
41.3637 466.0
41.3735 563.0
41.3834 608.0
41.3932 722.0
41.4031 817.0
41.4129 803.0
41.4228 914.0
41.4326 943.0
41.4425 950.0
41.4523 941.0
41.4622 972.0
41.472 986.0
41.4819 1045.0
41.4917 1095.0
41.5016 1109.0
41.5114 1385.0
41.5212 1564.0
41.5311 1870.0
41.5409 2427.0
41.5508 3356.0
41.5606 5414.0
41.5705 10302.0
41.5803 25273.0
41.5902 47452.0
41.6 60136.0
41.6099 64913.0
41.6197 65504.0
41.6296 60609.0
41.6394 41588.0
41.6493 19652.0
41.6591 9903.0
41.669 7000.0
41.6788 8358.0
41.6887 15268.0
41.6985 24512.0
41.7084 30244.0
41.7182 32499.0
41.728 32115.0
41.7379 28860.0
41.7477 19633.0
41.7576 9900.0
41.7674 4805.0
41.7773 2927.0
41.7871 1965.0
41.797 1524.0
41.8068 1230.0
41.8167 1061.0
41.8265 966.0
41.8364 820.0
41.8462 754.0
41.8561 751.0
41.8659 620.0
41.8758 573.0
41.8856 573.0
41.8955 522.0
41.9053 506.0
41.9152 462.0
41.925 439.0
41.9349 432.0
41.9447 371.0
41.9545 385.0
41.9644 387.0
41.9742 378.0
41.9841 350.0
41.9939 311.0
42.0038 338.0
42.0136 324.0
42.0235 296.0
42.0333 290.0
42.0432 281.0
42.053 301.0
42.0629 290.0
42.0727 316.0
42.0826 273.0
42.0924 275.0
42.1023 260.0
42.1121 261.0
42.122 229.0
42.1318 262.0
42.1417 199.0
42.1515 216.0
42.1613 211.0
42.1712 212.0
42.181 184.0
42.1909 183.0
42.2007 214.0
42.2106 217.0
42.2204 191.0
42.2303 175.0
42.2401 158.0
42.25 167.0
42.2598 187.0
42.2697 149.0
42.2795 195.0
42.2894 182.0
42.2992 172.0
42.3091 176.0
42.3189 179.0
42.3288 147.0
42.3386 167.0
42.3485 156.0
42.3583 146.0
42.3682 147.0
42.378 179.0
42.3878 151.0
42.3977 152.0
42.4075 137.0
42.4174 131.0
42.4272 133.0
42.4371 135.0
42.4469 141.0
42.4568 147.0
42.4666 137.0
42.4765 152.0
42.4863 145.0
42.4962 156.0
42.506 154.0
42.5159 140.0
42.5257 124.0
42.5356 168.0
42.5454 151.0
42.5553 171.0
42.5651 154.0
42.575 156.0
42.5848 158.0
42.5946 149.0
42.6045 135.0
42.6143 146.0
42.6242 142.0
42.634 142.0
42.6439 142.0
42.6537 140.0
42.6636 131.0
42.6734 151.0
42.6833 137.0
42.6931 160.0
42.703 120.0
42.7128 145.0
42.7227 124.0
42.7325 156.0
42.7424 146.0
42.7522 129.0
42.7621 150.0
42.7719 155.0
42.7818 141.0
42.7916 130.0
42.8014 141.0
42.8113 139.0
42.8211 104.0
42.831 138.0
42.8408 136.0
42.8507 124.0
42.8605 129.0
42.8704 144.0
42.8802 127.0
42.8901 150.0
42.8999 143.0
42.9098 140.0
42.9196 145.0
42.9295 134.0
42.9393 124.0
42.9492 126.0
42.959 111.0
42.9689 128.0
42.9787 131.0
42.9886 106.0
42.9984 126.0
43.0083 139.0
43.0181 135.0
43.0279 153.0
43.0378 136.0
43.0476 138.0
43.0575 134.0
43.0673 138.0
43.0772 116.0
43.087 136.0
43.0969 137.0
43.1067 126.0
43.1166 165.0
43.1264 138.0
43.1363 148.0
43.1461 115.0
43.156 140.0
43.1658 109.0
43.1757 133.0
43.1855 115.0
43.1954 120.0
43.2052 148.0
43.2151 144.0
43.2249 136.0
43.2347 150.0
43.2446 129.0
43.2544 134.0
43.2643 151.0
43.2741 124.0
43.284 132.0
43.2938 138.0
43.3037 108.0
43.3135 121.0
43.3234 116.0
43.3332 138.0
43.3431 118.0
43.3529 133.0
43.3628 144.0
43.3726 129.0
43.3825 133.0
43.3923 130.0
43.4022 127.0
43.412 111.0
43.4219 145.0
43.4317 116.0
43.4416 140.0
43.4514 119.0
43.4612 146.0
43.4711 125.0
43.4809 126.0
43.4908 147.0
43.5006 128.0
43.5105 136.0
43.5203 138.0
43.5302 156.0
43.54 150.0
43.5499 149.0
43.5597 121.0
43.5696 132.0
43.5794 139.0
43.5893 128.0
43.5991 126.0
43.609 149.0
43.6188 136.0
43.6287 142.0
43.6385 150.0
43.6484 139.0
43.6582 138.0
43.668 151.0
43.6779 142.0
43.6877 136.0
43.6976 157.0
43.7074 171.0
43.7173 140.0
43.7271 131.0
43.737 150.0
43.7468 131.0
43.7567 142.0
43.7665 119.0
43.7764 160.0
43.7862 140.0
43.7961 156.0
43.8059 149.0
43.8158 154.0
43.8256 148.0
43.8355 151.0
43.8453 132.0
43.8552 154.0
43.865 160.0
43.8749 164.0
43.8847 126.0
43.8945 142.0
43.9044 153.0
43.9142 123.0
43.9241 141.0
43.9339 131.0
43.9438 143.0
43.9536 149.0
43.9635 134.0
43.9733 155.0
43.9832 162.0
43.993 166.0
44.0029 154.0
44.0127 153.0
44.0226 165.0
44.0324 138.0
44.0423 156.0
44.0521 155.0
44.062 156.0
44.0718 178.0
44.0817 157.0
44.0915 183.0
44.1013 142.0
44.1112 160.0
44.121 162.0
44.1309 167.0
44.1407 192.0
44.1506 161.0
44.1604 166.0
44.1703 173.0
44.1801 168.0
44.19 165.0
44.1998 181.0
44.2097 179.0
44.2195 215.0
44.2294 170.0
44.2392 202.0
44.2491 195.0
44.2589 226.0
44.2688 237.0
44.2786 234.0
44.2885 236.0
44.2983 239.0
44.3081 275.0
44.318 244.0
44.3278 222.0
44.3377 232.0
44.3475 272.0
44.3574 259.0
44.3672 283.0
44.3771 280.0
44.3869 305.0
44.3968 288.0
44.4066 260.0
44.4165 282.0
44.4263 324.0
44.4362 321.0
44.446 277.0
44.4559 270.0
44.4657 285.0
44.4756 274.0
44.4854 296.0
44.4953 232.0
44.5051 263.0
44.515 267.0
44.5248 246.0
44.5346 247.0
44.5445 262.0
44.5543 243.0
44.5642 219.0
44.574 217.0
44.5839 202.0
44.5937 205.0
44.6036 199.0
44.6134 207.0
44.6233 202.0
44.6331 185.0
44.643 179.0
44.6528 162.0
44.6627 177.0
44.6725 170.0
44.6824 158.0
44.6922 157.0
44.7021 159.0
44.7119 178.0
44.7218 165.0
44.7316 152.0
44.7414 156.0
44.7513 159.0
44.7611 148.0
44.771 148.0
44.7808 144.0
44.7907 145.0
44.8005 158.0
44.8104 139.0
44.8202 129.0
44.8301 153.0
44.8399 122.0
44.8498 140.0
44.8596 145.0
44.8695 131.0
44.8793 104.0
44.8892 122.0
44.899 120.0
44.9089 142.0
44.9187 131.0
44.9286 147.0
44.9384 147.0
44.9483 132.0
44.9581 124.0
44.9679 161.0
44.9778 96.0
44.9876 135.0
44.9975 118.0