File: data/W6726/XRD_Phi/W6726_Al2O3_phi_360deg_25min_3mm_active_5.xy
-305.665 65.000
-305.415 55.000
-305.165 65.000
-304.915 55.000
-304.665 63.000
-304.415 49.000
-304.165 61.000
-303.915 51.000
-303.665 86.000
-303.415 53.000
-303.165 57.000
-302.915 57.000
-302.665 62.000
-302.415 44.000
-302.165 60.000
-301.915 59.000
-301.665 55.000
-301.415 52.000
-301.165 66.000
-300.915 48.000
-300.665 51.000
-300.415 46.000
-300.165 74.000
-299.915 66.000
-299.665 54.000
-299.415 52.000
-299.165 55.000
-298.915 60.000
-298.665 57.000
-298.415 56.000
-298.165 50.000
-297.915 52.000
-297.665 53.000
-297.415 55.000
-297.165 73.000
-296.915 47.000
-296.665 49.000
-296.415 41.000
-296.165 55.000
-295.915 60.000
-295.665 55.000
-295.415 57.000
-295.165 69.000
-294.915 38.000
-294.665 52.000
-294.415 72.000
-294.165 51.000
-293.915 58.000
-293.665 70.000
-293.415 62.000
-293.165 61.000
-292.915 74.000
-292.665 49.000
-292.415 54.000
-292.165 53.000
-291.915 63.000
-291.665 56.000
-291.415 59.000
-291.165 54.000
-290.915 60.000
-290.665 53.000
-290.415 51.000
-290.165 58.000
-289.915 49.000
-289.665 55.000
-289.415 45.000
-289.165 68.000
-288.915 56.000
-288.665 65.000
-288.415 49.000
-288.165 67.000
-287.915 52.000
-287.665 64.000
-287.415 49.000
-287.165 44.000
-286.915 52.000
-286.665 62.000
-286.415 45.000
-286.165 49.000
-285.915 57.000
-285.665 55.000
-285.415 68.000
-285.165 80.000
-284.915 60.000
-284.665 47.000
-284.415 63.000
-284.165 65.000
-283.915 50.000
-283.665 52.000
-283.415 60.000
-283.165 61.000
-282.915 57.000
-282.665 48.000
-282.415 41.000
-282.165 78.000
-281.915 56.000
-281.665 58.000
-281.415 55.000
-281.165 49.000
-280.915 57.000
-280.665 53.000
-280.415 59.000
-280.165 56.000
-279.915 55.000
-279.665 56.000
-279.415 55.000
-279.165 52.000
-278.915 63.000
-278.665 45.000
-278.415 44.000
-278.165 50.000
-277.915 46.000
-277.665 63.000
-277.415 57.000
-277.165 56.000
-276.915 46.000
-276.665 51.000
-276.415 48.000
-276.165 49.000
-275.915 51.000
-275.665 41.000
-275.415 60.000
-275.165 48.000
-274.915 58.000
-274.665 52.000
-274.415 62.000
-274.165 44.000
-273.915 36.000
-273.665 43.000
-273.415 49.000
-273.165 41.000
-272.915 55.000
-272.665 58.000
-272.415 52.000
-272.165 55.000
-271.915 49.000
-271.665 64.000
-271.415 59.000
-271.165 45.000
-270.915 50.000
-270.665 57.000
-270.415 56.000
-270.165 45.000
-269.915 59.000
-269.665 47.000
-269.415 44.000
-269.165 67.000
-268.915 48.000
-268.665 37.000
-268.415 49.000
-268.165 42.000
-267.915 49.000
-267.665 54.000
-267.415 47.000
-267.165 53.000
-266.915 42.000
-266.665 45.000
-266.415 67.000
-266.165 53.000
-265.915 45.000
-265.665 54.000
-265.415 36.000
-265.165 44.000
-264.915 58.000
-264.665 54.000
-264.415 47.000
-264.165 64.000
-263.915 59.000
-263.665 43.000
-263.415 43.000
-263.165 49.000
-262.915 43.000
-262.665 61.000
-262.415 57.000
-262.165 58.000
-261.915 43.000
-261.665 70.000
-261.415 60.000
-261.165 52.000
-260.915 54.000
-260.665 61.000
-260.415 48.000
-260.165 57.000
-259.915 61.000
-259.665 52.000
-259.415 53.000
-259.165 58.000
-258.915 55.000
-258.665 45.000
-258.415 55.000
-258.165 71.000
-257.915 67.000
-257.665 65.000
-257.415 51.000
-257.165 53.000
-256.915 56.000
-256.665 50.000
-256.415 63.000
-256.165 64.000
-255.915 66.000
-255.665 63.000
-255.415 57.000
-255.165 64.000
-254.915 75.000
-254.665 60.000
-254.415 64.000
-254.165 57.000
-253.915 62.000
-253.665 60.000
-253.415 76.000
-253.165 61.000
-252.915 53.000
-252.665 65.000
-252.415 58.000
-252.165 54.000
-251.915 64.000
-251.665 46.000
-251.415 44.000
-251.165 60.000
-250.915 59.000
-250.665 75.000
-250.415 44.000
-250.165 50.000
-249.915 65.000
-249.665 45.000
-249.415 52.000
-249.165 54.000
-248.915 61.000
-248.665 69.000
-248.415 60.000
-248.165 54.000
-247.915 64.000
-247.665 65.000
-247.415 65.000
-247.165 71.000
-246.915 64.000
-246.665 56.000
-246.415 67.000
-246.165 58.000
-245.915 67.000
-245.665 62.000
-245.415 73.000
-245.165 58.000
-244.915 62.000
-244.665 61.000
-244.415 57.000
-244.165 68.000
-243.915 72.000
-243.665 70.000
-243.415 62.000
-243.165 48.000
-242.915 58.000
-242.665 56.000
-242.415 64.000
-242.165 63.000
-241.915 55.000
-241.665 72.000
-241.415 60.000
-241.165 61.000
-240.915 57.000
-240.665 69.000
-240.415 63.000
-240.165 78.000
-239.915 58.000
-239.665 75.000
-239.415 63.000
-239.165 61.000
-238.915 52.000
-238.665 59.000
-238.415 52.000
-238.165 49.000
-237.915 72.000
-237.665 45.000
-237.415 63.000
-237.165 61.000
-236.915 58.000
-236.665 53.000
-236.415 61.000
-236.165 67.000
-235.915 63.000
-235.665 77.000
-235.415 59.000
-235.165 41.000
-234.915 57.000
-234.665 67.000
-234.415 64.000
-234.165 63.000
-233.915 80.000
-233.665 80.000
-233.415 62.000
-233.165 76.000
-232.915 76.000
-232.665 363.000
-232.415 615.000
-232.165 93.000
-231.915 86.000
-231.665 100.000
-231.415 85.000
-231.165 96.000
-230.915 80.000
-230.665 79.000
-230.415 77.000
-230.165 76.000
-229.915 62.000
-229.665 95.000
-229.415 74.000
-229.165 71.000
-228.915 58.000
-228.665 77.000
-228.415 62.000
-228.165 49.000
-227.915 57.000
-227.665 54.000
-227.415 59.000
-227.165 54.000
-226.915 49.000
-226.665 63.000
-226.415 63.000
-226.165 48.000
-225.915 53.000
-225.665 57.000
-225.415 50.000
-225.165 45.000
-224.915 58.000
-224.665 53.000
-224.415 47.000
-224.165 56.000
-223.915 61.000
-223.665 39.000
-223.415 42.000
-223.165 48.000
-222.915 43.000
-222.665 49.000
-222.415 50.000
-222.165 49.000
-221.915 46.000
-221.665 47.000
-221.415 42.000
-221.165 46.000
-220.915 58.000
-220.665 52.000
-220.415 50.000
-220.165 56.000
-219.915 56.000
-219.665 57.000
-219.415 39.000
-219.165 49.000
-218.915 55.000
-218.665 39.000
-218.415 43.000
-218.165 49.000
-217.915 55.000
-217.665 49.000
-217.415 52.000
-217.165 57.000
-216.915 65.000
-216.665 54.000
-216.415 48.000
-216.165 46.000
-215.915 45.000
-215.665 52.000
-215.415 54.000
-215.165 48.000
-214.915 52.000
-214.665 57.000
-214.415 58.000
-214.165 37.000
-213.915 46.000
-213.665 58.000
-213.415 51.000
-213.165 41.000
-212.915 58.000
-212.665 63.000
-212.415 52.000
-212.165 59.000
-211.915 59.000
-211.665 52.000
-211.415 47.000
-211.165 57.000
-210.915 58.000
-210.665 42.000
-210.415 43.000
-210.165 57.000
-209.915 47.000
-209.665 47.000
-209.415 51.000
-209.165 48.000
-208.915 38.000
-208.665 64.000
-208.415 51.000
-208.165 29.000
-207.915 39.000
-207.665 36.000
-207.415 39.000
-207.165 54.000
-206.915 40.000
-206.665 42.000
-206.415 50.000
-206.165 58.000
-205.915 46.000
-205.665 39.000
-205.415 47.000
-205.165 40.000
-204.915 30.000
-204.665 51.000
-204.415 48.000
-204.165 42.000
-203.915 39.000
-203.665 54.000
-203.415 48.000
-203.165 55.000
-202.915 50.000
-202.665 53.000
-202.415 42.000
-202.165 36.000
-201.915 33.000
-201.665 37.000
-201.415 54.000
-201.165 57.000
-200.915 32.000
-200.665 57.000
-200.415 46.000
-200.165 53.000
-199.915 41.000
-199.665 39.000
-199.415 56.000
-199.165 52.000
-198.915 39.000
-198.665 41.000
-198.415 57.000
-198.165 45.000
-197.915 48.000
-197.665 45.000
-197.415 41.000
-197.165 55.000
-196.915 39.000
-196.665 43.000
-196.415 50.000
-196.165 36.000
-195.915 56.000
-195.665 47.000
-195.415 45.000
-195.165 35.000
-194.915 39.000
-194.665 41.000
-194.415 49.000
-194.165 50.000
-193.915 57.000
-193.665 59.000
-193.415 47.000
-193.165 47.000
-192.915 52.000
-192.665 47.000
-192.415 49.000
-192.165 53.000
-191.915 47.000
-191.665 40.000
-191.415 61.000
-191.165 50.000
-190.915 43.000
-190.665 48.000
-190.415 33.000
-190.165 44.000
-189.915 45.000
-189.665 57.000
-189.415 38.000
-189.165 41.000
-188.915 52.000
-188.665 54.000
-188.415 39.000
-188.165 47.000
-187.915 51.000
-187.665 61.000
-187.415 48.000
-187.165 54.000
-186.915 44.000
-186.665 57.000
-186.415 33.000
-186.165 63.000
-185.915 47.000
-185.665 36.000
-185.415 33.000
-185.165 64.000
-184.915 43.000
-184.665 53.000
-184.415 45.000
-184.165 41.000
-183.915 44.000
-183.665 50.000
-183.415 38.000
-183.165 41.000
-182.915 40.000
-182.665 40.000
-182.415 37.000
-182.165 61.000
-181.915 54.000
-181.665 43.000
-181.415 53.000
-181.165 63.000
-180.915 50.000
-180.665 54.000
-180.415 36.000
-180.165 47.000
-179.915 46.000
-179.665 45.000
-179.415 40.000
-179.165 45.000
-178.915 40.000
-178.665 46.000
-178.415 42.000
-178.165 58.000
-177.915 57.000
-177.665 42.000
-177.415 56.000
-177.165 49.000
-176.915 44.000
-176.665 41.000
-176.415 36.000
-176.165 57.000
-175.915 42.000
-175.665 39.000
-175.415 50.000
-175.165 33.000
-174.915 35.000
-174.665 51.000
-174.415 54.000
-174.165 44.000
-173.915 39.000
-173.665 51.000
-173.415 45.000
-173.165 46.000
-172.915 35.000
-172.665 37.000
-172.415 41.000
-172.165 44.000
-171.915 32.000
-171.665 30.000
-171.415 24.000
-171.165 31.000
-170.915 35.000
-170.665 40.000
-170.415 31.000
-170.165 29.000
-169.915 33.000
-169.665 31.000
-169.415 26.000
-169.165 37.000
-168.915 45.000
-168.665 44.000
-168.415 29.000
-168.165 33.000
-167.915 25.000
-167.665 35.000
-167.415 29.000
-167.165 23.000
-166.915 36.000
-166.665 22.000
-166.415 25.000
-166.165 30.000
-165.915 35.000
-165.665 25.000
-165.415 39.000
-165.165 29.000
-164.915 40.000
-164.665 35.000
-164.415 37.000
-164.165 27.000
-163.915 33.000
-163.665 32.000
-163.415 43.000
-163.165 36.000
-162.915 36.000
-162.665 37.000
-162.415 34.000
-162.165 41.000
-161.915 25.000
-161.665 36.000
-161.415 44.000
-161.165 46.000
-160.915 43.000
-160.665 36.000
-160.415 31.000
-160.165 25.000
-159.915 43.000
-159.665 37.000
-159.415 26.000
-159.165 25.000
-158.915 36.000
-158.665 26.000
-158.415 33.000
-158.165 33.000
-157.915 37.000
-157.665 37.000
-157.415 41.000
-157.165 42.000
-156.915 42.000
-156.665 33.000
-156.415 34.000
-156.165 34.000
-155.915 32.000
-155.665 37.000
-155.415 26.000
-155.165 35.000
-154.915 35.000
-154.665 50.000
-154.415 31.000
-154.165 35.000
-153.915 29.000
-153.665 39.000
-153.415 39.000
-153.165 37.000
-152.915 42.000
-152.665 31.000
-152.415 44.000
-152.165 31.000
-151.915 37.000
-151.665 45.000
-151.415 27.000
-151.165 45.000
-150.915 33.000
-150.665 53.000
-150.415 44.000
-150.165 45.000
-149.915 45.000
-149.665 37.000
-149.415 33.000
-149.165 38.000
-148.915 28.000
-148.665 45.000
-148.415 40.000
-148.165 37.000
-147.915 59.000
-147.665 38.000
-147.415 53.000
-147.165 37.000
-146.915 32.000
-146.665 44.000
-146.415 59.000
-146.165 34.000
-145.915 41.000
-145.665 42.000
-145.415 47.000
-145.165 49.000
-144.915 42.000
-144.665 38.000
-144.415 49.000
-144.165 50.000
-143.915 37.000
-143.665 45.000
-143.415 58.000
-143.165 42.000
-142.915 52.000
-142.665 48.000
-142.415 43.000
-142.165 41.000
-141.915 43.000
-141.665 43.000
-141.415 55.000
-141.165 52.000
-140.915 43.000
-140.665 52.000
-140.415 55.000
-140.165 46.000
-139.915 33.000
-139.665 48.000
-139.415 45.000
-139.165 42.000
-138.915 42.000
-138.665 53.000
-138.415 50.000
-138.165 49.000
-137.915 46.000
-137.665 39.000
-137.415 45.000
-137.165 43.000
-136.915 42.000
-136.665 45.000
-136.415 42.000
-136.165 45.000
-135.915 41.000
-135.665 47.000
-135.415 46.000
-135.165 37.000
-134.915 48.000
-134.665 53.000
-134.415 46.000
-134.165 54.000
-133.915 65.000
-133.665 50.000
-133.415 46.000
-133.165 55.000
-132.915 54.000
-132.665 51.000
-132.415 63.000
-132.165 48.000
-131.915 49.000
-131.665 49.000
-131.415 68.000
-131.165 52.000
-130.915 64.000
-130.665 45.000
-130.415 54.000
-130.165 49.000
-129.915 51.000
-129.665 54.000
-129.415 61.000
-129.165 61.000
-128.915 58.000
-128.665 61.000
-128.415 60.000
-128.165 58.000
-127.915 81.000
-127.665 63.000
-127.415 69.000
-127.165 71.000
-126.915 72.000
-126.665 79.000
-126.415 67.000
-126.165 79.000
-125.915 87.000
-125.665 91.000
-125.415 269.000
-125.165 2537.000
-124.915 143.000
-124.665 88.000
-124.415 68.000
-124.165 84.000
-123.915 75.000
-123.665 89.000
-123.415 64.000
-123.165 63.000
-122.915 55.000
-122.665 52.000
-122.415 61.000
-122.165 47.000
-121.915 54.000
-121.665 42.000
-121.415 62.000
-121.165 52.000
-120.915 60.000
-120.665 45.000
-120.415 55.000
-120.165 53.000
-119.915 42.000
-119.665 52.000
-119.415 60.000
-119.165 61.000
-118.915 54.000
-118.665 44.000
-118.415 45.000
-118.165 42.000
-117.915 40.000
-117.665 61.000
-117.415 59.000
-117.165 50.000
-116.915 51.000
-116.665 57.000
-116.415 48.000
-116.165 52.000
-115.915 49.000
-115.665 46.000
-115.415 48.000
-115.165 42.000
-114.915 60.000
-114.665 58.000
-114.415 62.000
-114.165 52.000
-113.915 57.000
-113.665 46.000
-113.415 49.000
-113.165 59.000
-112.915 50.000
-112.665 45.000
-112.415 48.000
-112.165 68.000
-111.915 59.000
-111.665 43.000
-111.415 43.000
-111.165 37.000
-110.915 52.000
-110.665 56.000
-110.415 54.000
-110.165 44.000
-109.915 57.000
-109.665 51.000
-109.415 52.000
-109.165 56.000
-108.915 54.000
-108.665 44.000
-108.415 46.000
-108.165 44.000
-107.915 58.000
-107.665 52.000
-107.415 50.000
-107.165 47.000
-106.915 54.000
-106.665 63.000
-106.415 56.000
-106.165 45.000
-105.915 32.000
-105.665 48.000
-105.415 36.000
-105.165 47.000
-104.915 53.000
-104.665 69.000
-104.415 50.000
-104.165 49.000
-103.915 47.000
-103.665 53.000
-103.415 48.000
-103.165 40.000
-102.915 51.000
-102.665 38.000
-102.415 49.000
-102.165 48.000
-101.915 47.000
-101.665 34.000
-101.415 46.000
-101.165 39.000
-100.915 51.000
-100.665 55.000
-100.415 52.000
-100.165 43.000
-99.91500 47.000
-99.66500 57.000
-99.41500 43.000
-99.16500 36.000
-98.91500 58.000
-98.66500 53.000
-98.41500 53.000
-98.16500 51.000
-97.91500 45.000
-97.66500 49.000
-97.41500 51.000
-97.16500 48.000
-96.91500 42.000
-96.66500 35.000
-96.41500 52.000
-96.16500 54.000
-95.91500 51.000
-95.66500 54.000
-95.41500 57.000
-95.16500 41.000
-94.91500 53.000
-94.66500 48.000
-94.41500 55.000
-94.16500 54.000
-93.91500 41.000
-93.66500 55.000
-93.41500 52.000
-93.16500 61.000
-92.91500 43.000
-92.66500 41.000
-92.41500 39.000
-92.16500 48.000
-91.91500 46.000
-91.66500 48.000
-91.41500 54.000
-91.16500 49.000
-90.91500 45.000
-90.66500 45.000
-90.41500 59.000
-90.16500 63.000
-89.91500 47.000
-89.66500 51.000
-89.41500 60.000
-89.16500 46.000
-88.91500 67.000
-88.66500 60.000
-88.41500 52.000
-88.16500 51.000
-87.91500 48.000
-87.66500 47.000
-87.41500 50.000
-87.16500 55.000
-86.91500 49.000
-86.66500 57.000
-86.41500 42.000
-86.16500 63.000
-85.91500 50.000
-85.66500 58.000
-85.41500 39.000
-85.16500 57.000
-84.91500 59.000
-84.66500 62.000
-84.41500 55.000
-84.16500 56.000
-83.91500 46.000
-83.66500 49.000
-83.41500 66.000
-83.16500 44.000
-82.91500 74.000
-82.66500 63.000
-82.41500 61.000
-82.16500 53.000
-81.91500 56.000
-81.66500 59.000
-81.41500 60.000
-81.16500 63.000
-80.91500 69.000
-80.66500 67.000
-80.41500 58.000
-80.16500 55.000
-79.91500 56.000
-79.66500 53.000
-79.41500 67.000
-79.16500 72.000
-78.91500 70.000
-78.66500 64.000
-78.41500 64.000
-78.16500 70.000
-77.91500 56.000
-77.66500 68.000
-77.41500 62.000
-77.16500 64.000
-76.91500 61.000
-76.66500 74.000
-76.41500 47.000
-76.16500 70.000
-75.91500 61.000
-75.66500 63.000
-75.41500 53.000
-75.16500 61.000
-74.91500 66.000
-74.66500 63.000
-74.41500 57.000
-74.16500 69.000
-73.91500 51.000
-73.66500 65.000
-73.41500 61.000
-73.16500 56.000
-72.91500 58.000
-72.66500 62.000
-72.41500 52.000
-72.16500 54.000
-71.91500 70.000
-71.66500 61.000
-71.41500 59.000
-71.16500 64.000
-70.91500 78.000
-70.66500 62.000
-70.41500 81.000
-70.16500 67.000
-69.91500 56.000
-69.66500 45.000
-69.41500 64.000
-69.16500 71.000
-68.91500 73.000
-68.66500 64.000
-68.41500 67.000
-68.16500 60.000
-67.91500 65.000
-67.66500 66.000
-67.41500 62.000
-67.16500 67.000
-66.91500 80.000
-66.66500 70.000
-66.41500 70.000
-66.16500 61.000
-65.91500 74.000
-65.66500 46.000
-65.41500 59.000
-65.16500 52.000
-64.91500 59.000
-64.66500 58.000
-64.41500 56.000
-64.16500 54.000
-63.91500 64.000
-63.66500 47.000
-63.41500 58.000
-63.16500 60.000
-62.91500 64.000
-62.66500 65.000
-62.41500 63.000
-62.16500 57.000
-61.91500 53.000
-61.66500 55.000
-61.41500 56.000
-61.16500 65.000
-60.91500 61.000
-60.66500 52.000
-60.41500 56.000
-60.16500 50.000
-59.91500 59.000
-59.66500 56.000
-59.41500 64.000
-59.16500 65.000
-58.91500 57.000
-58.66500 53.000
-58.41500 59.000
-58.16500 57.000
-57.91500 75.000
-57.66500 54.000
-57.41500 46.000
-57.16500 41.000
-56.91500 69.000
-56.66500 56.000
-56.41500 50.000
-56.16500 39.000
-55.91500 68.000
-55.66500 48.000
-55.41500 56.000
-55.16500 56.000
-54.91500 55.000
-54.66500 56.000
-54.41500 61.000
-54.16500 53.000
-53.91500 50.000
-53.66500 49.000
-53.41500 50.000
-53.16500 52.000
-52.91500 54.000
-52.66500 50.000
-52.41500 64.000
-52.16500 50.000
-51.91500 62.000
-51.66500 47.000
-51.41500 47.000
-51.16500 47.000
-50.91500 51.000
-50.66500 52.000
-50.41500 50.000
-50.16500 49.000
-49.91500 59.000
-49.66500 50.000
-49.41500 56.000
-49.16500 61.000
-48.91500 63.000
-48.66500 43.000
-48.41500 57.000
-48.16500 50.000
-47.91500 53.000
-47.66500 60.000
-47.41500 58.000
-47.16500 54.000
-46.91500 47.000
-46.66500 48.000
-46.41500 44.000
-46.16500 53.000
-45.91500 50.000
-45.66500 47.000
-45.41500 57.000
-45.16500 62.000
-44.91500 49.000
-44.66500 41.000
-44.41500 48.000
-44.16500 63.000
-43.91500 49.000
-43.66500 56.000
-43.41500 58.000
-43.16500 56.000
-42.91500 66.000
-42.66500 41.000
-42.41500 41.000
-42.16500 40.000
-41.91500 38.000
-41.66500 44.000
-41.41500 43.000
-41.16500 58.000
-40.91500 44.000
-40.66500 48.000
-40.41500 47.000
-40.16500 54.000
-39.91500 43.000
-39.66500 42.000
-39.41500 47.000
-39.16500 48.000
-38.91500 46.000
-38.66500 76.000
-38.41500 47.000
-38.16500 44.000
-37.91500 64.000
-37.66500 37.000
-37.41500 49.000
-37.16500 41.000
-36.91500 46.000
-36.66500 43.000
-36.41500 47.000
-36.16500 39.000
-35.91500 66.000
-35.66500 43.000
-35.41500 45.000
-35.16500 50.000
-34.91500 60.000
-34.66500 50.000
-34.41500 48.000
-34.16500 61.000
-33.91500 38.000
-33.66500 48.000
-33.41500 52.000
-33.16500 44.000
-32.91500 40.000
-32.66500 47.000
-32.41500 47.000
-32.16500 40.000
-31.91500 47.000
-31.66500 49.000
-31.41500 34.000
-31.16500 42.000
-30.91500 42.000
-30.66500 39.000
-30.41500 50.000
-30.16500 52.000
-29.91500 46.000
-29.66500 34.000
-29.41500 47.000
-29.16500 52.000
-28.91500 41.000
-28.66500 48.000
-28.41500 49.000
-28.16500 57.000
-27.91500 44.000
-27.66500 56.000
-27.41500 46.000
-27.16500 47.000
-26.91500 51.000
-26.66500 48.000
-26.41500 47.000
-26.16500 49.000
-25.91500 50.000
-25.66500 49.000
-25.41500 58.000
-25.16500 42.000
-24.91500 49.000
-24.66500 60.000
-24.41500 47.000
-24.16500 39.000
-23.91500 39.000
-23.66500 32.000
-23.41500 42.000
-23.16500 50.000
-22.91500 41.000
-22.66500 42.000
-22.41500 46.000
-22.16500 41.000
-21.91500 42.000
-21.66500 38.000
-21.41500 52.000
-21.16500 65.000
-20.91500 49.000
-20.66500 35.000
-20.41500 56.000
-20.16500 45.000
-19.91500 47.000
-19.66500 56.000
-19.41500 50.000
-19.16500 47.000
-18.91500 39.000
-18.66500 45.000
-18.41500 54.000
-18.16500 39.000
-17.91500 43.000
-17.66500 43.000
-17.41500 48.000
-17.16500 45.000
-16.91500 51.000
-16.66500 45.000
-16.41500 46.000
-16.16500 34.000
-15.91500 56.000
-15.66500 36.000
-15.41500 38.000
-15.16500 40.000
-14.91500 43.000
-14.66500 50.000
-14.41500 42.000
-14.16500 42.000
-13.91500 41.000
-13.66500 51.000
-13.41500 63.000
-13.16500 49.000
-12.91500 44.000
-12.66500 41.000
-12.41500 41.000
-12.16500 44.000
-11.91500 41.000
-11.66500 38.000
-11.41500 51.000
-11.16500 65.000
-10.91500 46.000
-10.66500 40.000
-10.41500 54.000
-10.16500 41.000
-9.91500 52.000
-9.66500 53.000
-9.41500 50.000
-9.16500 49.000
-8.91500 35.000
-8.66500 41.000
-8.41500 38.000
-8.16500 42.000
-7.91500 48.000
-7.66500 37.000
-7.41500 52.000
-7.16500 47.000
-6.91500 46.000
-6.66500 47.000
-6.41500 44.000
-6.16500 37.000
-5.91500 43.000
-5.66500 43.000
-5.41500 40.000
-5.16500 33.000
-4.91500 41.000
-4.66500 40.000
-4.41500 42.000
-4.16500 36.000
-3.91500 43.000
-3.66500 41.000
-3.41500 40.000
-3.16500 43.000
-2.91500 36.000
-2.66500 45.000
-2.41500 38.000
-2.16500 40.000
-1.91500 34.000
-1.66500 43.000
-1.41500 34.000
-1.16500 41.000
-0.91500 40.000
-0.66500 44.000
-0.41500 57.000
-0.16500 43.000
0.08500 38.000
0.33500 34.000
0.58500 34.000
0.83500 35.000
1.08500 53.000
1.33500 39.000
1.58500 40.000
1.83500 33.000
2.08500 36.000
2.33500 35.000
2.58500 37.000
2.83500 32.000
3.08500 32.000
3.33500 43.000
3.58500 36.000
3.83500 33.000
4.08500 43.000
4.33500 38.000
4.58500 39.000
4.83500 35.000
5.08500 28.000
5.33500 40.000
5.58500 36.000
5.83500 30.000
6.08500 28.000
6.33500 35.000
6.58500 30.000
6.83500 34.000
7.08500 31.000
7.33500 33.000
7.58500 44.000
7.83500 39.000
8.08500 36.000
8.33500 33.000
8.58500 27.000
8.83500 27.000
9.08500 31.000
9.33500 37.000
9.58500 31.000
9.83500 33.000
10.08500 33.000
10.33500 40.000
10.58500 23.000
10.83500 42.000
11.08500 29.000
11.33500 35.000
11.58500 40.000
11.83500 35.000
12.08500 35.000
12.33500 30.000
12.58500 36.000
12.83500 22.000
13.08500 41.000
13.33500 33.000
13.58500 32.000
13.83500 35.000
14.08500 36.000
14.33500 26.000
14.58500 40.000
14.83500 34.000
15.08500 23.000
15.33500 34.000
15.58500 33.000
15.83500 26.000
16.08500 42.000
16.33500 31.000
16.58500 24.000
16.83500 32.000
17.08500 30.000
17.33500 22.000
17.58500 50.000
17.83500 34.000
18.08500 35.000
18.33500 29.000
18.58500 35.000
18.83500 25.000
19.08500 38.000
19.33500 32.000
19.58500 35.000
19.83500 35.000
20.08500 22.000
20.33500 30.000
20.58500 29.000
20.83500 39.000
21.08500 38.000
21.33500 35.000
21.58500 46.000
21.83500 39.000
22.08500 33.000
22.33500 22.000
22.58500 34.000
22.83500 46.000
23.08500 37.000
23.33500 46.000
23.58500 38.000
23.83500 40.000
24.08500 38.000
24.33500 34.000
24.58500 45.000
24.83500 30.000
25.08500 45.000
25.33500 42.000
25.58500 40.000
25.83500 38.000
26.08500 35.000
26.33500 30.000
26.58500 48.000
26.83500 49.000
27.08500 34.000
27.33500 48.000
27.58500 45.000
27.83500 45.000
28.08500 50.000
28.33500 41.000
28.58500 35.000
28.83500 46.000
29.08500 41.000
29.33500 48.000
29.58500 39.000
29.83500 50.000
30.08500 27.000
30.33500 43.000
30.58500 39.000
30.83500 42.000
31.08500 54.000
31.33500 44.000
31.58500 47.000
31.83500 47.000
32.08500 43.000
32.33500 60.000
32.58500 55.000
32.83500 41.000
33.08500 61.000
33.33500 42.000
33.58500 40.000
33.83500 55.000
34.08500 49.000
34.33500 53.000
34.58500 52.000
34.83500 43.000
35.08500 50.000
35.33500 59.000
35.58500 45.000
35.83500 48.000
36.08500 54.000
36.33500 42.000
36.58500 51.000
36.83500 46.000
37.08500 46.000
37.33500 42.000
37.58500 49.000
37.83500 54.000
38.08500 46.000
38.33500 56.000
38.58500 53.000
38.83500 47.000
39.08500 47.000
39.33500 46.000
39.58500 59.000
39.83500 38.000
40.08500 55.000
40.33500 43.000
40.58500 45.000
40.83500 62.000
41.08500 41.000
41.33500 43.000
41.58500 60.000
41.83500 47.000
42.08500 62.000
42.33500 50.000
42.58500 51.000
42.83500 53.000
43.08500 51.000
43.33500 54.000
43.58500 60.000
43.83500 50.000
44.08500 49.000
44.33500 53.000
44.58500 49.000
44.83500 53.000
45.08500 56.000
45.33500 56.000
45.58500 57.000
45.83500 46.000
46.08500 46.000
46.33500 55.000
46.58500 53.000
46.83500 41.000
47.08500 63.000
47.33500 63.000
47.58500 47.000
47.83500 65.000
48.08500 57.000
48.33500 55.000
48.58500 58.000
48.83500 62.000
49.08500 58.000
49.33500 53.000
49.58500 56.000
49.83500 66.000
50.08500 67.000
50.33500 58.000
50.58500 47.000
50.83500 64.000
51.08500 70.000
51.33500 54.000
51.58500 67.000
51.83500 58.000
52.08500 64.000
52.33500 35.000
52.58500 50.000
52.83500 45.000
53.08500 57.000
53.33500 55.000
53.58500 40.000
53.83500 47.000
54.08500 40.000
54.23500 63.000