File: data/w6929r/XRD_Omega/film_r_scan_omega_4deg_step_0.005deg0_C2.xy
22.94000 34.0
22.94500 43.0
22.95000 30.0
22.95500 40.0
22.96000 29.0
22.96500 42.0
22.97000 31.0
22.97500 30.0
22.98000 31.0
22.98500 39.0
22.99000 33.0
22.99500 42.0
23.00000 37.0
23.00500 32.0
23.01000 33.0
23.01500 39.0
23.02000 39.0
23.02500 38.0
23.03000 34.0
23.03500 32.0
23.04000 23.0
23.04500 33.0
23.05000 29.0
23.05500 27.0
23.06000 37.0
23.06500 38.0
23.07000 38.0
23.07500 30.0
23.08000 41.0
23.08500 47.0
23.09000 32.0
23.09500 30.0
23.10000 30.0
23.10500 33.0
23.11000 32.0
23.11500 33.0
23.12000 38.0
23.12500 33.0
23.13000 35.0
23.13500 32.0
23.14000 32.0
23.14500 33.0
23.15000 33.0
23.15500 38.0
23.16000 41.0
23.16500 35.0
23.17000 37.0
23.17500 33.0
23.18000 50.0
23.18500 31.0
23.19000 30.0
23.19500 37.0
23.20000 30.0
23.20500 39.0
23.21000 42.0
23.21500 26.0
23.22000 27.0
23.22500 33.0
23.23000 39.0
23.23500 41.0
23.24000 34.0
23.24500 34.0
23.25000 29.0
23.25500 32.0
23.26000 28.0
23.26500 32.0
23.27000 38.0
23.27500 46.0
23.28000 42.0
23.28500 45.0
23.29000 32.0
23.29500 34.0
23.30000 30.0
23.30500 41.0
23.31000 40.0
23.31500 31.0
23.32000 45.0
23.32500 32.0
23.33000 35.0
23.33500 39.0
23.34000 41.0
23.34500 41.0
23.35000 36.0
23.35500 33.0
23.36000 40.0
23.36500 30.0
23.37000 42.0
23.37500 38.0
23.38000 42.0
23.38500 40.0
23.39000 35.0
23.39500 38.0
23.40000 39.0
23.40500 43.0
23.41000 48.0
23.41500 53.0
23.42000 30.0
23.42500 37.0
23.43000 43.0
23.43500 40.0
23.44000 40.0
23.44500 47.0
23.45000 36.0
23.45500 38.0
23.46000 37.0
23.46500 40.0
23.47000 50.0
23.47500 55.0
23.48000 70.0
23.48500 41.0
23.49000 37.0
23.49500 44.0
23.50000 49.0
23.50500 39.0
23.51000 52.0
23.51500 48.0
23.52000 51.0
23.52500 37.0
23.53000 49.0
23.53500 55.0
23.54000 45.0
23.54500 52.0
23.55000 38.0
23.55500 41.0
23.56000 58.0
23.56500 49.0
23.57000 53.0
23.57500 44.0
23.58000 59.0
23.58500 58.0
23.59000 53.0
23.59500 61.0
23.60000 36.0
23.60500 44.0
23.61000 38.0
23.61500 46.0
23.62000 43.0
23.62500 47.0
23.63000 48.0
23.63500 57.0
23.64000 44.0
23.64500 52.0
23.65000 44.0
23.65500 57.0
23.66000 55.0
23.66500 47.0
23.67000 50.0
23.67500 48.0
23.68000 55.0
23.68500 50.0
23.69000 42.0
23.69500 55.0
23.70000 65.0
23.70500 56.0
23.71000 59.0
23.71500 50.0
23.72000 72.0
23.72500 68.0
23.73000 47.0
23.73500 61.0
23.74000 64.0
23.74500 67.0
23.75000 55.0
23.75500 56.0
23.76000 66.0
23.76500 51.0
23.77000 62.0
23.77500 68.0
23.78000 70.0
23.78500 54.0
23.79000 66.0
23.79500 91.0
23.80000 60.0
23.80500 73.0
23.81000 66.0
23.81500 76.0
23.82000 66.0
23.82500 73.0
23.83000 76.0
23.83500 62.0
23.84000 76.0
23.84500 69.0
23.85000 76.0
23.85500 62.0
23.86000 87.0
23.86500 83.0
23.87000 86.0
23.87500 78.0
23.88000 93.0
23.88500 69.0
23.89000 79.0
23.89500 100.0
23.90000 111.0
23.90500 91.0
23.91000 84.0
23.91500 81.0
23.92000 87.0
23.92500 94.0
23.93000 99.0
23.93500 90.0
23.94000 85.0
23.94500 106.0
23.95000 99.0
23.95500 86.0
23.96000 89.0
23.96500 99.0
23.97000 103.0
23.97500 84.0
23.98000 110.0
23.98500 113.0
23.99000 109.0
23.99500 114.0
24.00000 118.0
24.00500 107.0
24.01000 120.0
24.01500 112.0
24.02000 153.0
24.02500 138.0
24.03000 115.0
24.03500 121.0
24.04000 133.0
24.04500 126.0
24.05000 118.0
24.05500 119.0
24.06000 123.0
24.06500 134.0
24.07000 133.0
24.07500 148.0
24.08000 146.0
24.08500 139.0
24.09000 173.0
24.09500 144.0
24.10000 140.0
24.10500 157.0
24.11000 149.0
24.11500 157.0
24.12000 180.0
24.12500 150.0
24.13000 155.0
24.13500 146.0
24.14000 168.0
24.14500 184.0
24.15000 159.0
24.15500 154.0
24.16000 171.0
24.16500 171.0
24.17000 192.0
24.17500 187.0
24.18000 197.0
24.18500 207.0
24.19000 181.0
24.19500 186.0
24.20000 232.0
24.20500 227.0
24.21000 241.0
24.21500 198.0
24.22000 203.0
24.22500 203.0
24.23000 258.0
24.23500 231.0
24.24000 238.0
24.24500 256.0
24.25000 269.0
24.25500 265.0
24.26000 237.0
24.26500 264.0
24.27000 276.0
24.27500 284.0
24.28000 278.0
24.28500 278.0
24.29000 272.0
24.29500 284.0
24.30000 299.0
24.30500 295.0
24.31000 280.0
24.31500 302.0
24.32000 317.0
24.32500 308.0
24.33000 319.0
24.33500 312.0
24.34000 316.0
24.34500 353.0
24.35000 318.0
24.35500 376.0
24.36000 366.0
24.36500 400.0
24.37000 384.0
24.37500 378.0
24.38000 366.0
24.38500 376.0
24.39000 361.0
24.39500 385.0
24.40000 432.0
24.40500 451.0
24.41000 387.0
24.41500 383.0
24.42000 467.0
24.42500 461.0
24.43000 471.0
24.43500 459.0
24.44000 462.0
24.44500 465.0
24.45000 489.0
24.45500 427.0
24.46000 490.0
24.46500 502.0
24.47000 466.0
24.47500 537.0
24.48000 520.0
24.48500 536.0
24.49000 514.0
24.49500 523.0
24.50000 594.0
24.50500 543.0
24.51000 548.0
24.51500 596.0
24.52000 561.0
24.52500 609.0
24.53000 590.0
24.53500 573.0
24.54000 632.0
24.54500 595.0
24.55000 605.0
24.55500 648.0
24.56000 623.0
24.56500 601.0
24.57000 682.0
24.57500 636.0
24.58000 683.0
24.58500 690.0
24.59000 671.0
24.59500 731.0
24.60000 708.0
24.60500 752.0
24.61000 721.0
24.61500 735.0
24.62000 717.0
24.62500 736.0
24.63000 752.0
24.63500 729.0
24.64000 764.0
24.64500 837.0
24.65000 755.0
24.65500 812.0
24.66000 826.0
24.66500 811.0
24.67000 790.0
24.67500 822.0
24.68000 798.0
24.68500 766.0
24.69000 874.0
24.69500 835.0
24.70000 825.0
24.70500 800.0
24.71000 867.0
24.71500 840.0
24.72000 870.0
24.72500 945.0
24.73000 812.0
24.73500 858.0
24.74000 922.0
24.74500 895.0
24.75000 910.0
24.75500 966.0
24.76000 942.0
24.76500 933.0
24.77000 901.0
24.77500 1027.0
24.78000 930.0
24.78500 968.0
24.79000 998.0
24.79500 1005.0
24.80000 987.0
24.80500 962.0
24.81000 1004.0
24.81500 955.0
24.82000 1060.0
24.82500 978.0
24.83000 1001.0
24.83500 1004.0
24.84000 1019.0
24.84500 1054.0
24.85000 1006.0
24.85500 1075.0
24.86000 1053.0
24.86500 1025.0
24.87000 968.0
24.87500 965.0
24.88000 1034.0
24.88500 1010.0
24.89000 1043.0
24.89500 1057.0
24.90000 1087.0
24.90500 1043.0
24.91000 980.0
24.91500 1042.0
24.92000 1057.0
24.92500 1021.0
24.93000 1107.0
24.93500 1044.0
24.94000 984.0
24.94500 1039.0
24.95000 1062.0
24.95500 976.0
24.96000 1050.0
24.96500 978.0
24.97000 1009.0
24.97500 1045.0
24.98000 1082.0
24.98500 1060.0
24.99000 1019.0
24.99500 1037.0
25.00000 1058.0
25.00500 1055.0
25.01000 981.0
25.01500 1050.0
25.02000 966.0
25.02500 975.0
25.03000 972.0
25.03500 967.0
25.04000 1045.0
25.04500 977.0
25.05000 1006.0
25.05500 1028.0
25.06000 969.0
25.06500 1025.0
25.07000 972.0
25.07500 929.0
25.08000 991.0
25.08500 939.0
25.09000 1007.0
25.09500 982.0
25.10000 910.0
25.10500 943.0
25.11000 983.0
25.11500 974.0
25.12000 889.0
25.12500 949.0
25.13000 902.0
25.13500 948.0
25.14000 913.0
25.14500 921.0
25.15000 850.0
25.15500 867.0
25.16000 871.0
25.16500 876.0
25.17000 868.0
25.17500 862.0
25.18000 876.0
25.18500 834.0
25.19000 942.0
25.19500 825.0
25.20000 832.0
25.20500 815.0
25.21000 811.0
25.21500 815.0
25.22000 778.0
25.22500 844.0
25.23000 821.0
25.23500 776.0
25.24000 827.0
25.24500 761.0
25.25000 788.0
25.25500 796.0
25.26000 703.0
25.26500 751.0
25.27000 692.0
25.27500 672.0
25.28000 703.0
25.28500 660.0
25.29000 692.0
25.29500 739.0
25.30000 652.0
25.30500 655.0
25.31000 601.0
25.31500 563.0
25.32000 608.0
25.32500 616.0
25.33000 568.0
25.33500 570.0
25.34000 577.0
25.34500 548.0
25.35000 549.0
25.35500 523.0
25.36000 496.0
25.36500 477.0
25.37000 489.0
25.37500 508.0
25.38000 500.0
25.38500 435.0
25.39000 414.0
25.39500 473.0
25.40000 471.0
25.40500 448.0
25.41000 439.0
25.41500 394.0
25.42000 386.0
25.42500 408.0
25.43000 401.0
25.43500 417.0
25.44000 370.0
25.44500 374.0
25.45000 382.0
25.45500 399.0
25.46000 367.0
25.46500 347.0
25.47000 353.0
25.47500 345.0
25.48000 355.0
25.48500 333.0
25.49000 326.0
25.49500 315.0
25.50000 289.0
25.50500 325.0
25.51000 319.0
25.51500 305.0
25.52000 285.0
25.52500 307.0
25.53000 305.0
25.53500 273.0
25.54000 288.0
25.54500 250.0
25.55000 280.0
25.55500 234.0
25.56000 237.0
25.56500 265.0
25.57000 238.0
25.57500 229.0
25.58000 260.0
25.58500 225.0
25.59000 235.0
25.59500 231.0
25.60000 222.0
25.60500 215.0
25.61000 222.0
25.61500 216.0
25.62000 182.0
25.62500 199.0
25.63000 193.0
25.63500 180.0
25.64000 199.0
25.64500 201.0
25.65000 204.0
25.65500 161.0
25.66000 157.0
25.66500 162.0
25.67000 178.0
25.67500 171.0
25.68000 164.0
25.68500 161.0
25.69000 153.0
25.69500 173.0
25.70000 160.0
25.70500 130.0
25.71000 146.0
25.71500 190.0
25.72000 151.0
25.72500 141.0
25.73000 148.0
25.73500 145.0
25.74000 127.0
25.74500 106.0
25.75000 117.0
25.75500 135.0
25.76000 127.0
25.76500 148.0
25.77000 119.0
25.77500 125.0
25.78000 112.0
25.78500 127.0
25.79000 140.0
25.79500 114.0
25.80000 136.0
25.80500 111.0
25.81000 99.0
25.81500 114.0
25.82000 111.0
25.82500 120.0
25.83000 97.0
25.83500 113.0
25.84000 89.0
25.84500 87.0
25.85000 95.0
25.85500 112.0
25.86000 108.0
25.86500 87.0
25.87000 93.0
25.87500 93.0
25.88000 94.0
25.88500 96.0
25.89000 98.0
25.89500 103.0
25.90000 104.0
25.90500 86.0
25.91000 89.0
25.91500 80.0
25.92000 69.0
25.92500 77.0
25.93000 70.0
25.93500 89.0
25.94000 80.0
25.94500 82.0
25.95000 85.0
25.95500 81.0
25.96000 56.0
25.96500 66.0
25.97000 78.0
25.97500 69.0
25.98000 83.0
25.98500 60.0
25.99000 76.0
25.99500 77.0
26.00000 70.0
26.00500 70.0
26.01000 49.0
26.01500 68.0
26.02000 79.0
26.02500 77.0
26.03000 57.0
26.03500 60.0
26.04000 58.0
26.04500 58.0
26.05000 58.0
26.05500 55.0
26.06000 63.0
26.06500 68.0
26.07000 65.0
26.07500 62.0
26.08000 56.0
26.08500 51.0
26.09000 55.0
26.09500 45.0
26.10000 58.0
26.10500 41.0
26.11000 54.0
26.11500 54.0
26.12000 54.0
26.12500 45.0
26.13000 43.0
26.13500 50.0
26.14000 50.0
26.14500 59.0
26.15000 43.0
26.15500 52.0
26.16000 55.0
26.16500 38.0
26.17000 48.0
26.17500 49.0
26.18000 50.0
26.18500 65.0
26.19000 39.0
26.19500 57.0
26.20000 47.0
26.20500 39.0
26.21000 42.0
26.21500 37.0
26.22000 48.0
26.22500 42.0
26.23000 39.0
26.23500 45.0
26.24000 41.0
26.24500 46.0
26.25000 57.0
26.25500 45.0
26.26000 45.0
26.26500 36.0
26.27000 55.0
26.27500 33.0
26.28000 33.0
26.28500 54.0
26.29000 38.0
26.29500 46.0
26.30000 35.0
26.30500 31.0
26.31000 37.0
26.31500 39.0
26.32000 32.0
26.32500 45.0
26.33000 36.0
26.33500 31.0
26.34000 49.0
26.34500 42.0
26.35000 32.0
26.35500 42.0
26.36000 48.0
26.36500 31.0
26.37000 45.0
26.37500 46.0
26.38000 39.0
26.38500 53.0
26.39000 39.0
26.39500 47.0
26.40000 48.0
26.40500 42.0
26.41000 36.0
26.41500 48.0
26.42000 33.0
26.42500 41.0
26.43000 40.0
26.43500 46.0
26.44000 36.0
26.44500 30.0
26.45000 33.0
26.45500 35.0
26.46000 35.0
26.46500 37.0
26.47000 31.0
26.47500 30.0
26.48000 34.0
26.48500 42.0
26.49000 30.0
26.49500 32.0
26.50000 46.0
26.50500 34.0
26.51000 31.0
26.51500 35.0
26.52000 33.0
26.52500 29.0
26.53000 33.0
26.53500 31.0
26.54000 34.0
26.54500 42.0
26.55000 37.0
26.55500 29.0
26.56000 31.0
26.56500 34.0
26.57000 27.0
26.57500 34.0
26.58000 36.0
26.58500 28.0
26.59000 32.0
26.59500 25.0
26.60000 35.0
26.60500 34.0
26.61000 38.0
26.61500 30.0
26.62000 26.0
26.62500 25.0
26.63000 33.0
26.63500 32.0
26.64000 47.0
26.64500 36.0
26.65000 26.0
26.65500 43.0
26.66000 28.0
26.66500 34.0
26.67000 22.0
26.67500 33.0
26.68000 37.0
26.68500 33.0
26.69000 32.0
26.69500 27.0
26.70000 35.0
26.70500 35.0
26.71000 34.0
26.71500 34.0
26.72000 28.0
26.72500 40.0
26.73000 24.0
26.73500 29.0
26.74000 27.0
26.74500 28.0
26.75000 31.0
26.75500 34.0
26.76000 31.0
26.76500 21.0
26.77000 39.0
26.77500 22.0
26.78000 29.0
26.78500 41.0
26.79000 22.0
26.79500 28.0
26.80000 28.0
26.80500 26.0
26.81000 25.0
26.81500 35.0
26.82000 28.0
26.82500 36.0
26.83000 23.0
26.83500 42.0
26.84000 32.0
26.84500 33.0
26.85000 35.0
26.85500 31.0
26.86000 24.0
26.86500 28.0
26.87000 34.0
26.87500 38.0
26.88000 25.0
26.88500 30.0
26.89000 24.0
26.89500 40.0
26.90000 39.0