File: data/W6723/XRD_Phi/W6723_Al2O3_phi_360deg_25min_3mm_active_2.xy
-125.685 74.000
-125.435 60.000
-125.185 75.000
-124.935 53.000
-124.685 66.000
-124.435 68.000
-124.185 53.000
-123.935 62.000
-123.685 55.000
-123.435 70.000
-123.185 55.000
-122.935 64.000
-122.685 55.000
-122.435 70.000
-122.185 61.000
-121.935 71.000
-121.685 64.000
-121.435 60.000
-121.185 63.000
-120.935 60.000
-120.685 71.000
-120.435 79.000
-120.185 61.000
-119.935 69.000
-119.685 68.000
-119.435 47.000
-119.185 62.000
-118.935 63.000
-118.685 71.000
-118.435 76.000
-118.185 65.000
-117.935 70.000
-117.685 71.000
-117.435 64.000
-117.185 72.000
-116.935 71.000
-116.685 65.000
-116.435 72.000
-116.185 71.000
-115.935 67.000
-115.685 61.000
-115.435 57.000
-115.185 57.000
-114.935 50.000
-114.685 60.000
-114.435 66.000
-114.185 61.000
-113.935 65.000
-113.685 73.000
-113.435 55.000
-113.185 56.000
-112.935 63.000
-112.685 67.000
-112.435 55.000
-112.185 70.000
-111.935 47.000
-111.685 63.000
-111.435 56.000
-111.185 63.000
-110.935 75.000
-110.685 51.000
-110.435 64.000
-110.185 82.000
-109.935 58.000
-109.685 70.000
-109.435 59.000
-109.185 68.000
-108.935 63.000
-108.685 37.000
-108.435 67.000
-108.185 68.000
-107.935 70.000
-107.685 57.000
-107.435 78.000
-107.185 70.000
-106.935 59.000
-106.685 52.000
-106.435 59.000
-106.185 44.000
-105.935 55.000
-105.685 75.000
-105.435 53.000
-105.185 60.000
-104.935 66.000
-104.685 55.000
-104.435 69.000
-104.185 54.000
-103.935 53.000
-103.685 56.000
-103.435 55.000
-103.185 69.000
-102.935 50.000
-102.685 54.000
-102.435 71.000
-102.185 62.000
-101.935 54.000
-101.685 66.000
-101.435 63.000
-101.185 55.000
-100.935 60.000
-100.685 59.000
-100.435 55.000
-100.185 63.000
-99.93500 62.000
-99.68500 49.000
-99.43500 57.000
-99.18500 53.000
-98.93500 52.000
-98.68500 69.000
-98.43500 63.000
-98.18500 66.000
-97.93500 51.000
-97.68500 59.000
-97.43500 65.000
-97.18500 61.000
-96.93500 66.000
-96.68500 74.000
-96.43500 62.000
-96.18500 54.000
-95.93500 67.000
-95.68500 58.000
-95.43500 71.000
-95.18500 61.000
-94.93500 51.000
-94.68500 71.000
-94.43500 57.000
-94.18500 68.000
-93.93500 62.000
-93.68500 62.000
-93.43500 51.000
-93.18500 61.000
-92.93500 61.000
-92.68500 56.000
-92.43500 63.000
-92.18500 57.000
-91.93500 68.000
-91.68500 64.000
-91.43500 56.000
-91.18500 71.000
-90.93500 50.000
-90.68500 52.000
-90.43500 57.000
-90.18500 62.000
-89.93500 56.000
-89.68500 59.000
-89.43500 66.000
-89.18500 57.000
-88.93500 57.000
-88.68500 51.000
-88.43500 62.000
-88.18500 55.000
-87.93500 52.000
-87.68500 57.000
-87.43500 54.000
-87.18500 74.000
-86.93500 65.000
-86.68500 66.000
-86.43500 60.000
-86.18500 70.000
-85.93500 65.000
-85.68500 59.000
-85.43500 64.000
-85.18500 63.000
-84.93500 64.000
-84.68500 65.000
-84.43500 49.000
-84.18500 52.000
-83.93500 61.000
-83.68500 56.000
-83.43500 55.000
-83.18500 67.000
-82.93500 66.000
-82.68500 63.000
-82.43500 56.000
-82.18500 36.000
-81.93500 48.000
-81.68500 62.000
-81.43500 70.000
-81.18500 54.000
-80.93500 56.000
-80.68500 63.000
-80.43500 43.000
-80.18500 71.000
-79.93500 67.000
-79.68500 63.000
-79.43500 55.000
-79.18500 64.000
-78.93500 64.000
-78.68500 76.000
-78.43500 79.000
-78.18500 71.000
-77.93500 67.000
-77.68500 65.000
-77.43500 77.000
-77.18500 61.000
-76.93500 60.000
-76.68500 57.000
-76.43500 49.000
-76.18500 58.000
-75.93500 76.000
-75.68500 83.000
-75.43500 69.000
-75.18500 64.000
-74.93500 52.000
-74.68500 63.000
-74.43500 60.000
-74.18500 67.000
-73.93500 69.000
-73.68500 66.000
-73.43500 69.000
-73.18500 48.000
-72.93500 60.000
-72.68500 68.000
-72.43500 48.000
-72.18500 63.000
-71.93500 67.000
-71.68500 75.000
-71.43500 56.000
-71.18500 58.000
-70.93500 63.000
-70.68500 62.000
-70.43500 56.000
-70.18500 56.000
-69.93500 51.000
-69.68500 61.000
-69.43500 67.000
-69.18500 61.000
-68.93500 60.000
-68.68500 58.000
-68.43500 64.000
-68.18500 55.000
-67.93500 67.000
-67.68500 66.000
-67.43500 59.000
-67.18500 58.000
-66.93500 62.000
-66.68500 49.000
-66.43500 58.000
-66.18500 60.000
-65.93500 71.000
-65.68500 71.000
-65.43500 59.000
-65.18500 78.000
-64.93500 47.000
-64.68500 56.000
-64.43500 79.000
-64.18500 52.000
-63.93500 41.000
-63.68500 58.000
-63.43500 62.000
-63.18500 63.000
-62.93500 66.000
-62.68500 73.000
-62.43500 67.000
-62.18500 67.000
-61.93500 42.000
-61.68500 70.000
-61.43500 50.000
-61.18500 56.000
-60.93500 85.000
-60.68500 61.000
-60.43500 47.000
-60.18500 54.000
-59.93500 52.000
-59.68500 67.000
-59.43500 58.000
-59.18500 56.000
-58.93500 60.000
-58.68500 56.000
-58.43500 72.000
-58.18500 73.000
-57.93500 51.000
-57.68500 42.000
-57.43500 80.000
-57.18500 71.000
-56.93500 55.000
-56.68500 68.000
-56.43500 63.000
-56.18500 57.000
-55.93500 63.000
-55.68500 68.000
-55.43500 67.000
-55.18500 64.000
-54.93500 52.000
-54.68500 79.000
-54.43500 59.000
-54.18500 59.000
-53.93500 74.000
-53.68500 80.000
-53.43500 82.000
-53.18500 74.000
-52.93500 325.000
-52.68500 1895.000
-52.43500 91.000
-52.18500 91.000
-51.93500 77.000
-51.68500 86.000
-51.43500 84.000
-51.18500 81.000
-50.93500 64.000
-50.68500 60.000
-50.43500 68.000
-50.18500 59.000
-49.93500 57.000
-49.68500 58.000
-49.43500 79.000
-49.18500 82.000
-48.93500 75.000
-48.68500 66.000
-48.43500 70.000
-48.18500 70.000
-47.93500 63.000
-47.68500 72.000
-47.43500 60.000
-47.18500 69.000
-46.93500 71.000
-46.68500 68.000
-46.43500 73.000
-46.18500 59.000
-45.93500 51.000
-45.68500 52.000
-45.43500 71.000
-45.18500 57.000
-44.93500 57.000
-44.68500 61.000
-44.43500 71.000
-44.18500 53.000
-43.93500 49.000
-43.68500 54.000
-43.43500 60.000
-43.18500 65.000
-42.93500 64.000
-42.68500 51.000
-42.43500 59.000
-42.18500 58.000
-41.93500 69.000
-41.68500 57.000
-41.43500 60.000
-41.18500 71.000
-40.93500 59.000
-40.68500 51.000
-40.43500 86.000
-40.18500 62.000
-39.93500 65.000
-39.68500 61.000
-39.43500 70.000
-39.18500 68.000
-38.93500 74.000
-38.68500 65.000
-38.43500 66.000
-38.18500 61.000
-37.93500 58.000
-37.68500 64.000
-37.43500 55.000
-37.18500 76.000
-36.93500 59.000
-36.68500 55.000
-36.43500 60.000
-36.18500 66.000
-35.93500 62.000
-35.68500 56.000
-35.43500 60.000
-35.18500 70.000
-34.93500 56.000
-34.68500 62.000
-34.43500 60.000
-34.18500 63.000
-33.93500 70.000
-33.68500 65.000
-33.43500 63.000
-33.18500 68.000
-32.93500 59.000
-32.68500 59.000
-32.43500 71.000
-32.18500 40.000
-31.93500 70.000
-31.68500 69.000
-31.43500 64.000
-31.18500 46.000
-30.93500 65.000
-30.68500 63.000
-30.43500 58.000
-30.18500 55.000
-29.93500 68.000
-29.68500 61.000
-29.43500 70.000
-29.18500 61.000
-28.93500 57.000
-28.68500 60.000
-28.43500 42.000
-28.18500 55.000
-27.93500 73.000
-27.68500 52.000
-27.43500 61.000
-27.18500 69.000
-26.93500 68.000
-26.68500 58.000
-26.43500 69.000
-26.18500 57.000
-25.93500 68.000
-25.68500 66.000
-25.43500 53.000
-25.18500 56.000
-24.93500 71.000
-24.68500 80.000
-24.43500 73.000
-24.18500 62.000
-23.93500 65.000
-23.68500 71.000
-23.43500 68.000
-23.18500 78.000
-22.93500 67.000
-22.68500 64.000
-22.43500 69.000
-22.18500 72.000
-21.93500 50.000
-21.68500 69.000
-21.43500 70.000
-21.18500 81.000
-20.93500 59.000
-20.68500 55.000
-20.43500 63.000
-20.18500 52.000
-19.93500 65.000
-19.68500 77.000
-19.43500 63.000
-19.18500 65.000
-18.93500 60.000
-18.68500 68.000
-18.43500 42.000
-18.18500 66.000
-17.93500 72.000
-17.68500 63.000
-17.43500 60.000
-17.18500 51.000
-16.93500 61.000
-16.68500 75.000
-16.43500 76.000
-16.18500 76.000
-15.93500 73.000
-15.68500 51.000
-15.43500 62.000
-15.18500 63.000
-14.93500 64.000
-14.68500 69.000
-14.43500 77.000
-14.18500 60.000
-13.93500 69.000
-13.68500 61.000
-13.43500 62.000
-13.18500 65.000
-12.93500 65.000
-12.68500 70.000
-12.43500 74.000
-12.18500 65.000
-11.93500 61.000
-11.68500 62.000
-11.43500 73.000
-11.18500 65.000
-10.93500 57.000
-10.68500 73.000
-10.43500 58.000
-10.18500 56.000
-9.93500 67.000
-9.68500 68.000
-9.43500 59.000
-9.18500 75.000
-8.93500 59.000
-8.68500 56.000
-8.43500 57.000
-8.18500 67.000
-7.93500 62.000
-7.68500 56.000
-7.43500 68.000
-7.18500 80.000
-6.93500 57.000
-6.68500 56.000
-6.43500 67.000
-6.18500 78.000
-5.93500 59.000
-5.68500 77.000
-5.43500 62.000
-5.18500 40.000
-4.93500 61.000
-4.68500 52.000
-4.43500 60.000
-4.18500 64.000
-3.93500 61.000
-3.68500 51.000
-3.43500 63.000
-3.18500 63.000
-2.93500 58.000
-2.68500 46.000
-2.43500 60.000
-2.18500 38.000
-1.93500 46.000
-1.68500 61.000
-1.43500 42.000
-1.18500 51.000
-0.93500 51.000
-0.68500 44.000
-0.43500 67.000
-0.18500 48.000
0.06500 45.000
0.31500 55.000
0.56500 47.000
0.81500 45.000
1.06500 43.000
1.31500 43.000
1.56500 54.000
1.81500 57.000
2.06500 47.000
2.31500 30.000
2.56500 37.000
2.81500 36.000
3.06500 46.000
3.31500 37.000
3.56500 40.000
3.81500 51.000
4.06500 44.000
4.31500 46.000
4.56500 42.000
4.81500 44.000
5.06500 43.000
5.31500 39.000
5.56500 35.000
5.81500 48.000
6.06500 38.000
6.31500 46.000
6.56500 52.000
6.81500 38.000
7.06500 30.000
7.31500 26.000
7.56500 27.000
7.81500 38.000
8.06500 36.000
8.31500 32.000
8.56500 33.000
8.81500 28.000
9.06500 25.000
9.31500 38.000
9.56500 35.000
9.81500 24.000
10.06500 35.000
10.31500 39.000
10.56500 32.000
10.81500 33.000
11.06500 24.000
11.31500 29.000
11.56500 22.000
11.81500 36.000
12.06500 36.000
12.31500 35.000
12.56500 22.000
12.81500 29.000
13.06500 22.000
13.31500 28.000
13.56500 15.000
13.81500 26.000
14.06500 26.000
14.31500 20.000
14.56500 24.000
14.81500 23.000
15.06500 29.000
15.31500 26.000
15.56500 25.000
15.81500 37.000
16.06500 28.000
16.31500 27.000
16.56500 30.000
16.81500 33.000
17.06500 20.000
17.31500 31.000
17.56500 21.000
17.81500 19.000
18.06500 22.000
18.31500 36.000
18.56500 24.000
18.81500 34.000
19.06500 23.000
19.31500 32.000
19.56500 34.000
19.81500 38.000
20.06500 30.000
20.31500 28.000
20.56500 37.000
20.81500 28.000
21.06500 48.000
21.31500 27.000
21.56500 26.000
21.81500 39.000
22.06500 34.000
22.31500 34.000
22.56500 39.000
22.81500 28.000
23.06500 35.000
23.31500 39.000
23.56500 37.000
23.81500 41.000
24.06500 38.000
24.31500 26.000
24.56500 36.000
24.81500 28.000
25.06500 36.000
25.31500 30.000
25.56500 42.000
25.81500 49.000
26.06500 50.000
26.31500 41.000
26.56500 43.000
26.81500 36.000
27.06500 32.000
27.31500 48.000
27.56500 49.000
27.81500 56.000
28.06500 44.000
28.31500 44.000
28.56500 49.000
28.81500 34.000
29.06500 40.000
29.31500 55.000
29.56500 39.000
29.81500 35.000
30.06500 51.000
30.31500 50.000
30.56500 58.000
30.81500 46.000
31.06500 36.000
31.31500 41.000
31.56500 41.000
31.81500 54.000
32.06500 48.000
32.31500 59.000
32.56500 60.000
32.81500 58.000
33.06500 62.000
33.31500 65.000
33.56500 54.000
33.81500 47.000
34.06500 50.000
34.31500 44.000
34.56500 62.000
34.81500 73.000
35.06500 61.000
35.31500 71.000
35.56500 65.000
35.81500 65.000
36.06500 60.000
36.31500 82.000
36.56500 76.000
36.81500 62.000
37.06500 53.000
37.31500 56.000
37.56500 65.000
37.81500 71.000
38.06500 56.000
38.31500 53.000
38.56500 60.000
38.81500 52.000
39.06500 59.000
39.31500 64.000
39.56500 53.000
39.81500 58.000
40.06500 66.000
40.31500 68.000
40.56500 67.000
40.81500 55.000
41.06500 59.000
41.31500 71.000
41.56500 64.000
41.81500 72.000
42.06500 44.000
42.31500 69.000
42.56500 67.000
42.81500 62.000
43.06500 58.000
43.31500 75.000
43.56500 67.000
43.81500 64.000
44.06500 71.000
44.31500 70.000
44.56500 73.000
44.81500 61.000
45.06500 60.000
45.31500 74.000
45.56500 68.000
45.81500 48.000
46.06500 69.000
46.31500 63.000
46.56500 56.000
46.81500 64.000
47.06500 54.000
47.31500 62.000
47.56500 66.000
47.81500 63.000
48.06500 61.000
48.31500 56.000
48.56500 62.000
48.81500 63.000
49.06500 66.000
49.31500 65.000
49.56500 50.000
49.81500 58.000
50.06500 56.000
50.31500 67.000
50.56500 54.000
50.81500 76.000
51.06500 61.000
51.31500 62.000
51.56500 60.000
51.81500 72.000
52.06500 73.000
52.31500 53.000
52.56500 72.000
52.81500 72.000
53.06500 73.000
53.31500 68.000
53.56500 85.000
53.81500 71.000
54.06500 76.000
54.31500 91.000
54.56500 1296.000
54.81500 383.000
55.06500 98.000
55.31500 90.000
55.56500 96.000
55.81500 74.000
56.06500 88.000
56.31500 64.000
56.56500 67.000
56.81500 69.000
57.06500 66.000
57.31500 69.000
57.56500 73.000
57.81500 61.000
58.06500 49.000
58.31500 56.000
58.56500 74.000
58.81500 57.000
59.06500 73.000
59.31500 68.000
59.56500 61.000
59.81500 50.000
60.06500 55.000
60.31500 63.000
60.56500 68.000
60.81500 58.000
61.06500 51.000
61.31500 62.000
61.56500 65.000
61.81500 57.000
62.06500 65.000
62.31500 61.000
62.56500 62.000
62.81500 58.000
63.06500 58.000
63.31500 74.000
63.56500 63.000
63.81500 55.000
64.06500 77.000
64.31500 52.000
64.56500 54.000
64.81500 65.000
65.06500 71.000
65.31500 63.000
65.56500 63.000
65.81500 65.000
66.06500 44.000
66.31500 63.000
66.56500 53.000
66.81500 55.000
67.06500 59.000
67.31500 64.000
67.56500 62.000
67.81500 70.000
68.06500 58.000
68.31500 62.000
68.56500 57.000
68.81500 58.000
69.06500 66.000
69.31500 69.000
69.56500 51.000
69.81500 58.000
70.06500 70.000
70.31500 62.000
70.56500 47.000
70.81500 51.000
71.06500 63.000
71.31500 57.000
71.56500 69.000
71.81500 70.000
72.06500 51.000
72.31500 64.000
72.56500 60.000
72.81500 53.000
73.06500 63.000
73.31500 70.000
73.56500 60.000
73.81500 57.000
74.06500 69.000
74.31500 59.000
74.56500 64.000
74.81500 67.000
75.06500 67.000
75.31500 61.000
75.56500 69.000
75.81500 56.000
76.06500 64.000
76.31500 55.000
76.56500 51.000
76.81500 52.000
77.06500 70.000
77.31500 63.000
77.56500 62.000
77.81500 58.000
78.06500 52.000
78.31500 62.000
78.56500 77.000
78.81500 57.000
79.06500 57.000
79.31500 54.000
79.56500 61.000
79.81500 68.000
80.06500 50.000
80.31500 63.000
80.56500 48.000
80.81500 65.000
81.06500 58.000
81.31500 50.000
81.56500 70.000
81.81500 63.000
82.06500 64.000
82.31500 43.000
82.56500 50.000
82.81500 59.000
83.06500 59.000
83.31500 64.000
83.56500 53.000
83.81500 75.000
84.06500 56.000
84.31500 60.000
84.56500 58.000
84.81500 59.000
85.06500 61.000
85.31500 49.000
85.56500 59.000
85.81500 45.000
86.06500 56.000
86.31500 49.000
86.56500 60.000
86.81500 55.000
87.06500 59.000
87.31500 55.000
87.56500 57.000
87.81500 58.000
88.06500 75.000
88.31500 61.000
88.56500 56.000
88.81500 64.000
89.06500 57.000
89.31500 60.000
89.56500 61.000
89.81500 67.000
90.06500 59.000
90.31500 55.000
90.56500 71.000
90.81500 58.000
91.06500 54.000
91.31500 56.000
91.56500 68.000
91.81500 62.000
92.06500 76.000
92.31500 73.000
92.56500 75.000
92.81500 67.000
93.06500 55.000
93.31500 54.000
93.56500 65.000
93.81500 54.000
94.06500 61.000
94.31500 63.000
94.56500 71.000
94.81500 61.000
95.06500 50.000
95.31500 53.000
95.56500 51.000
95.81500 53.000
96.06500 60.000
96.31500 51.000
96.56500 68.000
96.81500 70.000
97.06500 51.000
97.31500 66.000
97.56500 73.000
97.81500 53.000
98.06500 60.000
98.31500 56.000
98.56500 64.000
98.81500 60.000
99.06500 57.000
99.31500 47.000
99.56500 71.000
99.81500 57.000
100.065 67.000
100.315 53.000
100.565 68.000
100.815 69.000
101.065 61.000
101.315 58.000
101.565 69.000
101.815 57.000
102.065 62.000
102.315 62.000
102.565 56.000
102.815 66.000
103.065 67.000
103.315 56.000
103.565 64.000
103.815 57.000
104.065 51.000
104.315 57.000
104.565 68.000
104.815 61.000
105.065 58.000
105.315 55.000
105.565 46.000
105.815 64.000
106.065 52.000
106.315 75.000
106.565 59.000
106.815 68.000
107.065 58.000
107.315 61.000
107.565 61.000
107.815 60.000
108.065 58.000
108.315 60.000
108.565 68.000
108.815 68.000
109.065 56.000
109.315 54.000
109.565 58.000
109.815 62.000
110.065 52.000
110.315 64.000
110.565 62.000
110.815 56.000
111.065 58.000
111.315 79.000
111.565 68.000
111.815 65.000
112.065 61.000
112.315 59.000
112.565 52.000
112.815 52.000
113.065 64.000
113.315 49.000
113.565 57.000
113.815 60.000
114.065 60.000
114.315 56.000
114.565 72.000
114.815 64.000
115.065 61.000
115.315 67.000
115.565 62.000
115.815 59.000
116.065 69.000
116.315 64.000
116.565 61.000
116.815 71.000
117.065 58.000
117.315 69.000
117.565 75.000
117.815 68.000
118.065 59.000
118.315 54.000
118.565 57.000
118.815 68.000
119.065 75.000
119.315 67.000
119.565 55.000
119.815 36.000
120.065 61.000
120.315 77.000
120.565 51.000
120.815 71.000
121.065 70.000
121.315 64.000
121.565 63.000
121.815 64.000
122.065 63.000
122.315 75.000
122.565 63.000
122.815 59.000
123.065 53.000
123.315 64.000
123.565 53.000
123.815 57.000
124.065 58.000
124.315 62.000
124.565 57.000
124.815 65.000
125.065 72.000
125.315 60.000
125.565 58.000
125.815 70.000
126.065 60.000
126.315 64.000
126.565 53.000
126.815 57.000
127.065 60.000
127.315 63.000
127.565 74.000
127.815 64.000
128.065 54.000
128.315 66.000
128.565 67.000
128.815 57.000
129.065 54.000
129.315 68.000
129.565 57.000
129.815 51.000
130.065 55.000
130.315 63.000
130.565 59.000
130.815 65.000
131.065 57.000
131.315 65.000
131.565 59.000
131.815 55.000
132.065 50.000
132.315 68.000
132.565 47.000
132.815 50.000
133.065 42.000
133.315 64.000
133.565 66.000
133.815 62.000
134.065 71.000
134.315 58.000
134.565 62.000
134.815 46.000
135.065 58.000
135.315 53.000
135.565 54.000
135.815 56.000
136.065 69.000
136.315 52.000
136.565 57.000
136.815 55.000
137.065 61.000
137.315 60.000
137.565 58.000
137.815 63.000
138.065 56.000
138.315 61.000
138.565 67.000
138.815 65.000
139.065 58.000
139.315 57.000
139.565 71.000
139.815 67.000
140.065 54.000
140.315 57.000
140.565 52.000
140.815 52.000
141.065 52.000
141.315 51.000
141.565 80.000
141.815 49.000
142.065 63.000
142.315 56.000
142.565 56.000
142.815 63.000
143.065 61.000
143.315 72.000
143.565 70.000
143.815 76.000
144.065 69.000
144.315 73.000
144.565 75.000
144.815 64.000
145.065 72.000
145.315 70.000
145.565 61.000
145.815 43.000
146.065 58.000
146.315 66.000
146.565 58.000
146.815 55.000
147.065 61.000
147.315 62.000
147.565 54.000
147.815 70.000
148.065 51.000
148.315 65.000
148.565 76.000
148.815 57.000
149.065 64.000
149.315 57.000
149.565 56.000
149.815 58.000
150.065 43.000
150.315 61.000
150.565 48.000
150.815 54.000
151.065 56.000
151.315 61.000
151.565 65.000
151.815 62.000
152.065 58.000
152.315 51.000
152.565 75.000
152.815 61.000
153.065 72.000
153.315 58.000
153.565 54.000
153.815 58.000
154.065 60.000
154.315 64.000
154.565 51.000
154.815 54.000
155.065 40.000
155.315 71.000
155.565 79.000
155.815 64.000
156.065 57.000
156.315 74.000
156.565 62.000
156.815 49.000
157.065 53.000
157.315 63.000
157.565 51.000
157.815 58.000
158.065 51.000
158.315 64.000
158.565 71.000
158.815 54.000
159.065 57.000
159.315 75.000
159.565 58.000
159.815 53.000
160.065 56.000
160.315 44.000
160.565 48.000
160.815 63.000
161.065 58.000
161.315 66.000
161.565 60.000
161.815 55.000
162.065 57.000
162.315 69.000
162.565 54.000
162.815 88.000
163.065 47.000
163.315 70.000
163.565 59.000
163.815 63.000
164.065 61.000
164.315 81.000
164.565 54.000
164.815 58.000
165.065 55.000
165.315 65.000
165.565 67.000
165.815 60.000
166.065 63.000
166.315 58.000
166.565 61.000
166.815 58.000
167.065 56.000
167.315 76.000
167.565 66.000
167.815 73.000
168.065 65.000
168.315 63.000
168.565 58.000
168.815 56.000
169.065 63.000
169.315 53.000
169.565 57.000
169.815 57.000
170.065 54.000
170.315 52.000
170.565 70.000
170.815 54.000
171.065 55.000
171.315 59.000
171.565 67.000
171.815 52.000
172.065 47.000
172.315 56.000
172.565 76.000
172.815 60.000
173.065 64.000
173.315 71.000
173.565 53.000
173.815 53.000
174.065 64.000
174.315 63.000
174.565 48.000
174.815 63.000
175.065 53.000
175.315 45.000
175.565 50.000
175.815 63.000
176.065 47.000
176.315 55.000
176.565 56.000
176.815 54.000
177.065 45.000
177.315 48.000
177.565 47.000
177.815 44.000
178.065 55.000
178.315 46.000
178.565 55.000
178.815 48.000
179.065 41.000
179.315 52.000
179.565 46.000
179.815 43.000
180.065 40.000
180.315 51.000
180.565 56.000
180.815 50.000
181.065 50.000
181.315 45.000
181.565 38.000
181.815 39.000
182.065 44.000
182.315 40.000
182.565 50.000
182.815 41.000
183.065 43.000
183.315 52.000
183.565 50.000
183.815 33.000
184.065 36.000
184.315 39.000
184.565 28.000
184.815 38.000
185.065 38.000
185.315 32.000
185.565 40.000
185.815 33.000
186.065 41.000
186.315 32.000
186.565 33.000
186.815 38.000
187.065 48.000
187.315 37.000
187.565 28.000
187.815 27.000
188.065 40.000
188.315 25.000
188.565 36.000
188.815 20.000
189.065 32.000
189.315 31.000
189.565 28.000
189.815 25.000
190.065 36.000
190.315 28.000
190.565 33.000
190.815 38.000
191.065 27.000
191.315 26.000
191.565 18.000
191.815 33.000
192.065 30.000
192.315 20.000
192.565 17.000
192.815 38.000
193.065 26.000
193.315 27.000
193.565 34.000
193.815 28.000
194.065 31.000
194.315 28.000
194.565 24.000
194.815 37.000
195.065 31.000
195.315 27.000
195.565 28.000
195.815 31.000
196.065 30.000
196.315 25.000
196.565 40.000
196.815 27.000
197.065 32.000
197.315 28.000
197.565 32.000
197.815 21.000
198.065 27.000
198.315 25.000
198.565 21.000
198.815 37.000
199.065 40.000
199.315 28.000
199.565 37.000
199.815 32.000
200.065 30.000
200.315 37.000
200.565 28.000
200.815 30.000
201.065 30.000
201.315 38.000
201.565 42.000
201.815 32.000
202.065 43.000
202.315 32.000
202.565 44.000
202.815 37.000
203.065 42.000
203.315 34.000
203.565 42.000
203.815 45.000
204.065 33.000
204.315 32.000
204.565 39.000
204.815 45.000
205.065 34.000
205.315 39.000
205.565 33.000
205.815 46.000
206.065 36.000
206.315 29.000
206.565 46.000
206.815 39.000
207.065 45.000
207.315 43.000
207.565 50.000
207.815 55.000
208.065 48.000
208.315 41.000
208.565 47.000
208.815 44.000
209.065 33.000
209.315 46.000
209.565 54.000
209.815 40.000
210.065 44.000
210.315 43.000
210.565 40.000
210.815 52.000
211.065 51.000
211.315 47.000
211.565 59.000
211.815 47.000
212.065 53.000
212.315 59.000
212.565 54.000
212.815 40.000
213.065 46.000
213.315 66.000
213.565 58.000
213.815 67.000
214.065 58.000
214.315 61.000
214.565 64.000
214.815 67.000
215.065 61.000
215.315 60.000
215.565 41.000
215.815 68.000
216.065 71.000
216.315 65.000
216.565 52.000
216.815 63.000
217.065 48.000
217.315 55.000
217.565 61.000
217.815 55.000
218.065 69.000
218.315 68.000
218.565 58.000
218.815 64.000
219.065 61.000
219.315 65.000
219.565 71.000
219.815 75.000
220.065 56.000
220.315 58.000
220.565 80.000
220.815 52.000
221.065 61.000
221.315 58.000
221.565 78.000
221.815 64.000
222.065 75.000
222.315 59.000
222.565 56.000
222.815 67.000
223.065 69.000
223.315 43.000
223.565 77.000
223.815 76.000
224.065 64.000
224.315 54.000
224.565 64.000
224.815 72.000
225.065 57.000
225.315 60.000
225.565 67.000
225.815 80.000
226.065 65.000
226.315 71.000
226.565 44.000
226.815 75.000
227.065 73.000
227.315 45.000
227.565 58.000
227.815 45.000
228.065 74.000
228.315 54.000
228.565 66.000
228.815 63.000
229.065 53.000
229.315 61.000
229.565 83.000
229.815 66.000
230.065 67.000
230.315 68.000
230.565 51.000
230.815 69.000
231.065 70.000
231.315 66.000
231.565 57.000
231.815 61.000
232.065 77.000
232.315 55.000
232.565 67.000
232.815 52.000
233.065 67.000
233.315 62.000
233.565 57.000
233.815 63.000
234.065 60.000
234.215 52.000