File: data/W6816c1/XRD_Omega/scan_omega_4deg_step_0.005deg0_C3.xy
17.61730 31.0
17.62230 43.0
17.62730 27.0
17.63230 37.0
17.63730 52.0
17.64230 40.0
17.64730 24.0
17.65230 33.0
17.65730 32.0
17.66230 25.0
17.66730 34.0
17.67230 38.0
17.67730 39.0
17.68230 35.0
17.68730 41.0
17.69230 46.0
17.69730 34.0
17.70230 26.0
17.70730 35.0
17.71230 26.0
17.71730 33.0
17.72230 25.0
17.72730 29.0
17.73230 35.0
17.73730 28.0
17.74230 41.0
17.74730 30.0
17.75230 34.0
17.75730 33.0
17.76230 40.0
17.76730 28.0
17.77230 26.0
17.77730 36.0
17.78230 38.0
17.78730 36.0
17.79230 40.0
17.79730 28.0
17.80230 36.0
17.80730 37.0
17.81230 42.0
17.81730 51.0
17.82230 27.0
17.82730 36.0
17.83230 33.0
17.83730 48.0
17.84230 27.0
17.84730 31.0
17.85230 38.0
17.85730 29.0
17.86230 28.0
17.86730 29.0
17.87230 33.0
17.87730 32.0
17.88230 38.0
17.88730 37.0
17.89230 32.0
17.89730 45.0
17.90230 30.0
17.90730 47.0
17.91230 28.0
17.91730 32.0
17.92230 36.0
17.92730 36.0
17.93230 24.0
17.93730 37.0
17.94230 30.0
17.94730 38.0
17.95230 27.0
17.95730 42.0
17.96230 40.0
17.96730 37.0
17.97230 34.0
17.97730 33.0
17.98230 33.0
17.98730 24.0
17.99230 41.0
17.99730 28.0
18.00230 34.0
18.00730 37.0
18.01230 37.0
18.01730 33.0
18.02230 23.0
18.02730 33.0
18.03230 34.0
18.03730 41.0
18.04230 45.0
18.04730 34.0
18.05230 36.0
18.05730 34.0
18.06230 45.0
18.06730 23.0
18.07230 37.0
18.07730 24.0
18.08230 29.0
18.08730 34.0
18.09230 32.0
18.09730 33.0
18.10230 34.0
18.10730 30.0
18.11230 38.0
18.11730 31.0
18.12230 34.0
18.12730 38.0
18.13230 42.0
18.13730 29.0
18.14230 32.0
18.14730 38.0
18.15230 32.0
18.15730 27.0
18.16230 49.0
18.16730 36.0
18.17230 29.0
18.17730 33.0
18.18230 30.0
18.18730 23.0
18.19230 36.0
18.19730 42.0
18.20230 29.0
18.20730 39.0
18.21230 32.0
18.21730 35.0
18.22230 23.0
18.22730 42.0
18.23230 32.0
18.23730 40.0
18.24230 33.0
18.24730 33.0
18.25230 29.0
18.25730 32.0
18.26230 32.0
18.26730 28.0
18.27230 27.0
18.27730 36.0
18.28230 38.0
18.28730 35.0
18.29230 33.0
18.29730 21.0
18.30230 42.0
18.30730 33.0
18.31230 38.0
18.31730 30.0
18.32230 30.0
18.32730 38.0
18.33230 30.0
18.33730 39.0
18.34230 41.0
18.34730 27.0
18.35230 33.0
18.35730 38.0
18.36230 33.0
18.36730 31.0
18.37230 38.0
18.37730 35.0
18.38230 31.0
18.38730 33.0
18.39230 32.0
18.39730 34.0
18.40230 30.0
18.40730 29.0
18.41230 34.0
18.41730 29.0
18.42230 40.0
18.42730 31.0
18.43230 32.0
18.43730 33.0
18.44230 28.0
18.44730 29.0
18.45230 44.0
18.45730 31.0
18.46230 46.0
18.46730 39.0
18.47230 32.0
18.47730 31.0
18.48230 34.0
18.48730 31.0
18.49230 39.0
18.49730 33.0
18.50230 33.0
18.50730 34.0
18.51230 39.0
18.51730 45.0
18.52230 43.0
18.52730 33.0
18.53230 42.0
18.53730 28.0
18.54230 47.0
18.54730 31.0
18.55230 37.0
18.55730 48.0
18.56230 32.0
18.56730 33.0
18.57230 30.0
18.57730 32.0
18.58230 38.0
18.58730 30.0
18.59230 37.0
18.59730 28.0
18.60230 29.0
18.60730 43.0
18.61230 37.0
18.61730 39.0
18.62230 55.0
18.62730 32.0
18.63230 33.0
18.63730 42.0
18.64230 41.0
18.64730 30.0
18.65230 32.0
18.65730 55.0
18.66230 48.0
18.66730 43.0
18.67230 38.0
18.67730 34.0
18.68230 38.0
18.68730 42.0
18.69230 42.0
18.69730 40.0
18.70230 34.0
18.70730 48.0
18.71230 42.0
18.71730 42.0
18.72230 31.0
18.72730 32.0
18.73230 40.0
18.73730 34.0
18.74230 40.0
18.74730 38.0
18.75230 38.0
18.75730 40.0
18.76230 31.0
18.76730 39.0
18.77230 39.0
18.77730 38.0
18.78230 44.0
18.78730 42.0
18.79230 46.0
18.79730 52.0
18.80230 35.0
18.80730 41.0
18.81230 42.0
18.81730 41.0
18.82230 35.0
18.82730 40.0
18.83230 48.0
18.83730 41.0
18.84230 43.0
18.84730 33.0
18.85230 35.0
18.85730 38.0
18.86230 46.0
18.86730 53.0
18.87230 35.0
18.87730 51.0
18.88230 47.0
18.88730 30.0
18.89230 55.0
18.89730 51.0
18.90230 39.0
18.90730 39.0
18.91230 31.0
18.91730 40.0
18.92230 37.0
18.92730 52.0
18.93230 51.0
18.93730 61.0
18.94230 42.0
18.94730 37.0
18.95230 52.0
18.95730 45.0
18.96230 46.0
18.96730 55.0
18.97230 40.0
18.97730 48.0
18.98230 51.0
18.98730 53.0
18.99230 45.0
18.99730 49.0
19.00230 54.0
19.00730 36.0
19.01230 59.0
19.01730 43.0
19.02230 52.0
19.02730 51.0
19.03230 39.0
19.03730 52.0
19.04230 65.0
19.04730 60.0
19.05230 45.0
19.05730 62.0
19.06230 61.0
19.06730 50.0
19.07230 63.0
19.07730 59.0
19.08230 57.0
19.08730 46.0
19.09230 51.0
19.09730 67.0
19.10230 57.0
19.10730 72.0
19.11230 55.0
19.11730 60.0
19.12230 63.0
19.12730 64.0
19.13230 46.0
19.13730 52.0
19.14230 70.0
19.14730 72.0
19.15230 70.0
19.15730 69.0
19.16230 59.0
19.16730 61.0
19.17230 66.0
19.17730 65.0
19.18230 70.0
19.18730 76.0
19.19230 80.0
19.19730 66.0
19.20230 74.0
19.20730 66.0
19.21230 77.0
19.21730 75.0
19.22230 77.0
19.22730 87.0
19.23230 82.0
19.23730 87.0
19.24230 102.0
19.24730 89.0
19.25230 101.0
19.25730 77.0
19.26230 79.0
19.26730 95.0
19.27230 87.0
19.27730 93.0
19.28230 95.0
19.28730 99.0
19.29230 107.0
19.29730 110.0
19.30230 110.0
19.30730 101.0
19.31230 119.0
19.31730 104.0
19.32230 131.0
19.32730 100.0
19.33230 129.0
19.33730 144.0
19.34230 145.0
19.34730 177.0
19.35230 177.0
19.35730 151.0
19.36230 161.0
19.36730 188.0
19.37230 171.0
19.37730 188.0
19.38230 188.0
19.38730 207.0
19.39230 209.0
19.39730 203.0
19.40230 209.0
19.40730 215.0
19.41230 209.0
19.41730 260.0
19.42230 250.0
19.42730 294.0
19.43230 294.0
19.43730 314.0
19.44230 320.0
19.44730 343.0
19.45230 380.0
19.45730 402.0
19.46230 449.0
19.46730 518.0
19.47230 582.0
19.47730 588.0
19.48230 642.0
19.48730 702.0
19.49230 699.0
19.49730 694.0
19.50230 808.0
19.50730 821.0
19.51230 870.0
19.51730 875.0
19.52230 962.0
19.52730 1022.0
19.53230 1095.0
19.53730 1137.0
19.54230 1263.0
19.54730 1205.0
19.55230 1285.0
19.55730 1392.0
19.56230 1367.0
19.56730 1376.0
19.57230 1339.0
19.57730 1470.0
19.58230 1434.0
19.58730 1514.0
19.59230 1562.0
19.59730 1567.0
19.60230 1571.0
19.60730 1549.0
19.61230 1520.0
19.61730 1499.0
19.62230 1553.0
19.62730 1497.0
19.63230 1412.0
19.63730 1398.0
19.64230 1424.0
19.64730 1313.0
19.65230 1232.0
19.65730 1198.0
19.66230 1141.0
19.66730 1140.0
19.67230 998.0
19.67730 980.0
19.68230 976.0
19.68730 891.0
19.69230 848.0
19.69730 853.0
19.70230 744.0
19.70730 695.0
19.71230 669.0
19.71730 634.0
19.72230 632.0
19.72730 596.0
19.73230 508.0
19.73730 470.0
19.74230 429.0
19.74730 438.0
19.75230 358.0
19.75730 372.0
19.76230 356.0
19.76730 334.0
19.77230 317.0
19.77730 326.0
19.78230 296.0
19.78730 243.0
19.79230 276.0
19.79730 273.0
19.80230 253.0
19.80730 228.0
19.81230 231.0
19.81730 214.0
19.82230 222.0
19.82730 207.0
19.83230 163.0
19.83730 162.0
19.84230 181.0
19.84730 158.0
19.85230 135.0
19.85730 147.0
19.86230 130.0
19.86730 154.0
19.87230 123.0
19.87730 127.0
19.88230 122.0
19.88730 129.0
19.89230 133.0
19.89730 122.0
19.90230 107.0
19.90730 107.0
19.91230 91.0
19.91730 90.0
19.92230 94.0
19.92730 108.0
19.93230 87.0
19.93730 89.0
19.94230 81.0
19.94730 77.0
19.95230 97.0
19.95730 81.0
19.96230 81.0
19.96730 57.0
19.97230 59.0
19.97730 80.0
19.98230 72.0
19.98730 67.0
19.99230 79.0
19.99730 73.0
20.00230 60.0
20.00730 67.0
20.01230 66.0
20.01730 87.0
20.02230 52.0
20.02730 45.0
20.03230 68.0
20.03730 54.0
20.04230 48.0
20.04730 55.0
20.05230 68.0
20.05730 65.0
20.06230 31.0
20.06730 68.0
20.07230 61.0
20.07730 50.0
20.08230 59.0
20.08730 45.0
20.09230 49.0
20.09730 44.0
20.10230 55.0
20.10730 52.0
20.11230 54.0
20.11730 52.0
20.12230 51.0
20.12730 45.0
20.13230 45.0
20.13730 41.0
20.14230 49.0
20.14730 45.0
20.15230 43.0
20.15730 74.0
20.16230 50.0
20.16730 35.0
20.17230 47.0
20.17730 48.0
20.18230 28.0
20.18730 50.0
20.19230 48.0
20.19730 40.0
20.20230 50.0
20.20730 44.0
20.21230 45.0
20.21730 40.0
20.22230 38.0
20.22730 47.0
20.23230 41.0
20.23730 42.0
20.24230 45.0
20.24730 45.0
20.25230 46.0
20.25730 36.0
20.26230 45.0
20.26730 34.0
20.27230 42.0
20.27730 38.0
20.28230 35.0
20.28730 47.0
20.29230 42.0
20.29730 38.0
20.30230 43.0
20.30730 46.0
20.31230 51.0
20.31730 30.0
20.32230 50.0
20.32730 38.0
20.33230 41.0
20.33730 37.0
20.34230 43.0
20.34730 39.0
20.35230 48.0
20.35730 38.0
20.36230 31.0
20.36730 39.0
20.37230 39.0
20.37730 29.0
20.38230 45.0
20.38730 37.0
20.39230 32.0
20.39730 37.0
20.40230 31.0
20.40730 37.0
20.41230 26.0
20.41730 38.0
20.42230 39.0
20.42730 38.0
20.43230 30.0
20.43730 37.0
20.44230 26.0
20.44730 30.0
20.45230 47.0
20.45730 47.0
20.46230 25.0
20.46730 37.0
20.47230 34.0
20.47730 28.0
20.48230 48.0
20.48730 32.0
20.49230 41.0
20.49730 36.0
20.50230 47.0
20.50730 43.0
20.51230 34.0
20.51730 39.0
20.52230 40.0
20.52730 39.0
20.53230 36.0
20.53730 34.0
20.54230 47.0
20.54730 31.0
20.55230 30.0
20.55730 37.0
20.56230 25.0
20.56730 34.0
20.57230 35.0
20.57730 38.0
20.58230 51.0
20.58730 43.0
20.59230 35.0
20.59730 39.0
20.60230 34.0
20.60730 38.0
20.61230 26.0
20.61730 27.0
20.62230 47.0
20.62730 38.0
20.63230 29.0
20.63730 39.0
20.64230 34.0
20.64730 37.0
20.65230 34.0
20.65730 34.0
20.66230 38.0
20.66730 25.0
20.67230 41.0
20.67730 28.0
20.68230 39.0
20.68730 26.0
20.69230 34.0
20.69730 29.0
20.70230 33.0
20.70730 39.0
20.71230 33.0
20.71730 36.0
20.72230 33.0
20.72730 42.0
20.73230 31.0
20.73730 36.0
20.74230 35.0
20.74730 28.0
20.75230 26.0
20.75730 37.0
20.76230 39.0
20.76730 40.0
20.77230 34.0
20.77730 26.0
20.78230 35.0
20.78730 29.0
20.79230 17.0
20.79730 38.0
20.80230 23.0
20.80730 40.0
20.81230 39.0
20.81730 36.0
20.82230 38.0
20.82730 33.0
20.83230 34.0
20.83730 26.0
20.84230 24.0
20.84730 31.0
20.85230 35.0
20.85730 25.0
20.86230 34.0
20.86730 33.0
20.87230 24.0
20.87730 30.0
20.88230 34.0
20.88730 39.0
20.89230 46.0
20.89730 20.0
20.90230 37.0
20.90730 21.0
20.91230 36.0
20.91730 37.0
20.92230 29.0
20.92730 14.0
20.93230 19.0
20.93730 28.0
20.94230 29.0
20.94730 32.0
20.95230 41.0
20.95730 34.0
20.96230 33.0
20.96730 42.0
20.97230 30.0
20.97730 21.0
20.98230 41.0
20.98730 32.0
20.99230 28.0
20.99730 39.0
21.00230 24.0
21.00730 31.0
21.01230 49.0
21.01730 23.0
21.02230 33.0
21.02730 30.0
21.03230 34.0
21.03730 30.0
21.04230 32.0
21.04730 26.0
21.05230 29.0
21.05730 26.0
21.06230 31.0
21.06730 33.0
21.07230 26.0
21.07730 41.0
21.08230 36.0
21.08730 25.0
21.09230 34.0
21.09730 28.0
21.10230 29.0
21.10730 31.0
21.11230 37.0
21.11730 41.0
21.12230 28.0
21.12730 36.0
21.13230 26.0
21.13730 31.0
21.14230 37.0
21.14730 27.0
21.15230 31.0
21.15730 35.0
21.16230 22.0
21.16730 38.0
21.17230 27.0
21.17730 31.0
21.18230 21.0
21.18730 31.0
21.19230 35.0
21.19730 33.0
21.20230 32.0
21.20730 36.0
21.21230 28.0
21.21730 25.0
21.22230 37.0
21.22730 35.0
21.23230 33.0
21.23730 27.0
21.24230 28.0
21.24730 25.0
21.25230 38.0
21.25730 31.0
21.26230 35.0
21.26730 35.0
21.27230 30.0
21.27730 27.0
21.28230 21.0
21.28730 28.0
21.29230 30.0
21.29730 27.0
21.30230 27.0
21.30730 38.0
21.31230 25.0
21.31730 28.0
21.32230 36.0
21.32730 30.0
21.33230 23.0
21.33730 29.0
21.34230 33.0
21.34730 30.0
21.35230 37.0
21.35730 31.0
21.36230 33.0
21.36730 31.0
21.37230 31.0
21.37730 36.0
21.38230 17.0
21.38730 24.0
21.39230 39.0
21.39730 29.0
21.40230 28.0
21.40730 34.0
21.41230 31.0
21.41730 32.0
21.42230 36.0
21.42730 37.0
21.43230 27.0
21.43730 32.0
21.44230 31.0
21.44730 31.0
21.45230 22.0
21.45730 35.0
21.46230 30.0
21.46730 28.0
21.47230 35.0
21.47730 46.0
21.48230 35.0
21.48730 31.0
21.49230 33.0
21.49730 23.0
21.50230 28.0
21.50730 28.0
21.51230 30.0
21.51730 33.0
21.52230 21.0
21.52730 22.0
21.53230 33.0
21.53730 35.0
21.54230 36.0
21.54730 28.0
21.55230 28.0
21.55730 34.0
21.56230 34.0
21.56730 30.0
21.57230 31.0
21.57730 30.0