File: data/W6780r/XRD_Omega/w6780r_scan_omega.xy
23.20830 42.0
23.21330 36.0
23.21830 43.0
23.22330 56.0
23.22830 39.0
23.23330 51.0
23.23830 28.0
23.24330 32.0
23.24830 37.0
23.25330 41.0
23.25830 31.0
23.26330 48.0
23.26830 41.0
23.27330 32.0
23.27830 42.0
23.28330 30.0
23.28830 37.0
23.29330 37.0
23.29830 52.0
23.30330 39.0
23.30830 46.0
23.31330 46.0
23.31830 58.0
23.32330 41.0
23.32830 44.0
23.33330 41.0
23.33830 50.0
23.34330 40.0
23.34830 30.0
23.35330 38.0
23.35830 38.0
23.36330 42.0
23.36830 48.0
23.37330 44.0
23.37830 43.0
23.38330 38.0
23.38830 42.0
23.39330 43.0
23.39830 41.0
23.40330 50.0
23.40830 45.0
23.41330 46.0
23.41830 39.0
23.42330 40.0
23.42830 41.0
23.43330 47.0
23.43830 45.0
23.44330 36.0
23.44830 30.0
23.45330 38.0
23.45830 39.0
23.46330 38.0
23.46830 46.0
23.47330 50.0
23.47830 52.0
23.48330 46.0
23.48830 55.0
23.49330 46.0
23.49830 45.0
23.50330 38.0
23.50830 40.0
23.51330 47.0
23.51830 44.0
23.52330 40.0
23.52830 41.0
23.53330 38.0
23.53830 51.0
23.54330 50.0
23.54830 55.0
23.55330 38.0
23.55830 38.0
23.56330 40.0
23.56830 43.0
23.57330 56.0
23.57830 44.0
23.58330 47.0
23.58830 53.0
23.59330 50.0
23.59830 41.0
23.60330 56.0
23.60830 33.0
23.61330 53.0
23.61830 50.0
23.62330 38.0
23.62830 49.0
23.63330 52.0
23.63830 51.0
23.64330 43.0
23.64830 40.0
23.65330 45.0
23.65830 50.0
23.66330 46.0
23.66830 45.0
23.67330 58.0
23.67830 54.0
23.68330 67.0
23.68830 45.0
23.69330 55.0
23.69830 53.0
23.70330 58.0
23.70830 57.0
23.71330 57.0
23.71830 62.0
23.72330 49.0
23.72830 68.0
23.73330 51.0
23.73830 54.0
23.74330 54.0
23.74830 51.0
23.75330 54.0
23.75830 63.0
23.76330 51.0
23.76830 32.0
23.77330 56.0
23.77830 72.0
23.78330 52.0
23.78830 47.0
23.79330 62.0
23.79830 55.0
23.80330 69.0
23.80830 59.0
23.81330 71.0
23.81830 63.0
23.82330 66.0
23.82830 53.0
23.83330 76.0
23.83830 56.0
23.84330 62.0
23.84830 70.0
23.85330 61.0
23.85830 78.0
23.86330 67.0
23.86830 64.0
23.87330 60.0
23.87830 65.0
23.88330 76.0
23.88830 76.0
23.89330 78.0
23.89830 85.0
23.90330 82.0
23.90830 61.0
23.91330 72.0
23.91830 76.0
23.92330 92.0
23.92830 75.0
23.93330 91.0
23.93830 69.0
23.94330 76.0
23.94830 87.0
23.95330 82.0
23.95830 65.0
23.96330 75.0
23.96830 70.0
23.97330 78.0
23.97830 72.0
23.98330 90.0
23.98830 76.0
23.99330 89.0
23.99830 75.0
24.00330 96.0
24.00830 102.0
24.01330 91.0
24.01830 95.0
24.02330 93.0
24.02830 95.0
24.03330 111.0
24.03830 82.0
24.04330 82.0
24.04830 108.0
24.05330 91.0
24.05830 72.0
24.06330 103.0
24.06830 104.0
24.07330 118.0
24.07830 108.0
24.08330 97.0
24.08830 98.0
24.09330 126.0
24.09830 117.0
24.10330 121.0
24.10830 108.0
24.11330 115.0
24.11830 124.0
24.12330 128.0
24.12830 122.0
24.13330 110.0
24.13830 129.0
24.14330 124.0
24.14830 110.0
24.15330 122.0
24.15830 111.0
24.16330 130.0
24.16830 144.0
24.17330 130.0
24.17830 121.0
24.18330 132.0
24.18830 115.0
24.19330 130.0
24.19830 130.0
24.20330 125.0
24.20830 147.0
24.21330 146.0
24.21830 140.0
24.22330 139.0
24.22830 148.0
24.23330 170.0
24.23830 158.0
24.24330 178.0
24.24830 152.0
24.25330 176.0
24.25830 158.0
24.26330 169.0
24.26830 190.0
24.27330 185.0
24.27830 167.0
24.28330 179.0
24.28830 169.0
24.29330 196.0
24.29830 176.0
24.30330 177.0
24.30830 208.0
24.31330 201.0
24.31830 187.0
24.32330 189.0
24.32830 209.0
24.33330 199.0
24.33830 210.0
24.34330 225.0
24.34830 223.0
24.35330 227.0
24.35830 189.0
24.36330 195.0
24.36830 215.0
24.37330 234.0
24.37830 212.0
24.38330 232.0
24.38830 245.0
24.39330 253.0
24.39830 234.0
24.40330 215.0
24.40830 238.0
24.41330 261.0
24.41830 257.0
24.42330 245.0
24.42830 274.0
24.43330 278.0
24.43830 272.0
24.44330 281.0
24.44830 283.0
24.45330 268.0
24.45830 311.0
24.46330 298.0
24.46830 284.0
24.47330 283.0
24.47830 304.0
24.48330 332.0
24.48830 314.0
24.49330 311.0
24.49830 330.0
24.50330 341.0
24.50830 326.0
24.51330 352.0
24.51830 368.0
24.52330 333.0
24.52830 354.0
24.53330 360.0
24.53830 373.0
24.54330 385.0
24.54830 364.0
24.55330 409.0
24.55830 387.0
24.56330 390.0
24.56830 417.0
24.57330 451.0
24.57830 456.0
24.58330 421.0
24.58830 446.0
24.59330 465.0
24.59830 449.0
24.60330 489.0
24.60830 488.0
24.61330 491.0
24.61830 509.0
24.62330 464.0
24.62830 470.0
24.63330 501.0
24.63830 515.0
24.64330 495.0
24.64830 547.0
24.65330 577.0
24.65830 561.0
24.66330 557.0
24.66830 524.0
24.67330 549.0
24.67830 607.0
24.68330 584.0
24.68830 616.0
24.69330 612.0
24.69830 591.0
24.70330 637.0
24.70830 668.0
24.71330 728.0
24.71830 679.0
24.72330 650.0
24.72830 684.0
24.73330 690.0
24.73830 693.0
24.74330 718.0
24.74830 714.0
24.75330 710.0
24.75830 710.0
24.76330 705.0
24.76830 809.0
24.77330 778.0
24.77830 766.0
24.78330 826.0
24.78830 777.0
24.79330 826.0
24.79830 812.0
24.80330 893.0
24.80830 866.0
24.81330 915.0
24.81830 860.0
24.82330 845.0
24.82830 894.0
24.83330 870.0
24.83830 910.0
24.84330 906.0
24.84830 957.0
24.85330 947.0
24.85830 1004.0
24.86330 910.0
24.86830 977.0
24.87330 997.0
24.87830 1039.0
24.88330 1056.0
24.88830 1069.0
24.89330 956.0
24.89830 1090.0
24.90330 1032.0
24.90830 1057.0
24.91330 1135.0
24.91830 1059.0
24.92330 1074.0
24.92830 1148.0
24.93330 1113.0
24.93830 1108.0
24.94330 1151.0
24.94830 1153.0
24.95330 1123.0
24.95830 1174.0
24.96330 1165.0
24.96830 1246.0
24.97330 1236.0
24.97830 1276.0
24.98330 1312.0
24.98830 1259.0
24.99330 1329.0
24.99830 1268.0
25.00330 1328.0
25.00830 1307.0
25.01330 1323.0
25.01830 1369.0
25.02330 1362.0
25.02830 1355.0
25.03330 1364.0
25.03830 1361.0
25.04330 1378.0
25.04830 1360.0
25.05330 1374.0
25.05830 1358.0
25.06330 1389.0
25.06830 1394.0
25.07330 1381.0
25.07830 1442.0
25.08330 1375.0
25.08830 1392.0
25.09330 1472.0
25.09830 1438.0
25.10330 1426.0
25.10830 1528.0
25.11330 1525.0
25.11830 1525.0
25.12330 1470.0
25.12830 1523.0
25.13330 1478.0
25.13830 1497.0
25.14330 1527.0
25.14830 1532.0
25.15330 1589.0
25.15830 1538.0
25.16330 1506.0
25.16830 1551.0
25.17330 1527.0
25.17830 1483.0
25.18330 1410.0
25.18830 1517.0
25.19330 1568.0
25.19830 1488.0
25.20330 1487.0
25.20830 1516.0
25.21330 1571.0
25.21830 1485.0
25.22330 1550.0
25.22830 1482.0
25.23330 1563.0
25.23830 1510.0
25.24330 1581.0
25.24830 1484.0
25.25330 1505.0
25.25830 1550.0
25.26330 1481.0
25.26830 1564.0
25.27330 1492.0
25.27830 1540.0
25.28330 1572.0
25.28830 1496.0
25.29330 1466.0
25.29830 1440.0
25.30330 1501.0
25.30830 1568.0
25.31330 1566.0
25.31830 1476.0
25.32330 1529.0
25.32830 1512.0
25.33330 1499.0
25.33830 1497.0
25.34330 1460.0
25.34830 1471.0
25.35330 1462.0
25.35830 1483.0
25.36330 1391.0
25.36830 1484.0
25.37330 1376.0
25.37830 1368.0
25.38330 1411.0
25.38830 1376.0
25.39330 1323.0
25.39830 1385.0
25.40330 1419.0
25.40830 1357.0
25.41330 1380.0
25.41830 1345.0
25.42330 1265.0
25.42830 1309.0
25.43330 1265.0
25.43830 1255.0
25.44330 1266.0
25.44830 1259.0
25.45330 1250.0
25.45830 1269.0
25.46330 1205.0
25.46830 1266.0
25.47330 1165.0
25.47830 1229.0
25.48330 1167.0
25.48830 1188.0
25.49330 1198.0
25.49830 1155.0
25.50330 1136.0
25.50830 1091.0
25.51330 1098.0
25.51830 1025.0
25.52330 1077.0
25.52830 1047.0
25.53330 1094.0
25.53830 1083.0
25.54330 1089.0
25.54830 1020.0
25.55330 988.0
25.55830 1009.0
25.56330 981.0
25.56830 1030.0
25.57330 987.0
25.57830 955.0
25.58330 935.0
25.58830 962.0
25.59330 947.0
25.59830 914.0
25.60330 829.0
25.60830 914.0
25.61330 902.0
25.61830 849.0
25.62330 850.0
25.62830 853.0
25.63330 852.0
25.63830 834.0
25.64330 832.0
25.64830 827.0
25.65330 811.0
25.65830 769.0
25.66330 737.0
25.66830 746.0
25.67330 751.0
25.67830 733.0
25.68330 695.0
25.68830 693.0
25.69330 677.0
25.69830 731.0
25.70330 667.0
25.70830 715.0
25.71330 681.0
25.71830 661.0
25.72330 674.0
25.72830 669.0
25.73330 679.0
25.73830 632.0
25.74330 640.0
25.74830 639.0
25.75330 643.0
25.75830 595.0
25.76330 586.0
25.76830 591.0
25.77330 551.0
25.77830 571.0
25.78330 552.0
25.78830 533.0
25.79330 574.0
25.79830 509.0
25.80330 516.0
25.80830 517.0
25.81330 520.0
25.81830 485.0
25.82330 480.0
25.82830 488.0
25.83330 465.0
25.83830 498.0
25.84330 465.0
25.84830 468.0
25.85330 442.0
25.85830 423.0
25.86330 409.0
25.86830 441.0
25.87330 424.0
25.87830 386.0
25.88330 397.0
25.88830 404.0
25.89330 393.0
25.89830 415.0
25.90330 390.0
25.90830 399.0
25.91330 383.0
25.91830 372.0
25.92330 335.0
25.92830 368.0
25.93330 343.0
25.93830 356.0
25.94330 346.0
25.94830 324.0
25.95330 334.0
25.95830 295.0
25.96330 327.0
25.96830 310.0
25.97330 299.0
25.97830 307.0
25.98330 301.0
25.98830 297.0
25.99330 279.0
25.99830 263.0
26.00330 277.0
26.00830 269.0
26.01330 255.0
26.01830 265.0
26.02330 270.0
26.02830 270.0
26.03330 271.0
26.03830 248.0
26.04330 270.0
26.04830 260.0
26.05330 255.0
26.05830 238.0
26.06330 233.0
26.06830 201.0
26.07330 223.0
26.07830 234.0
26.08330 230.0
26.08830 206.0
26.09330 206.0
26.09830 204.0
26.10330 207.0
26.10830 205.0
26.11330 177.0
26.11830 206.0
26.12330 181.0
26.12830 202.0
26.13330 190.0
26.13830 167.0
26.14330 172.0
26.14830 190.0
26.15330 166.0
26.15830 189.0
26.16330 187.0
26.16830 160.0
26.17330 177.0
26.17830 161.0
26.18330 156.0
26.18830 143.0
26.19330 152.0
26.19830 134.0
26.20330 142.0
26.20830 154.0
26.21330 157.0
26.21830 148.0
26.22330 157.0
26.22830 145.0
26.23330 160.0
26.23830 137.0
26.24330 137.0
26.24830 141.0
26.25330 141.0
26.25830 132.0
26.26330 134.0
26.26830 109.0
26.27330 108.0
26.27830 132.0
26.28330 141.0
26.28830 118.0
26.29330 105.0
26.29830 135.0
26.30330 118.0
26.30830 109.0
26.31330 97.0
26.31830 107.0
26.32330 128.0
26.32830 101.0
26.33330 98.0
26.33830 110.0
26.34330 108.0
26.34830 92.0
26.35330 98.0
26.35830 102.0
26.36330 108.0
26.36830 84.0
26.37330 109.0
26.37830 88.0
26.38330 102.0
26.38830 92.0
26.39330 87.0
26.39830 95.0
26.40330 86.0
26.40830 114.0
26.41330 81.0
26.41830 93.0
26.42330 90.0
26.42830 82.0
26.43330 85.0
26.43830 86.0
26.44330 80.0
26.44830 88.0
26.45330 88.0
26.45830 71.0
26.46330 88.0
26.46830 98.0
26.47330 87.0
26.47830 96.0
26.48330 73.0
26.48830 78.0
26.49330 83.0
26.49830 83.0
26.50330 82.0
26.50830 77.0
26.51330 79.0
26.51830 74.0
26.52330 75.0
26.52830 77.0
26.53330 71.0
26.53830 71.0
26.54330 85.0
26.54830 88.0
26.55330 67.0
26.55830 72.0
26.56330 72.0
26.56830 77.0
26.57330 75.0
26.57830 62.0
26.58330 65.0
26.58830 61.0
26.59330 52.0
26.59830 62.0
26.60330 58.0
26.60830 69.0
26.61330 63.0
26.61830 61.0
26.62330 77.0
26.62830 70.0
26.63330 57.0
26.63830 65.0
26.64330 63.0
26.64830 60.0
26.65330 50.0
26.65830 42.0
26.66330 62.0
26.66830 41.0
26.67330 57.0
26.67830 48.0
26.68330 53.0
26.68830 61.0
26.69330 55.0
26.69830 42.0
26.70330 71.0
26.70830 56.0
26.71330 59.0
26.71830 47.0
26.72330 64.0
26.72830 49.0
26.73330 49.0
26.73830 44.0
26.74330 41.0
26.74830 59.0
26.75330 62.0
26.75830 50.0
26.76330 45.0
26.76830 50.0
26.77330 49.0
26.77830 44.0
26.78330 46.0
26.78830 52.0
26.79330 40.0
26.79830 46.0
26.80330 48.0
26.80830 48.0
26.81330 57.0
26.81830 42.0
26.82330 43.0
26.82830 45.0
26.83330 36.0
26.83830 41.0
26.84330 42.0
26.84830 48.0
26.85330 42.0
26.85830 53.0
26.86330 42.0
26.86830 45.0
26.87330 47.0
26.87830 45.0
26.88330 43.0
26.88830 44.0
26.89330 39.0
26.89830 43.0
26.90330 36.0
26.90830 45.0
26.91330 51.0
26.91830 56.0
26.92330 44.0
26.92830 45.0
26.93330 32.0
26.93830 33.0
26.94330 40.0
26.94830 49.0
26.95330 41.0
26.95830 37.0
26.96330 53.0
26.96830 35.0
26.97330 40.0
26.97830 54.0
26.98330 44.0
26.98830 50.0
26.99330 41.0
26.99830 44.0
27.00330 43.0
27.00830 46.0
27.01330 48.0
27.01830 28.0
27.02330 43.0
27.02830 42.0
27.03330 36.0
27.03830 30.0
27.04330 29.0
27.04830 42.0
27.05330 26.0
27.05830 34.0
27.06330 44.0
27.06830 32.0
27.07330 35.0
27.07830 32.0
27.08330 40.0
27.08830 38.0
27.09330 44.0
27.09830 30.0
27.10330 48.0
27.10830 26.0
27.11330 42.0
27.11830 31.0
27.12330 40.0
27.12830 37.0
27.13330 39.0
27.13830 34.0
27.14330 45.0
27.14830 23.0
27.15330 40.0
27.15830 44.0
27.16330 37.0
27.16830 33.0
27.17330 42.0
27.17830 41.0
27.18330 40.0
27.18830 29.0
27.19330 35.0
27.19830 39.0