File: data/w6930m/XRD_2ThetaOmega/30m_scan_2th-om_m_Cr2O3_55-75deg_PIXscan_4min_3.xy
55.0019 61.0
55.0166 55.0
55.0314 57.0
55.0462 63.0
55.0609 36.0
55.0757 55.0
55.0905 70.0
55.1053 50.0
55.12 68.0
55.1348 54.0
55.1496 66.0
55.1643 50.0
55.1791 68.0
55.1939 55.0
55.2087 51.0
55.2234 64.0
55.2382 52.0
55.253 62.0
55.2678 67.0
55.2825 69.0
55.2973 60.0
55.3121 83.0
55.3268 61.0
55.3416 56.0
55.3564 54.0
55.3712 69.0
55.3859 63.0
55.4007 53.0
55.4155 48.0
55.4302 53.0
55.445 65.0
55.4598 53.0
55.4746 54.0
55.4893 59.0
55.5041 58.0
55.5189 58.0
55.5336 51.0
55.5484 40.0
55.5632 65.0
55.578 60.0
55.5927 59.0
55.6075 69.0
55.6223 59.0
55.637 74.0
55.6518 57.0
55.6666 51.0
55.6814 78.0
55.6961 63.0
55.7109 48.0
55.7257 56.0
55.7404 53.0
55.7552 64.0
55.77 57.0
55.7848 68.0
55.7995 53.0
55.8143 51.0
55.8291 60.0
55.8438 44.0
55.8586 48.0
55.8734 48.0
55.8882 50.0
55.9029 38.0
55.9177 44.0
55.9325 68.0
55.9472 61.0
55.962 50.0
55.9768 54.0
55.9916 71.0
56.0063 52.0
56.0211 61.0
56.0359 60.0
56.0506 46.0
56.0654 57.0
56.0802 36.0
56.095 56.0
56.1097 58.0
56.1245 79.0
56.1393 61.0
56.154 57.0
56.1688 56.0
56.1836 48.0
56.1984 61.0
56.2131 57.0
56.2279 34.0
56.2427 57.0
56.2574 53.0
56.2722 58.0
56.287 57.0
56.3018 60.0
56.3165 64.0
56.3313 63.0
56.3461 54.0
56.3608 47.0
56.3756 51.0
56.3904 58.0
56.4052 56.0
56.4199 50.0
56.4347 65.0
56.4495 49.0
56.4642 64.0
56.479 50.0
56.4938 54.0
56.5086 62.0
56.5233 57.0
56.5381 50.0
56.5529 67.0
56.5676 55.0
56.5824 64.0
56.5972 49.0
56.612 54.0
56.6267 69.0
56.6415 53.0
56.6563 45.0
56.671 43.0
56.6858 58.0
56.7006 42.0
56.7154 48.0
56.7301 52.0
56.7449 58.0
56.7597 48.0
56.7745 59.0
56.7892 72.0
56.804 50.0
56.8188 54.0
56.8335 48.0
56.8483 56.0
56.8631 68.0
56.8779 52.0
56.8926 59.0
56.9074 47.0
56.9222 50.0
56.9369 65.0
56.9517 58.0
56.9665 53.0
56.9813 48.0
56.996 59.0
57.0108 73.0
57.0256 60.0
57.0403 50.0
57.0551 48.0
57.0699 61.0
57.0847 83.0
57.0994 55.0
57.1142 48.0
57.129 57.0
57.1437 60.0
57.1585 55.0
57.1733 60.0
57.1881 56.0
57.2028 52.0
57.2176 61.0
57.2324 55.0
57.2471 42.0
57.2619 50.0
57.2767 65.0
57.2915 54.0
57.3062 43.0
57.321 53.0
57.3358 64.0
57.3505 65.0
57.3653 62.0
57.3801 59.0
57.3949 61.0
57.4096 64.0
57.4244 53.0
57.4392 54.0
57.4539 40.0
57.4687 67.0
57.4835 62.0
57.4983 40.0
57.513 54.0
57.5278 47.0
57.5426 63.0
57.5573 71.0
57.5721 57.0
57.5869 52.0
57.6017 47.0
57.6164 43.0
57.6312 67.0
57.646 63.0
57.6607 53.0
57.6755 48.0
57.6903 69.0
57.7051 62.0
57.7198 69.0
57.7346 58.0
57.7494 47.0
57.7641 48.0
57.7789 50.0
57.7937 58.0
57.8085 65.0
57.8232 52.0
57.838 70.0
57.8528 60.0
57.8675 68.0
57.8823 58.0
57.8971 65.0
57.9119 53.0
57.9266 63.0
57.9414 58.0
57.9562 43.0
57.9709 62.0
57.9857 60.0
58.0005 55.0
58.0153 58.0
58.03 47.0
58.0448 58.0
58.0596 43.0
58.0743 61.0
58.0891 59.0
58.1039 54.0
58.1187 57.0
58.1334 56.0
58.1482 56.0
58.163 65.0
58.1777 69.0
58.1925 54.0
58.2073 54.0
58.2221 52.0
58.2368 66.0
58.2516 63.0
58.2664 67.0
58.2812 63.0
58.2959 58.0
58.3107 52.0
58.3255 65.0
58.3402 57.0
58.355 60.0
58.3698 49.0
58.3846 61.0
58.3993 61.0
58.4141 63.0
58.4289 60.0
58.4436 50.0
58.4584 67.0
58.4732 65.0
58.488 65.0
58.5027 68.0
58.5175 60.0
58.5323 62.0
58.547 58.0
58.5618 60.0
58.5766 72.0
58.5914 54.0
58.6061 56.0
58.6209 66.0
58.6357 51.0
58.6504 40.0
58.6652 55.0
58.68 45.0
58.6948 53.0
58.7095 67.0
58.7243 69.0
58.7391 48.0
58.7538 53.0
58.7686 53.0
58.7834 49.0
58.7982 53.0
58.8129 77.0
58.8277 50.0
58.8425 62.0
58.8572 46.0
58.872 62.0
58.8868 60.0
58.9016 47.0
58.9163 52.0
58.9311 62.0
58.9459 63.0
58.9606 43.0
58.9754 53.0
58.9902 60.0
59.005 57.0
59.0197 50.0
59.0345 54.0
59.0493 55.0
59.064 48.0
59.0788 63.0
59.0936 56.0
59.1084 50.0
59.1231 55.0
59.1379 59.0
59.1527 46.0
59.1674 62.0
59.1822 57.0
59.197 64.0
59.2118 47.0
59.2265 58.0
59.2413 59.0
59.2561 50.0
59.2708 53.0
59.2856 55.0
59.3004 55.0
59.3152 56.0
59.3299 54.0
59.3447 54.0
59.3595 53.0
59.3742 70.0
59.389 66.0
59.4038 67.0
59.4186 57.0
59.4333 56.0
59.4481 61.0
59.4629 55.0
59.4776 45.0
59.4924 49.0
59.5072 46.0
59.522 66.0
59.5367 51.0
59.5515 54.0
59.5663 54.0
59.581 55.0
59.5958 54.0
59.6106 59.0
59.6254 49.0
59.6401 54.0
59.6549 68.0
59.6697 51.0
59.6844 56.0
59.6992 49.0
59.714 64.0
59.7288 48.0
59.7435 57.0
59.7583 52.0
59.7731 50.0
59.7878 56.0
59.8026 61.0
59.8174 59.0
59.8322 58.0
59.8469 62.0
59.8617 48.0
59.8765 66.0
59.8913 55.0
59.906 48.0
59.9208 57.0
59.9356 56.0
59.9503 68.0
59.9651 61.0
59.9799 66.0
59.9947 61.0
60.0094 54.0
60.0242 45.0
60.039 59.0
60.0537 45.0
60.0685 61.0
60.0833 52.0
60.0981 60.0
60.1128 53.0
60.1276 65.0
60.1424 73.0
60.1571 60.0
60.1719 58.0
60.1867 54.0
60.2015 54.0
60.2162 55.0
60.231 60.0
60.2458 57.0
60.2605 61.0
60.2753 54.0
60.2901 66.0
60.3049 67.0
60.3196 69.0
60.3344 71.0
60.3492 56.0
60.3639 65.0
60.3787 57.0
60.3935 67.0
60.4083 75.0
60.423 53.0
60.4378 62.0
60.4526 54.0
60.4673 55.0
60.4821 53.0
60.4969 58.0
60.5117 54.0
60.5264 55.0
60.5412 68.0
60.556 53.0
60.5707 42.0
60.5855 65.0
60.6003 71.0
60.6151 61.0
60.6298 62.0
60.6446 70.0
60.6594 78.0
60.6741 61.0
60.6889 75.0
60.7037 68.0
60.7185 80.0
60.7332 86.0
60.748 104.0
60.7628 121.0
60.7775 146.0
60.7923 188.0
60.8071 368.0
60.8219 543.0
60.8366 736.0
60.8514 713.0
60.8662 484.0
60.8809 372.0
60.8957 303.0
60.9105 332.0
60.9253 295.0
60.94 207.0
60.9548 150.0
60.9696 139.0
60.9843 104.0
60.9991 93.0
61.0139 92.0
61.0287 91.0
61.0434 73.0
61.0582 84.0
61.073 87.0
61.0877 79.0
61.1025 82.0
61.1173 73.0
61.1321 69.0
61.1468 73.0
61.1616 68.0
61.1764 77.0
61.1911 66.0
61.2059 62.0
61.2207 60.0
61.2355 64.0
61.2502 79.0
61.265 66.0
61.2798 72.0
61.2945 73.0
61.3093 66.0
61.3241 58.0
61.3389 65.0
61.3536 63.0
61.3684 69.0
61.3832 79.0
61.398 55.0
61.4127 59.0
61.4275 66.0
61.4423 80.0
61.457 64.0
61.4718 60.0
61.4866 68.0
61.5014 66.0
61.5161 60.0
61.5309 52.0
61.5457 52.0
61.5604 77.0
61.5752 50.0
61.59 55.0
61.6048 54.0
61.6195 62.0
61.6343 48.0
61.6491 51.0
61.6638 61.0
61.6786 73.0
61.6934 55.0
61.7082 58.0
61.7229 60.0
61.7377 65.0
61.7525 58.0
61.7672 55.0
61.782 75.0
61.7968 62.0
61.8116 62.0
61.8263 64.0
61.8411 64.0
61.8559 66.0
61.8706 47.0
61.8854 59.0
61.9002 50.0
61.915 61.0
61.9297 77.0
61.9445 66.0
61.9593 65.0
61.974 52.0
61.9888 45.0
62.0036 62.0
62.0184 53.0
62.0331 67.0
62.0479 57.0
62.0627 59.0
62.0774 62.0
62.0922 59.0
62.107 70.0
62.1218 73.0
62.1365 59.0
62.1513 64.0
62.1661 65.0
62.1808 59.0
62.1956 67.0
62.2104 59.0
62.2252 80.0
62.2399 71.0
62.2547 60.0
62.2695 71.0
62.2842 60.0
62.299 52.0
62.3138 59.0
62.3286 63.0
62.3433 53.0
62.3581 70.0
62.3729 61.0
62.3876 66.0
62.4024 59.0
62.4172 68.0
62.432 57.0
62.4467 64.0
62.4615 67.0
62.4763 65.0
62.491 63.0
62.5058 57.0
62.5206 65.0
62.5354 85.0
62.5501 63.0
62.5649 60.0
62.5797 64.0
62.5944 56.0
62.6092 65.0
62.624 59.0
62.6388 72.0
62.6535 59.0
62.6683 74.0
62.6831 53.0
62.6978 70.0
62.7126 73.0
62.7274 62.0
62.7422 77.0
62.7569 59.0
62.7717 54.0
62.7865 71.0
62.8012 61.0
62.816 54.0
62.8308 83.0
62.8456 73.0
62.8603 62.0
62.8751 54.0
62.8899 62.0
62.9047 56.0
62.9194 61.0
62.9342 86.0
62.949 69.0
62.9637 43.0
62.9785 59.0
62.9933 70.0
63.0081 61.0
63.0228 53.0
63.0376 53.0
63.0524 62.0
63.0671 48.0
63.0819 61.0
63.0967 61.0
63.1115 74.0
63.1262 68.0
63.141 64.0
63.1558 59.0
63.1705 56.0
63.1853 69.0
63.2001 61.0
63.2149 59.0
63.2296 59.0
63.2444 56.0
63.2592 67.0
63.2739 77.0
63.2887 65.0
63.3035 69.0
63.3183 53.0
63.333 75.0
63.3478 62.0
63.3626 59.0
63.3773 74.0
63.3921 68.0
63.4069 63.0
63.4217 72.0
63.4364 65.0
63.4512 62.0
63.466 41.0
63.4807 62.0
63.4955 60.0
63.5103 69.0
63.5251 63.0
63.5398 67.0
63.5546 68.0
63.5694 59.0
63.5841 44.0
63.5989 54.0
63.6137 48.0
63.6285 71.0
63.6432 63.0
63.658 65.0
63.6728 66.0
63.6875 67.0
63.7023 56.0
63.7171 51.0
63.7319 73.0
63.7466 63.0
63.7614 62.0
63.7762 74.0
63.7909 62.0
63.8057 82.0
63.8205 63.0
63.8353 63.0
63.85 49.0
63.8648 74.0
63.8796 62.0
63.8943 58.0
63.9091 76.0
63.9239 63.0
63.9387 68.0
63.9534 54.0
63.9682 62.0
63.983 72.0
63.9977 52.0
64.0125 54.0
64.0273 63.0
64.0421 67.0
64.0568 65.0
64.0716 64.0
64.0864 42.0
64.1011 69.0
64.1159 64.0
64.1307 70.0
64.1455 80.0
64.1602 57.0
64.175 63.0
64.1898 72.0
64.2045 58.0
64.2193 67.0
64.2341 66.0
64.2489 65.0
64.2636 58.0
64.2784 59.0
64.2932 68.0
64.3079 73.0
64.3227 71.0
64.3375 70.0
64.3523 82.0
64.367 68.0
64.3818 80.0
64.3966 67.0
64.4114 63.0
64.4261 55.0
64.4409 70.0
64.4557 84.0
64.4704 62.0
64.4852 66.0
64.5 66.0
64.5148 57.0
64.5295 56.0
64.5443 87.0
64.5591 74.0
64.5738 72.0
64.5886 76.0
64.6034 71.0
64.6182 70.0
64.6329 67.0
64.6477 72.0
64.6625 76.0
64.6772 67.0
64.692 73.0
64.7068 76.0
64.7216 62.0
64.7363 94.0
64.7511 67.0
64.7659 67.0
64.7806 71.0
64.7954 64.0
64.8102 81.0
64.825 79.0
64.8397 90.0
64.8545 88.0
64.8693 86.0
64.884 85.0
64.8988 86.0
64.9136 91.0
64.9284 110.0
64.9431 105.0
64.9579 123.0
64.9727 128.0
64.9874 111.0
65.0022 94.0
65.017 100.0
65.0318 89.0
65.0465 92.0
65.0613 102.0
65.0761 106.0
65.0908 90.0
65.1056 100.0
65.1204 105.0
65.1352 102.0
65.1499 92.0
65.1647 106.0
65.1795 79.0
65.1942 72.0
65.209 98.0
65.2238 93.0
65.2386 76.0
65.2533 81.0
65.2681 96.0
65.2829 84.0
65.2976 90.0
65.3124 90.0
65.3272 83.0
65.342 96.0
65.3567 88.0
65.3715 78.0
65.3863 84.0
65.401 73.0
65.4158 76.0
65.4306 109.0
65.4454 87.0
65.4601 90.0
65.4749 101.0
65.4897 91.0
65.5044 96.0
65.5192 98.0
65.534 83.0
65.5488 90.0
65.5635 91.0
65.5783 79.0
65.5931 95.0
65.6078 93.0
65.6226 69.0
65.6374 79.0
65.6522 77.0
65.6669 93.0
65.6817 78.0
65.6965 85.0
65.7112 103.0
65.726 83.0
65.7408 86.0
65.7556 86.0
65.7703 71.0
65.7851 104.0
65.7999 92.0
65.8146 94.0
65.8294 97.0
65.8442 78.0
65.859 120.0
65.8737 97.0
65.8885 102.0
65.9033 86.0
65.9181 91.0
65.9328 80.0
65.9476 94.0
65.9624 108.0
65.9771 94.0
65.9919 95.0
66.0067 95.0
66.0215 105.0
66.0362 80.0
66.051 96.0
66.0658 111.0
66.0805 110.0
66.0953 111.0
66.1101 110.0
66.1249 119.0
66.1396 101.0
66.1544 95.0
66.1692 96.0
66.1839 93.0
66.1987 125.0
66.2135 117.0
66.2283 114.0
66.243 106.0
66.2578 111.0
66.2726 110.0
66.2873 125.0
66.3021 104.0
66.3169 121.0
66.3317 119.0
66.3464 127.0
66.3612 133.0
66.376 138.0
66.3907 106.0
66.4055 131.0
66.4203 126.0
66.4351 114.0
66.4498 131.0
66.4646 134.0
66.4794 124.0
66.4941 140.0
66.5089 130.0
66.5237 148.0
66.5385 145.0
66.5532 148.0
66.568 138.0
66.5828 142.0
66.5975 135.0
66.6123 140.0
66.6271 132.0
66.6419 159.0
66.6566 135.0
66.6714 121.0
66.6862 187.0
66.7009 159.0
66.7157 133.0
66.7305 165.0
66.7453 159.0
66.76 162.0
66.7748 150.0
66.7896 148.0
66.8043 154.0
66.8191 179.0
66.8339 168.0
66.8487 171.0
66.8634 171.0
66.8782 173.0
66.893 175.0
66.9077 168.0
66.9225 205.0
66.9373 190.0
66.9521 189.0
66.9668 182.0
66.9816 178.0
66.9964 191.0
67.0111 190.0
67.0259 161.0
67.0407 207.0
67.0555 183.0
67.0702 199.0
67.085 207.0
67.0998 208.0
67.1145 192.0
67.1293 266.0
67.1441 263.0
67.1589 277.0
67.1736 259.0
67.1884 256.0
67.2032 259.0
67.2179 284.0
67.2327 279.0
67.2475 295.0
67.2623 310.0
67.277 299.0
67.2918 288.0
67.3066 326.0
67.3213 307.0
67.3361 299.0
67.3509 288.0
67.3657 324.0
67.3804 321.0
67.3952 314.0
67.41 308.0
67.4248 327.0
67.4395 360.0
67.4543 364.0
67.4691 352.0
67.4838 376.0
67.4986 374.0
67.5134 432.0
67.5282 376.0
67.5429 418.0
67.5577 422.0
67.5725 444.0
67.5872 458.0
67.602 487.0
67.6168 503.0
67.6316 519.0
67.6463 514.0
67.6611 547.0
67.6759 582.0
67.6906 596.0
67.7054 630.0
67.7202 699.0
67.735 756.0
67.7497 895.0
67.7645 1074.0
67.7793 1197.0
67.794 1349.0
67.8088 1441.0
67.8236 1675.0
67.8384 1735.0
67.8531 1844.0
67.8679 1794.0
67.8827 1792.0
67.8974 1661.0
67.9122 1620.0
67.927 1664.0
67.9418 1619.0
67.9565 1900.0
67.9713 2063.0
67.9861 2218.0
68.0008 2591.0
68.0156 3005.0
68.0304 3697.0
68.0452 4586.0
68.0599 5761.0
68.0747 7722.0
68.0895 11401.0
68.1042 16019.0
68.119 32002.0
68.1338 62156.0
68.1486 182434.0
68.1633 231960.0
68.1781 148801.0
68.1929 77179.0
68.2076 34388.0
68.2224 20476.0
68.2372 12889.0
68.252 9707.0
68.2667 8765.0
68.2815 9163.0
68.2963 11962.0
68.311 18443.0
68.3258 37251.0
68.3406 80620.0
68.3554 108409.0
68.3701 82882.0
68.3849 42783.0
68.3997 20855.0
68.4144 11457.0
68.4292 7284.0
68.444 5014.0
68.4588 3932.0
68.4735 3139.0
68.4883 2706.0
68.5031 2344.0
68.5178 1974.0
68.5326 1876.0
68.5474 1725.0
68.5622 1521.0
68.5769 1368.0
68.5917 1282.0
68.6065 1109.0
68.6212 1111.0
68.636 1031.0
68.6508 981.0
68.6656 890.0
68.6803 801.0
68.6951 768.0
68.7099 746.0
68.7246 731.0
68.7394 676.0
68.7542 600.0
68.769 600.0
68.7837 562.0
68.7985 541.0
68.8133 501.0
68.828 531.0
68.8428 457.0
68.8576 420.0
68.8724 436.0
68.8871 443.0
68.9019 441.0
68.9167 405.0
68.9315 399.0
68.9462 391.0
68.961 373.0
68.9758 352.0
68.9905 350.0
69.0053 342.0
69.0201 361.0
69.0349 324.0
69.0496 289.0
69.0644 318.0
69.0792 306.0
69.0939 308.0
69.1087 272.0
69.1235 285.0
69.1383 274.0
69.153 284.0
69.1678 261.0
69.1826 266.0
69.1973 204.0
69.2121 256.0
69.2269 199.0
69.2417 208.0
69.2564 265.0
69.2712 202.0
69.286 205.0
69.3007 188.0
69.3155 194.0
69.3303 165.0
69.3451 186.0
69.3598 169.0
69.3746 159.0
69.3894 154.0
69.4041 165.0
69.4189 172.0
69.4337 157.0
69.4485 155.0
69.4632 158.0
69.478 152.0
69.4928 143.0
69.5075 153.0
69.5223 151.0
69.5371 150.0
69.5519 149.0
69.5666 132.0
69.5814 126.0
69.5962 123.0
69.6109 134.0
69.6257 127.0
69.6405 126.0
69.6553 121.0
69.67 107.0
69.6848 100.0
69.6996 117.0
69.7143 118.0
69.7291 126.0
69.7439 116.0
69.7587 114.0
69.7734 101.0
69.7882 101.0
69.803 114.0
69.8177 132.0
69.8325 102.0
69.8473 100.0
69.8621 101.0
69.8768 102.0
69.8916 97.0
69.9064 97.0
69.9211 89.0
69.9359 108.0
69.9507 100.0
69.9655 85.0
69.9802 93.0
69.995 105.0
70.0098 92.0
70.0245 96.0
70.0393 102.0
70.0541 90.0
70.0689 85.0
70.0836 92.0
70.0984 95.0
70.1132 86.0
70.1279 109.0
70.1427 99.0
70.1575 81.0
70.1723 85.0
70.187 84.0
70.2018 81.0
70.2166 89.0
70.2313 109.0
70.2461 94.0
70.2609 107.0
70.2757 88.0
70.2904 102.0
70.3052 84.0
70.32 103.0
70.3347 76.0
70.3495 95.0
70.3643 70.0
70.3791 83.0
70.3938 95.0
70.4086 98.0
70.4234 84.0
70.4382 94.0
70.4529 93.0
70.4677 91.0
70.4825 83.0
70.4972 94.0
70.512 95.0
70.5268 77.0
70.5416 90.0
70.5563 81.0
70.5711 76.0
70.5859 86.0
70.6006 82.0
70.6154 72.0
70.6302 79.0
70.645 81.0
70.6597 76.0
70.6745 82.0
70.6893 72.0
70.704 89.0
70.7188 61.0
70.7336 84.0
70.7484 82.0
70.7631 84.0
70.7779 69.0
70.7927 90.0
70.8074 83.0
70.8222 90.0
70.837 86.0
70.8518 67.0
70.8665 64.0
70.8813 82.0
70.8961 77.0
70.9108 83.0
70.9256 70.0
70.9404 58.0
70.9552 92.0
70.9699 80.0
70.9847 77.0
70.9995 69.0
71.0142 79.0
71.029 87.0
71.0438 82.0
71.0586 76.0
71.0733 86.0
71.0881 90.0
71.1029 79.0
71.1176 68.0
71.1324 68.0
71.1472 80.0
71.162 62.0
71.1767 67.0
71.1915 67.0
71.2063 86.0
71.221 59.0
71.2358 76.0
71.2506 64.0
71.2654 83.0
71.2801 63.0
71.2949 75.0
71.3097 69.0
71.3244 85.0
71.3392 61.0
71.354 79.0
71.3688 77.0
71.3835 68.0
71.3983 65.0
71.4131 79.0
71.4278 69.0
71.4426 79.0
71.4574 72.0
71.4722 76.0
71.4869 79.0
71.5017 66.0
71.5165 73.0
71.5312 71.0
71.546 72.0
71.5608 66.0
71.5756 65.0
71.5903 83.0
71.6051 62.0
71.6199 55.0
71.6346 65.0
71.6494 88.0
71.6642 69.0
71.6691 72.0