File: data/W6788r/XRD_2ThetaOmega/W6788r_absolute_2th-om_10-130deg_PIXscan_17min_4.xy
10.0035 17.0
10.0872 17.0
10.1709 18.0
10.2546 32.0
10.3383 24.0
10.422 18.0
10.5057 16.0
10.5894 22.0
10.6731 27.0
10.7568 26.0
10.8405 30.0
10.9242 16.0
11.0079 26.0
11.0916 25.0
11.1753 21.0
11.259 21.0
11.3428 24.0
11.4265 15.0
11.5102 19.0
11.5939 20.0
11.6776 25.0
11.7613 20.0
11.845 18.0
11.9287 21.0
12.0124 31.0
12.0961 16.0
12.1798 23.0
12.2635 15.0
12.3472 17.0
12.4309 17.0
12.5146 10.0
12.5983 22.0
12.682 20.0
12.7657 19.0
12.8495 25.0
12.9332 25.0
13.0169 20.0
13.1006 19.0
13.1843 26.0
13.268 18.0
13.3517 14.0
13.4354 12.0
13.5191 15.0
13.6028 20.0
13.6865 18.0
13.7702 20.0
13.8539 18.0
13.9376 12.0
14.0213 16.0
14.105 19.0
14.1887 17.0
14.2724 19.0
14.3562 18.0
14.4399 24.0
14.5236 18.0
14.6073 10.0
14.691 13.0
14.7747 14.0
14.8584 16.0
14.9421 18.0
15.0258 21.0
15.1095 19.0
15.1932 17.0
15.2769 15.0
15.3606 21.0
15.4443 18.0
15.528 15.0
15.6117 18.0
15.6954 18.0
15.7791 17.0
15.8629 17.0
15.9466 17.0
16.0303 14.0
16.114 18.0
16.1977 20.0
16.2814 19.0
16.3651 12.0
16.4488 20.0
16.5325 17.0
16.6162 14.0
16.6999 18.0
16.7836 12.0
16.8673 14.0
16.951 18.0
17.0347 15.0
17.1184 19.0
17.2021 16.0
17.2858 15.0
17.3696 13.0
17.4533 22.0
17.537 12.0
17.6207 15.0
17.7044 10.0
17.7881 12.0
17.8718 16.0
17.9555 12.0
18.0392 21.0
18.1229 15.0
18.2066 24.0
18.2903 12.0
18.374 16.0
18.4577 13.0
18.5414 5.0
18.6251 11.0
18.7088 13.0
18.7925 12.0
18.8763 17.0
18.96 21.0
19.0437 15.0
19.1274 7.0
19.2111 13.0
19.2948 12.0
19.3785 15.0
19.4622 14.0
19.5459 19.0
19.6296 14.0
19.7133 19.0
19.797 14.0
19.8807 21.0
19.9644 9.0
20.0481 18.0
20.1318 15.0
20.2155 12.0
20.2992 15.0
20.383 13.0
20.4667 11.0
20.5504 12.0
20.6341 8.0
20.7178 12.0
20.8015 18.0
20.8852 15.0
20.9689 13.0
21.0526 17.0
21.1363 15.0
21.22 10.0
21.3037 15.0
21.3874 12.0
21.4711 10.0
21.5548 12.0
21.6385 6.0
21.7222 20.0
21.8059 16.0
21.8897 14.0
21.9734 12.0
22.0571 15.0
22.1408 12.0
22.2245 16.0
22.3082 12.0
22.3919 14.0
22.4756 16.0
22.5593 7.0
22.643 6.0
22.7267 14.0
22.8104 19.0
22.8941 13.0
22.9778 18.0
23.0615 30.0
23.1452 18.0
23.2289 24.0
23.3126 22.0
23.3964 25.0
23.4801 27.0
23.5638 28.0
23.6475 31.0
23.7312 29.0
23.8149 28.0
23.8986 55.0
23.9823 55.0
24.066 105.0
24.1497 242.0
24.2334 592.0
24.3171 600.0
24.4008 398.0
24.4845 303.0
24.5682 159.0
24.6519 143.0
24.7356 80.0
24.8193 79.0
24.9031 64.0
24.9868 76.0
25.0705 64.0
25.1542 98.0
25.2379 146.0
25.3216 162.0
25.4053 724.0
25.489 13090.0
25.5727 24656.0
25.6564 1040.0
25.7401 417.0
25.8238 213.0
25.9075 191.0
25.9912 143.0
26.0749 109.0
26.1586 92.0
26.2423 58.0
26.326 49.0
26.4098 48.0
26.4935 31.0
26.5772 37.0
26.6609 29.0
26.7446 17.0
26.8283 22.0
26.912 16.0
26.9957 17.0
27.0794 22.0
27.1631 10.0
27.2468 15.0
27.3305 16.0
27.4142 15.0
27.4979 24.0
27.5816 16.0
27.6653 11.0
27.749 14.0
27.8327 21.0
27.9165 21.0
28.0002 21.0
28.0839 11.0
28.1676 14.0
28.2513 12.0
28.335 14.0
28.4187 12.0
28.5024 18.0
28.5861 15.0
28.6698 10.0
28.7535 8.0
28.8372 9.0
28.9209 16.0
29.0046 14.0
29.0883 13.0
29.172 16.0
29.2557 13.0
29.3394 17.0
29.4232 14.0
29.5069 13.0
29.5906 9.0
29.6743 14.0
29.758 11.0
29.8417 16.0
29.9254 11.0
30.0091 6.0
30.0928 6.0
30.1765 12.0
30.2602 6.0
30.3439 6.0
30.4276 9.0
30.5113 9.0
30.595 17.0
30.6787 8.0
30.7624 14.0
30.8461 9.0
30.9298 9.0
31.0136 8.0
31.0973 12.0
31.181 12.0
31.2647 18.0
31.3484 16.0
31.4321 6.0
31.5158 9.0
31.5995 10.0
31.6832 12.0
31.7669 13.0
31.8506 11.0
31.9343 5.0
32.018 8.0
32.1017 14.0
32.1854 9.0
32.2691 11.0
32.3528 11.0
32.4365 12.0
32.5203 7.0
32.604 12.0
32.6877 9.0
32.7714 6.0
32.8551 14.0
32.9388 9.0
33.0225 6.0
33.1062 12.0
33.1899 12.0
33.2736 12.0
33.3573 13.0
33.441 13.0
33.5247 7.0
33.6084 8.0
33.6921 14.0
33.7758 10.0
33.8595 11.0
33.9432 10.0
34.027 12.0
34.1107 13.0
34.1944 11.0
34.2781 7.0
34.3618 17.0
34.4455 11.0
34.5292 9.0
34.6129 8.0
34.6966 12.0
34.7803 9.0
34.864 11.0
34.9477 9.0
35.0314 9.0
35.1151 16.0
35.1988 15.0
35.2825 14.0
35.3662 14.0
35.4499 11.0
35.5337 12.0
35.6174 15.0
35.7011 4.0
35.7848 4.0
35.8685 7.0
35.9522 9.0
36.0359 4.0
36.1196 10.0
36.2033 14.0
36.287 9.0
36.3707 14.0
36.4544 6.0
36.5381 17.0
36.6218 15.0
36.7055 5.0
36.7892 8.0
36.8729 8.0
36.9566 9.0
37.0404 7.0
37.1241 9.0
37.2078 11.0
37.2915 5.0
37.3752 6.0
37.4589 5.0
37.5426 6.0
37.6263 9.0
37.71 10.0
37.7937 9.0
37.8774 11.0
37.9611 16.0
38.0448 14.0
38.1285 15.0
38.2122 15.0
38.2959 6.0
38.3796 16.0
38.4633 10.0
38.5471 5.0
38.6308 9.0
38.7145 11.0
38.7982 13.0
38.8819 12.0
38.9656 4.0
39.0493 8.0
39.133 11.0
39.2167 7.0
39.3004 13.0
39.3841 11.0
39.4678 10.0
39.5515 8.0
39.6352 11.0
39.7189 14.0
39.8026 9.0
39.8863 7.0
39.97 9.0
40.0538 7.0
40.1375 5.0
40.2212 4.0
40.3049 13.0
40.3886 12.0
40.4723 4.0
40.556 10.0
40.6397 10.0
40.7234 11.0
40.8071 11.0
40.8908 12.0
40.9745 12.0
41.0582 5.0
41.1419 14.0
41.2256 10.0
41.3093 11.0
41.393 14.0
41.4767 20.0
41.5605 10.0
41.6442 8.0
41.7279 14.0
41.8116 15.0
41.8953 15.0
41.979 5.0
42.0627 11.0
42.1464 16.0
42.2301 13.0
42.3138 6.0
42.3975 8.0
42.4812 15.0
42.5649 13.0
42.6486 10.0
42.7323 6.0
42.816 16.0
42.8997 10.0
42.9834 18.0
43.0672 17.0
43.1509 15.0
43.2346 9.0
43.3183 14.0
43.402 12.0
43.4857 8.0
43.5694 10.0
43.6531 12.0
43.7368 8.0
43.8205 13.0
43.9042 18.0
43.9879 13.0
44.0716 9.0
44.1553 10.0
44.239 15.0
44.3227 15.0
44.4064 14.0
44.4901 14.0
44.5739 16.0
44.6576 9.0
44.7413 12.0
44.825 8.0
44.9087 8.0
44.9924 9.0
45.0761 6.0
45.1598 10.0
45.2435 13.0
45.3272 13.0
45.4109 15.0
45.4946 12.0
45.5783 17.0
45.662 18.0
45.7457 7.0
45.8294 14.0
45.9131 11.0
45.9968 18.0
46.0806 16.0
46.1643 12.0
46.248 15.0
46.3317 16.0
46.4154 14.0
46.4991 9.0
46.5828 15.0
46.6665 16.0
46.7502 18.0
46.8339 11.0
46.9176 11.0
47.0013 12.0
47.085 86.0
47.1687 43.0
47.2524 14.0
47.3361 15.0
47.4198 15.0
47.5035 13.0
47.5873 11.0
47.671 19.0
47.7547 17.0
47.8384 17.0
47.9221 20.0
48.0058 17.0
48.0895 11.0
48.1732 16.0
48.2569 11.0
48.3406 12.0
48.4243 10.0
48.508 12.0
48.5917 10.0
48.6754 12.0
48.7591 22.0
48.8428 18.0
48.9265 25.0
49.0102 23.0
49.094 25.0
49.1777 22.0
49.2614 20.0
49.3451 36.0
49.4288 35.0
49.5125 40.0
49.5962 84.0
49.6799 138.0
49.7636 171.0
49.8473 222.0
49.931 240.0
50.0147 198.0
50.0984 244.0
50.1821 301.0
50.2658 92.0
50.3495 75.0
50.4332 50.0
50.5169 60.0
50.6007 52.0
50.6844 22.0
50.7681 35.0
50.8518 26.0
50.9355 25.0
51.0192 25.0
51.1029 26.0
51.1866 22.0
51.2703 42.0
51.354 34.0
51.4377 38.0
51.5214 40.0
51.6051 40.0
51.6888 46.0
51.7725 47.0
51.8562 66.0
51.9399 70.0
52.0236 77.0
52.1074 121.0
52.1911 205.0
52.2748 497.0
52.3585 595.0
52.4422 3545.0
52.5259 31008.0
52.6096 11471.0
52.6933 3622.0
52.777 575.0
52.8607 343.0
52.9444 207.0
53.0281 173.0
53.1118 154.0
53.1955 127.0
53.2792 99.0
53.3629 104.0
53.4466 82.0
53.5303 73.0
53.6141 72.0
53.6978 65.0
53.7815 70.0
53.8652 51.0
53.9489 58.0
54.0326 56.0
54.1163 34.0
54.2 29.0
54.2837 34.0
54.3674 33.0
54.4511 24.0
54.5348 24.0
54.6185 20.0
54.7022 24.0
54.7859 17.0
54.8696 22.0
54.9533 31.0
55.037 11.0
55.1208 16.0
55.2045 19.0
55.2882 15.0
55.3719 15.0
55.4556 20.0
55.5393 21.0
55.623 12.0
55.7067 20.0
55.7904 17.0
55.8741 13.0
55.9578 18.0
56.0415 8.0
56.1252 22.0
56.2089 17.0
56.2926 19.0
56.3763 10.0
56.46 12.0
56.5437 17.0
56.6275 12.0
56.7112 16.0
56.7949 14.0
56.8786 13.0
56.9623 18.0
57.046 10.0
57.1297 13.0
57.2134 11.0
57.2971 16.0
57.3808 16.0
57.4645 14.0
57.5482 14.0
57.6319 14.0
57.7156 18.0
57.7993 14.0
57.883 12.0
57.9667 18.0
58.0504 12.0
58.1342 5.0
58.2179 11.0
58.3016 16.0
58.3853 12.0
58.469 10.0
58.5527 12.0
58.6364 8.0
58.7201 5.0
58.8038 12.0
58.8875 12.0
58.9712 6.0
59.0549 17.0
59.1386 16.0
59.2223 13.0
59.306 9.0
59.3897 6.0
59.4734 8.0
59.5571 11.0
59.6409 13.0
59.7246 10.0
59.8083 12.0
59.892 8.0
59.9757 17.0
60.0594 7.0
60.1431 12.0
60.2268 20.0
60.3105 16.0
60.3942 7.0
60.4779 6.0
60.5616 11.0
60.6453 8.0
60.729 15.0
60.8127 13.0
60.8964 13.0
60.9801 11.0
61.0638 15.0
61.1476 8.0
61.2313 11.0
61.315 11.0
61.3987 15.0
61.4824 8.0
61.5661 4.0
61.6498 11.0
61.7335 16.0
61.8172 10.0
61.9009 11.0
61.9846 11.0
62.0683 9.0
62.152 11.0
62.2357 16.0
62.3194 14.0
62.4031 7.0
62.4868 15.0
62.5705 17.0
62.6543 10.0
62.738 11.0
62.8217 7.0
62.9054 6.0
62.9891 11.0
63.0728 13.0
63.1565 10.0
63.2402 12.0
63.3239 8.0
63.4076 16.0
63.4913 15.0
63.575 12.0
63.6587 7.0
63.7424 13.0
63.8261 5.0
63.9098 14.0
63.9935 7.0
64.0772 10.0
64.161 17.0
64.2447 5.0
64.3284 14.0
64.4121 13.0
64.4958 8.0
64.5795 11.0
64.6632 8.0
64.7469 8.0
64.8306 9.0
64.9143 9.0
64.998 11.0
65.0817 17.0
65.1654 15.0
65.2491 21.0
65.3328 10.0
65.4165 9.0
65.5002 8.0
65.5839 5.0
65.6677 11.0
65.7514 13.0
65.8351 10.0
65.9188 6.0
66.0025 10.0
66.0862 14.0
66.1699 14.0
66.2536 15.0
66.3373 11.0
66.421 17.0
66.5047 8.0
66.5884 9.0
66.6721 6.0
66.7558 9.0
66.8395 11.0
66.9232 6.0
67.0069 14.0
67.0906 9.0
67.1744 14.0
67.2581 13.0
67.3418 16.0
67.4255 16.0
67.5092 13.0
67.5929 11.0
67.6766 16.0
67.7603 11.0
67.844 11.0
67.9277 16.0
68.0114 9.0
68.0951 14.0
68.1788 13.0
68.2625 16.0
68.3462 14.0
68.4299 11.0
68.5136 7.0
68.5973 10.0
68.6811 17.0
68.7648 10.0
68.8485 11.0
68.9322 8.0
69.0159 12.0
69.0996 14.0
69.1833 13.0
69.267 10.0
69.3507 11.0
69.4344 6.0
69.5181 11.0
69.6018 10.0
69.6855 16.0
69.7692 16.0
69.8529 11.0
69.9366 9.0
70.0203 13.0
70.104 11.0
70.1878 10.0
70.2715 11.0
70.3552 14.0
70.4389 13.0
70.5226 15.0
70.6063 8.0
70.69 13.0
70.7737 13.0
70.8574 10.0
70.9411 8.0
71.0248 4.0
71.1085 11.0
71.1922 12.0
71.2759 8.0
71.3596 15.0
71.4433 13.0
71.527 8.0
71.6107 11.0
71.6945 11.0
71.7782 15.0
71.8619 10.0
71.9456 10.0
72.0293 8.0
72.113 13.0
72.1967 7.0
72.2804 10.0
72.3641 10.0
72.4478 12.0
72.5315 11.0
72.6152 13.0
72.6989 14.0
72.7826 12.0
72.8663 14.0
72.95 15.0
73.0337 16.0
73.1174 13.0
73.2012 12.0
73.2849 14.0
73.3686 12.0
73.4523 10.0
73.536 16.0
73.6197 15.0
73.7034 13.0
73.7871 14.0
73.8708 19.0
73.9545 12.0
74.0382 13.0
74.1219 10.0
74.2056 12.0
74.2893 13.0
74.373 14.0
74.4567 13.0
74.5404 12.0
74.6241 9.0
74.7079 12.0
74.7916 13.0
74.8753 15.0
74.959 8.0
75.0427 8.0
75.1264 12.0
75.2101 14.0
75.2938 7.0
75.3775 12.0
75.4612 14.0
75.5449 9.0
75.6286 13.0
75.7123 10.0
75.796 15.0
75.8797 12.0
75.9634 14.0
76.0471 5.0
76.1308 7.0
76.2146 10.0
76.2983 7.0
76.382 13.0
76.4657 7.0
76.5494 13.0
76.6331 12.0
76.7168 17.0
76.8005 9.0
76.8842 11.0
76.9679 7.0
77.0516 9.0
77.1353 19.0
77.219 10.0
77.3027 8.0
77.3864 9.0
77.4701 14.0
77.5538 15.0
77.6375 16.0
77.7213 15.0
77.805 9.0
77.8887 7.0
77.9724 15.0
78.0561 15.0
78.1398 20.0
78.2235 23.0
78.3072 13.0
78.3909 12.0
78.4746 23.0
78.5583 19.0
78.642 28.0
78.7257 22.0
78.8094 17.0
78.8931 21.0
78.9768 27.0
79.0605 17.0
79.1442 12.0
79.228 15.0
79.3117 10.0
79.3954 16.0
79.4791 7.0
79.5628 10.0
79.6465 9.0
79.7302 13.0
79.8139 14.0
79.8976 11.0
79.9813 18.0
80.065 11.0
80.1487 8.0
80.2324 12.0
80.3161 15.0
80.3998 17.0
80.4835 14.0
80.5672 14.0
80.6509 16.0
80.7347 11.0
80.8184 14.0
80.9021 10.0
80.9858 12.0
81.0695 10.0
81.1532 8.0
81.2369 8.0
81.3206 11.0
81.4043 11.0
81.488 14.0
81.5717 10.0
81.6554 15.0
81.7391 15.0
81.8228 8.0
81.9065 13.0
81.9902 13.0
82.0739 11.0
82.1576 16.0
82.2414 12.0
82.3251 11.0
82.4088 10.0
82.4925 9.0
82.5762 18.0
82.6599 23.0
82.7436 27.0
82.8273 23.0
82.911 27.0
82.9947 25.0
83.0784 101.0
83.1621 1896.0
83.2458 318.0
83.3295 91.0
83.4132 887.0
83.4969 164.0
83.5806 48.0
83.6643 19.0
83.7481 24.0
83.8318 18.0
83.9155 14.0
83.9992 13.0
84.0829 20.0
84.1666 20.0
84.2503 13.0
84.334 18.0
84.4177 19.0
84.5014 13.0
84.5851 16.0
84.6688 13.0
84.7525 11.0
84.8362 10.0
84.9199 12.0
85.0036 15.0
85.0873 18.0
85.171 20.0
85.2548 17.0
85.3385 10.0
85.4222 10.0
85.5059 10.0
85.5896 11.0
85.6733 15.0
85.757 12.0
85.8407 10.0
85.9244 9.0
86.0081 9.0
86.0918 10.0
86.1755 8.0
86.2592 14.0
86.3429 18.0
86.4266 9.0
86.5103 8.0
86.594 10.0
86.6777 13.0
86.7615 15.0
86.8452 10.0
86.9289 11.0
87.0126 14.0
87.0963 10.0
87.18 18.0
87.2637 11.0
87.3474 13.0
87.4311 13.0
87.5148 10.0
87.5985 9.0
87.6822 10.0
87.7659 5.0
87.8496 12.0
87.9333 6.0
88.017 16.0
88.1007 13.0
88.1844 10.0
88.2682 6.0
88.3519 16.0
88.4356 8.0
88.5193 10.0
88.603 13.0
88.6867 9.0
88.7704 10.0
88.8541 7.0
88.9378 10.0
89.0215 4.0
89.1052 14.0
89.1889 11.0
89.2726 7.0
89.3563 9.0
89.44 11.0
89.5237 13.0
89.6074 10.0
89.6911 14.0
89.7749 4.0
89.8586 9.0
89.9423 11.0
90.026 14.0
90.1097 11.0
90.1934 12.0
90.2771 15.0
90.3608 8.0
90.4445 13.0
90.5282 9.0
90.6119 6.0
90.6956 10.0
90.7793 10.0
90.863 13.0
90.9467 7.0
91.0304 7.0
91.1141 20.0
91.1978 7.0
91.2816 20.0
91.3653 7.0
91.449 13.0
91.5327 9.0
91.6164 6.0
91.7001 6.0
91.7838 19.0
91.8675 10.0
91.9512 11.0
92.0349 8.0
92.1186 6.0
92.2023 10.0
92.286 12.0
92.3697 11.0
92.4534 12.0
92.5371 6.0
92.6208 12.0
92.7045 10.0
92.7883 14.0
92.872 12.0
92.9557 12.0
93.0394 11.0
93.1231 4.0
93.2068 11.0
93.2905 5.0
93.3742 13.0
93.4579 12.0
93.5416 11.0
93.6253 10.0
93.709 19.0
93.7927 10.0
93.8764 7.0
93.9601 9.0
94.0438 10.0
94.1275 9.0
94.2112 12.0
94.295 11.0
94.3787 11.0
94.4624 14.0
94.5461 14.0
94.6298 12.0
94.7135 16.0
94.7972 15.0
94.8809 8.0
94.9646 15.0
95.0483 11.0
95.132 11.0
95.2157 3.0
95.2994 16.0
95.3831 10.0
95.4668 7.0
95.5505 12.0
95.6342 13.0
95.7179 13.0
95.8017 10.0
95.8854 6.0
95.9691 18.0
96.0528 10.0
96.1365 7.0
96.2202 8.0
96.3039 11.0
96.3876 10.0
96.4713 12.0
96.555 10.0
96.6387 9.0
96.7224 5.0
96.8061 9.0
96.8898 5.0
96.9735 5.0
97.0572 10.0
97.1409 6.0
97.2246 13.0
97.3084 9.0
97.3921 9.0
97.4758 9.0
97.5595 10.0
97.6432 10.0
97.7269 10.0
97.8106 5.0
97.8943 13.0
97.978 14.0
98.0617 12.0
98.1454 12.0
98.2291 13.0
98.3128 6.0
98.3965 13.0
98.4802 8.0
98.5639 20.0
98.6476 15.0
98.7313 10.0
98.8151 9.0
98.8988 10.0
98.9825 16.0
99.0662 10.0
99.1499 17.0
99.2336 8.0
99.3173 10.0
99.401 7.0
99.4847 9.0
99.5684 10.0
99.6521 11.0
99.7358 16.0
99.8195 6.0
99.9032 9.0
99.9869 12.0
100.071 7.0
100.154 7.0
100.238 12.0
100.322 5.0
100.405 11.0
100.489 5.0
100.573 7.0
100.657 11.0
100.74 10.0
100.824 15.0
100.908 10.0
100.991 7.0
101.075 18.0
101.159 8.0
101.243 9.0
101.326 13.0
101.41 15.0
101.494 5.0
101.577 8.0
101.661 6.0
101.745 10.0
101.828 14.0
101.912 6.0
101.996 9.0
102.08 14.0
102.163 11.0
102.247 10.0
102.331 17.0
102.414 15.0
102.498 12.0
102.582 16.0
102.666 14.0
102.749 10.0
102.833 10.0
102.917 10.0
103 6.0
103.084 10.0
103.168 16.0
103.251 4.0
103.335 3.0
103.419 12.0
103.503 11.0
103.586 13.0
103.67 3.0
103.754 10.0
103.837 11.0
103.921 12.0
104.005 19.0
104.089 14.0
104.172 7.0
104.256 8.0
104.34 7.0
104.423 9.0
104.507 7.0
104.591 14.0
104.674 9.0
104.758 3.0
104.842 13.0
104.926 15.0
105.009 8.0
105.093 6.0
105.177 10.0
105.26 6.0
105.344 17.0
105.428 7.0
105.511 9.0
105.595 10.0
105.679 3.0
105.763 7.0
105.846 11.0
105.93 10.0
106.014 14.0
106.097 9.0
106.181 18.0
106.265 36.0
106.349 25.0
106.432 23.0
106.516 11.0
106.6 12.0
106.683 15.0
106.767 11.0
106.851 9.0
106.934 12.0
107.018 8.0
107.102 10.0
107.186 9.0
107.269 14.0
107.353 9.0
107.437 10.0
107.52 12.0
107.604 8.0
107.688 14.0
107.772 15.0
107.855 8.0
107.939 13.0
108.023 10.0
108.106 13.0
108.19 5.0
108.274 10.0
108.357 7.0
108.441 12.0
108.525 6.0
108.609 12.0
108.692 8.0
108.776 7.0
108.86 6.0
108.943 6.0
109.027 15.0
109.111 11.0
109.195 9.0
109.278 11.0
109.362 17.0
109.446 13.0
109.529 12.0
109.613 2.0
109.697 16.0
109.78 10.0
109.864 11.0
109.948 4.0
110.032 19.0
110.115 13.0
110.199 14.0
110.283 13.0
110.366 7.0
110.45 12.0
110.534 6.0
110.618 9.0
110.701 12.0
110.785 12.0
110.869 10.0
110.952 5.0
111.036 9.0
111.12 12.0
111.203 16.0
111.287 9.0
111.371 11.0
111.455 11.0
111.538 5.0
111.622 12.0
111.706 14.0
111.789 6.0
111.873 4.0
111.957 10.0
112.041 9.0
112.124 13.0
112.208 12.0
112.292 10.0
112.375 15.0
112.459 9.0
112.543 2.0
112.626 11.0
112.71 11.0
112.794 10.0
112.878 10.0
112.961 16.0
113.045 11.0
113.129 14.0
113.212 12.0
113.296 9.0
113.38 9.0
113.464 15.0
113.547 14.0
113.631 10.0
113.715 12.0
113.798 13.0
113.882 15.0
113.966 14.0
114.049 13.0
114.133 13.0
114.217 9.0
114.301 13.0
114.384 13.0
114.468 12.0
114.552 12.0
114.635 21.0
114.719 14.0
114.803 12.0
114.887 13.0
114.97 8.0
115.054 11.0
115.138 12.0
115.221 12.0
115.305 9.0
115.389 8.0
115.472 13.0
115.556 16.0
115.64 14.0
115.724 15.0
115.807 10.0
115.891 13.0
115.975 24.0
116.058 36.0
116.142 41.0
116.226 19.0
116.31 13.0
116.393 17.0
116.477 13.0
116.561 12.0
116.644 13.0
116.728 10.0
116.812 15.0
116.895 17.0
116.979 17.0
117.063 15.0
117.147 12.0
117.23 11.0
117.314 14.0
117.398 9.0
117.481 21.0
117.565 16.0
117.649 12.0
117.733 17.0
117.816 17.0
117.9 13.0
117.984 12.0
118.067 13.0
118.151 17.0
118.235 9.0
118.318 13.0
118.402 13.0
118.486 11.0
118.57 10.0
118.653 10.0
118.737 12.0
118.821 7.0
118.904 10.0
118.988 10.0
119.072 13.0
119.156 12.0
119.239 12.0
119.323 14.0
119.407 18.0
119.49 11.0
119.574 11.0
119.658 8.0
119.741 17.0
119.825 19.0
119.909 12.0
119.993 25.0
120.076 4.0
120.16 18.0
120.244 11.0
120.327 15.0
120.411 6.0
120.495 15.0
120.578 9.0
120.662 14.0
120.746 17.0
120.83 15.0
120.913 17.0
120.997 14.0
121.081 21.0
121.164 21.0
121.248 20.0
121.332 21.0
121.416 9.0
121.499 9.0
121.583 13.0
121.667 16.0
121.75 15.0
121.834 10.0
121.918 14.0
122.001 13.0
122.085 24.0
122.169 16.0
122.253 14.0
122.336 11.0
122.42 16.0
122.504 11.0
122.587 22.0
122.671 17.0
122.755 15.0
122.839 15.0
122.922 18.0
123.006 27.0
123.09 18.0
123.173 26.0
123.257 21.0
123.341 29.0
123.424 38.0
123.508 40.0
123.592 64.0
123.676 62.0
123.759 60.0
123.843 38.0
123.927 54.0
124.01 51.0
124.094 62.0
124.178 94.0
124.262 134.0
124.345 204.0
124.429 478.0
124.513 1910.0
124.596 8528.0
124.68 1902.0
124.764 559.0
124.847 318.0
124.931 297.0
125.015 667.0
125.099 3098.0
125.182 2513.0
125.266 609.0
125.35 185.0
125.433 122.0
125.517 75.0
125.601 53.0
125.685 54.0
125.768 57.0
125.852 45.0
125.936 43.0
126.019 50.0
126.103 35.0
126.187 25.0
126.27 30.0
126.354 32.0
126.438 29.0
126.522 30.0
126.605 26.0
126.689 37.0
126.773 23.0
126.856 25.0
126.94 32.0
127.024 22.0
127.108 25.0
127.191 22.0
127.275 23.0
127.359 21.0
127.442 23.0
127.526 24.0
127.61 30.0
127.693 12.0
127.777 24.0
127.861 22.0
127.945 24.0
128.028 25.0
128.112 12.0
128.196 15.0
128.279 19.0
128.363 15.0
128.447 17.0
128.531 19.0
128.614 15.0
128.698 19.0
128.782 16.0
128.865 19.0
128.949 19.0
129.033 20.0
129.116 15.0
129.2 29.0
129.284 20.0
129.368 17.0
129.451 27.0
129.535 22.0
129.619 18.0
129.702 17.0
129.786 26.0
129.87 12.0
129.954 14.0
129.998 18.0