File: data/W6903c/XRD_2ThetaOmega/scan_2th-om_c_Cr2O3_35-45deg_PIXscan_4min_C4.xy
35.0021 140.0
35.0119 131.0
35.0218 143.0
35.0316 127.0
35.0415 126.0
35.0513 126.0
35.0611 137.0
35.071 134.0
35.0808 130.0
35.0907 134.0
35.1005 130.0
35.1104 120.0
35.1202 127.0
35.1301 134.0
35.1399 128.0
35.1498 139.0
35.1596 122.0
35.1695 114.0
35.1793 135.0
35.1892 156.0
35.199 132.0
35.2089 139.0
35.2187 128.0
35.2286 136.0
35.2384 117.0
35.2483 137.0
35.2581 129.0
35.268 123.0
35.2778 149.0
35.2876 131.0
35.2975 122.0
35.3073 127.0
35.3172 122.0
35.327 137.0
35.3369 146.0
35.3467 122.0
35.3566 115.0
35.3664 131.0
35.3763 144.0
35.3861 123.0
35.396 153.0
35.4058 133.0
35.4157 139.0
35.4255 154.0
35.4354 143.0
35.4452 132.0
35.4551 151.0
35.4649 142.0
35.4748 142.0
35.4846 156.0
35.4944 134.0
35.5043 122.0
35.5141 141.0
35.524 156.0
35.5338 149.0
35.5437 168.0
35.5535 140.0
35.5634 139.0
35.5732 156.0
35.5831 140.0
35.5929 130.0
35.6028 193.0
35.6126 158.0
35.6225 151.0
35.6323 143.0
35.6422 152.0
35.652 158.0
35.6619 144.0
35.6717 173.0
35.6816 157.0
35.6914 127.0
35.7012 112.0
35.7111 112.0
35.7209 130.0
35.7308 130.0
35.7406 144.0
35.7505 150.0
35.7603 118.0
35.7702 144.0
35.78 136.0
35.7899 123.0
35.7997 126.0
35.8096 128.0
35.8194 142.0
35.8293 127.0
35.8391 131.0
35.849 122.0
35.8588 144.0
35.8687 150.0
35.8785 142.0
35.8884 127.0
35.8982 135.0
35.9081 125.0
35.9179 136.0
35.9277 127.0
35.9376 124.0
35.9474 143.0
35.9573 134.0
35.9671 115.0
35.977 131.0
35.9868 138.0
35.9967 125.0
36.0065 120.0
36.0164 129.0
36.0262 136.0
36.0361 136.0
36.0459 147.0
36.0558 141.0
36.0656 133.0
36.0755 135.0
36.0853 120.0
36.0952 123.0
36.105 112.0
36.1149 112.0
36.1247 146.0
36.1345 128.0
36.1444 126.0
36.1542 115.0
36.1641 128.0
36.1739 135.0
36.1838 148.0
36.1936 146.0
36.2035 119.0
36.2133 152.0
36.2232 149.0
36.233 126.0
36.2429 125.0
36.2527 128.0
36.2626 138.0
36.2724 139.0
36.2823 136.0
36.2921 156.0
36.302 106.0
36.3118 138.0
36.3217 133.0
36.3315 130.0
36.3414 112.0
36.3512 105.0
36.361 140.0
36.3709 141.0
36.3807 133.0
36.3906 134.0
36.4004 114.0
36.4103 130.0
36.4201 126.0
36.43 129.0
36.4398 126.0
36.4497 131.0
36.4595 158.0
36.4694 120.0
36.4792 131.0
36.4891 120.0
36.4989 141.0
36.5088 120.0
36.5186 117.0
36.5285 155.0
36.5383 147.0
36.5482 135.0
36.558 123.0
36.5678 109.0
36.5777 128.0
36.5875 124.0
36.5974 128.0
36.6072 111.0
36.6171 129.0
36.6269 114.0
36.6368 135.0
36.6466 152.0
36.6565 117.0
36.6663 118.0
36.6762 112.0
36.686 117.0
36.6959 138.0
36.7057 139.0
36.7156 149.0
36.7254 129.0
36.7353 137.0
36.7451 128.0
36.755 125.0
36.7648 126.0
36.7747 96.0
36.7845 150.0
36.7943 122.0
36.8042 120.0
36.814 154.0
36.8239 123.0
36.8337 112.0
36.8436 134.0
36.8534 134.0
36.8633 140.0
36.8731 129.0
36.883 119.0
36.8928 116.0
36.9027 114.0
36.9125 134.0
36.9224 136.0
36.9322 138.0
36.9421 138.0
36.9519 128.0
36.9618 117.0
36.9716 121.0
36.9815 124.0
36.9913 133.0
37.0011 135.0
37.011 139.0
37.0208 133.0
37.0307 125.0
37.0405 140.0
37.0504 129.0
37.0602 134.0
37.0701 134.0
37.0799 125.0
37.0898 137.0
37.0996 120.0
37.1095 127.0
37.1193 149.0
37.1292 133.0
37.139 136.0
37.1489 141.0
37.1587 141.0
37.1686 118.0
37.1784 156.0
37.1883 126.0
37.1981 135.0
37.2079 140.0
37.2178 154.0
37.2276 112.0
37.2375 147.0
37.2473 136.0
37.2572 133.0
37.267 140.0
37.2769 146.0
37.2867 132.0
37.2966 136.0
37.3064 137.0
37.3163 121.0
37.3261 138.0
37.336 135.0
37.3458 139.0
37.3557 141.0
37.3655 164.0
37.3754 136.0
37.3852 153.0
37.3951 163.0
37.4049 187.0
37.4148 224.0
37.4246 294.0
37.4344 355.0
37.4443 341.0
37.4541 342.0
37.464 325.0
37.4738 272.0
37.4837 186.0
37.4935 199.0
37.5034 150.0
37.5132 164.0
37.5231 130.0
37.5329 140.0
37.5428 138.0
37.5526 150.0
37.5625 149.0
37.5723 141.0
37.5822 119.0
37.592 126.0
37.6019 126.0
37.6117 150.0
37.6216 129.0
37.6314 137.0
37.6412 132.0
37.6511 133.0
37.6609 146.0
37.6708 126.0
37.6806 133.0
37.6905 139.0
37.7003 154.0
37.7102 131.0
37.72 129.0
37.7299 134.0
37.7397 127.0
37.7496 147.0
37.7594 152.0
37.7693 157.0
37.7791 141.0
37.789 133.0
37.7988 148.0
37.8087 122.0
37.8185 129.0
37.8284 133.0
37.8382 116.0
37.8481 153.0
37.8579 130.0
37.8677 138.0
37.8776 141.0
37.8874 123.0
37.8973 129.0
37.9071 152.0
37.917 152.0
37.9268 132.0
37.9367 137.0
37.9465 149.0
37.9564 157.0
37.9662 146.0
37.9761 135.0
37.9859 128.0
37.9958 144.0
38.0056 163.0
38.0155 131.0
38.0253 143.0
38.0352 140.0
38.045 153.0
38.0549 136.0
38.0647 146.0
38.0745 153.0
38.0844 147.0
38.0942 160.0
38.1041 149.0
38.1139 139.0
38.1238 146.0
38.1336 123.0
38.1435 137.0
38.1533 155.0
38.1632 137.0
38.173 167.0
38.1829 156.0
38.1927 120.0
38.2026 162.0
38.2124 138.0
38.2223 144.0
38.2321 147.0
38.242 125.0
38.2518 157.0
38.2617 160.0
38.2715 146.0
38.2814 161.0
38.2912 167.0
38.301 169.0
38.3109 158.0
38.3207 170.0
38.3306 176.0
38.3404 176.0
38.3503 158.0
38.3601 183.0
38.37 157.0
38.3798 174.0
38.3897 156.0
38.3995 183.0
38.4094 183.0
38.4192 180.0
38.4291 179.0
38.4389 179.0
38.4488 192.0
38.4586 169.0
38.4685 190.0
38.4783 167.0
38.4882 192.0
38.498 183.0
38.5078 177.0
38.5177 175.0
38.5275 167.0
38.5374 186.0
38.5472 198.0
38.5571 173.0
38.5669 206.0
38.5768 182.0
38.5866 197.0
38.5965 205.0
38.6063 206.0
38.6162 212.0
38.626 214.0
38.6359 247.0
38.6457 196.0
38.6556 213.0
38.6654 222.0
38.6753 212.0
38.6851 242.0
38.695 224.0
38.7048 267.0
38.7146 242.0
38.7245 226.0
38.7343 196.0
38.7442 255.0
38.754 282.0
38.7639 283.0
38.7737 269.0
38.7836 290.0
38.7934 284.0
38.8033 277.0
38.8131 285.0
38.823 289.0
38.8328 333.0
38.8427 269.0
38.8525 310.0
38.8624 297.0
38.8722 330.0
38.8821 353.0
38.8919 346.0
38.9018 337.0
38.9116 349.0
38.9215 348.0
38.9313 358.0
38.9411 346.0
38.951 355.0
38.9608 371.0
38.9707 435.0
38.9805 445.0
38.9904 416.0
39.0002 395.0
39.0101 487.0
39.0199 441.0
39.0298 467.0
39.0396 453.0
39.0495 491.0
39.0593 510.0
39.0692 539.0
39.079 559.0
39.0889 548.0
39.0987 561.0
39.1086 604.0
39.1184 616.0
39.1283 657.0
39.1381 633.0
39.1479 725.0
39.1578 684.0
39.1676 778.0
39.1775 805.0
39.1873 849.0
39.1972 859.0
39.207 919.0
39.2169 930.0
39.2267 923.0
39.2366 1008.0
39.2464 1111.0
39.2563 1152.0
39.2661 1198.0
39.276 1302.0
39.2858 1394.0
39.2957 1401.0
39.3055 1508.0
39.3154 1705.0
39.3252 1717.0
39.3351 1777.0
39.3449 1987.0
39.3548 1975.0
39.3646 2218.0
39.3744 2342.0
39.3843 2428.0
39.3941 2642.0
39.404 2779.0
39.4138 2968.0
39.4237 3104.0
39.4335 3405.0
39.4434 3611.0
39.4532 3835.0
39.4631 4021.0
39.4729 4309.0
39.4828 4466.0
39.4926 4781.0
39.5025 4917.0
39.5123 5152.0
39.5222 5260.0
39.532 5219.0
39.5419 5421.0
39.5517 5458.0
39.5616 5372.0
39.5714 5230.0
39.5812 5158.0
39.5911 5180.0
39.6009 4795.0
39.6108 4655.0
39.6206 4513.0
39.6305 4393.0
39.6403 4180.0
39.6502 3880.0
39.66 3673.0
39.6699 3520.0
39.6797 3082.0
39.6896 3011.0
39.6994 2740.0
39.7093 2462.0
39.7191 2190.0
39.729 2048.0
39.7388 1940.0
39.7487 1694.0
39.7585 1570.0
39.7684 1452.0
39.7782 1277.0
39.788 1173.0
39.7979 1034.0
39.8077 1008.0
39.8176 953.0
39.8274 878.0
39.8373 778.0
39.8471 696.0
39.857 695.0
39.8668 643.0
39.8767 552.0
39.8865 505.0
39.8964 547.0
39.9062 491.0
39.9161 478.0
39.9259 436.0
39.9358 461.0
39.9456 395.0
39.9555 374.0
39.9653 374.0
39.9752 326.0
39.985 352.0
39.9949 340.0
40.0047 301.0
40.0145 283.0
40.0244 284.0
40.0342 284.0
40.0441 283.0
40.0539 247.0
40.0638 256.0
40.0736 241.0
40.0835 257.0
40.0933 211.0
40.1032 267.0
40.113 231.0
40.1229 235.0
40.1327 213.0
40.1426 220.0
40.1524 227.0
40.1623 210.0
40.1721 199.0
40.182 186.0
40.1918 203.0
40.2017 197.0
40.2115 175.0
40.2213 183.0
40.2312 178.0
40.241 185.0
40.2509 215.0
40.2607 176.0
40.2706 164.0
40.2804 196.0
40.2903 191.0
40.3001 167.0
40.31 174.0
40.3198 151.0
40.3297 189.0
40.3395 151.0
40.3494 178.0
40.3592 147.0
40.3691 170.0
40.3789 175.0
40.3888 166.0
40.3986 180.0
40.4085 182.0
40.4183 142.0
40.4282 200.0
40.438 167.0
40.4478 164.0
40.4577 158.0
40.4675 163.0
40.4774 164.0
40.4872 203.0
40.4971 151.0
40.5069 173.0
40.5168 163.0
40.5266 161.0
40.5365 179.0
40.5463 184.0
40.5562 159.0
40.566 171.0
40.5759 184.0
40.5857 188.0
40.5956 166.0
40.6054 162.0
40.6153 193.0
40.6251 172.0
40.635 185.0
40.6448 194.0
40.6546 161.0
40.6645 197.0
40.6743 193.0
40.6842 173.0
40.694 210.0
40.7039 189.0
40.7137 192.0
40.7236 173.0
40.7334 178.0
40.7433 202.0
40.7531 172.0
40.763 174.0
40.7728 182.0
40.7827 182.0
40.7925 176.0
40.8024 191.0
40.8122 211.0
40.8221 203.0
40.8319 203.0
40.8418 208.0
40.8516 200.0
40.8615 172.0
40.8713 192.0
40.8811 219.0
40.891 199.0
40.9008 188.0
40.9107 216.0
40.9205 205.0
40.9304 196.0
40.9402 217.0
40.9501 188.0
40.9599 182.0
40.9698 222.0
40.9796 197.0
40.9895 232.0
40.9993 202.0
41.0092 208.0
41.019 204.0
41.0289 226.0
41.0387 230.0
41.0486 226.0
41.0584 221.0
41.0683 218.0
41.0781 216.0
41.0879 240.0
41.0978 267.0
41.1076 224.0
41.1175 214.0
41.1273 232.0
41.1372 255.0
41.147 256.0
41.1569 225.0
41.1667 279.0
41.1766 279.0
41.1864 275.0
41.1963 312.0
41.2061 310.0
41.216 259.0
41.2258 311.0
41.2357 294.0
41.2455 302.0
41.2554 329.0
41.2652 303.0
41.2751 338.0
41.2849 334.0
41.2947 287.0
41.3046 342.0
41.3144 334.0
41.3243 366.0
41.3341 385.0
41.344 382.0
41.3538 406.0
41.3637 473.0
41.3735 486.0
41.3834 574.0
41.3932 631.0
41.4031 815.0
41.4129 850.0
41.4228 945.0
41.4326 975.0
41.4425 1061.0
41.4523 997.0
41.4622 1004.0
41.472 992.0
41.4819 1063.0
41.4917 1021.0
41.5016 1152.0
41.5114 1215.0
41.5212 1478.0
41.5311 1804.0
41.5409 2211.0
41.5508 2990.0
41.5606 4246.0
41.5705 6615.0
41.5803 12656.0
41.5902 29718.0
41.6 51909.0
41.6099 63350.0
41.6197 67368.0
41.6296 67061.0
41.6394 60698.0
41.6493 40861.0
41.6591 19656.0
41.669 10282.0
41.6788 7866.0
41.6887 9369.0
41.6985 16518.0
41.7084 26275.0
41.7182 31953.0
41.728 33533.0
41.7379 33056.0
41.7477 28848.0
41.7576 19705.0
41.7674 10131.0
41.7773 4984.0
41.7871 2944.0
41.797 2049.0
41.8068 1553.0
41.8167 1302.0
41.8265 1063.0
41.8364 958.0
41.8462 837.0
41.8561 772.0
41.8659 725.0
41.8758 657.0
41.8856 636.0
41.8955 533.0
41.9053 519.0
41.9152 479.0
41.925 463.0
41.9349 474.0
41.9447 486.0
41.9545 422.0
41.9644 384.0
41.9742 402.0
41.9841 385.0
41.9939 369.0
42.0038 382.0
42.0136 341.0
42.0235 334.0
42.0333 326.0
42.0432 285.0
42.053 321.0
42.0629 290.0
42.0727 295.0
42.0826 291.0
42.0924 283.0
42.1023 289.0
42.1121 277.0
42.122 219.0
42.1318 291.0
42.1417 232.0
42.1515 260.0
42.1613 272.0
42.1712 226.0
42.181 199.0
42.1909 221.0
42.2007 204.0
42.2106 221.0
42.2204 194.0
42.2303 210.0
42.2401 214.0
42.25 219.0
42.2598 180.0
42.2697 176.0
42.2795 187.0
42.2894 183.0
42.2992 150.0
42.3091 191.0
42.3189 179.0
42.3288 196.0
42.3386 180.0
42.3485 160.0
42.3583 173.0
42.3682 178.0
42.378 190.0
42.3878 165.0
42.3977 157.0
42.4075 174.0
42.4174 149.0
42.4272 193.0
42.4371 163.0
42.4469 136.0
42.4568 161.0
42.4666 165.0
42.4765 137.0
42.4863 160.0
42.4962 174.0
42.506 172.0
42.5159 158.0
42.5257 160.0
42.5356 163.0
42.5454 157.0
42.5553 160.0
42.5651 144.0
42.575 160.0
42.5848 133.0
42.5946 156.0
42.6045 168.0
42.6143 156.0
42.6242 156.0
42.634 145.0
42.6439 147.0
42.6537 144.0
42.6636 155.0
42.6734 148.0
42.6833 154.0
42.6931 168.0
42.703 162.0
42.7128 145.0
42.7227 139.0
42.7325 151.0
42.7424 137.0
42.7522 148.0
42.7621 136.0
42.7719 156.0
42.7818 140.0
42.7916 161.0
42.8014 137.0
42.8113 145.0
42.8211 134.0
42.831 162.0
42.8408 130.0
42.8507 146.0
42.8605 152.0
42.8704 158.0
42.8802 140.0
42.8901 143.0
42.8999 139.0
42.9098 171.0
42.9196 146.0
42.9295 149.0
42.9393 136.0
42.9492 135.0
42.959 158.0
42.9689 123.0
42.9787 137.0
42.9886 142.0
42.9984 149.0
43.0083 150.0
43.0181 143.0
43.0279 143.0
43.0378 119.0
43.0476 139.0
43.0575 132.0
43.0673 142.0
43.0772 152.0
43.087 157.0
43.0969 150.0
43.1067 139.0
43.1166 133.0
43.1264 124.0
43.1363 142.0
43.1461 162.0
43.156 132.0
43.1658 136.0
43.1757 137.0
43.1855 153.0
43.1954 138.0
43.2052 155.0
43.2151 124.0
43.2249 154.0
43.2347 144.0
43.2446 135.0
43.2544 139.0
43.2643 165.0
43.2741 162.0
43.284 140.0
43.2938 134.0
43.3037 147.0
43.3135 138.0
43.3234 144.0
43.3332 132.0
43.3431 137.0
43.3529 141.0
43.3628 160.0
43.3726 143.0
43.3825 133.0
43.3923 135.0
43.4022 132.0
43.412 122.0
43.4219 154.0
43.4317 139.0
43.4416 142.0
43.4514 138.0
43.4612 178.0
43.4711 141.0
43.4809 133.0
43.4908 139.0
43.5006 131.0
43.5105 149.0
43.5203 139.0
43.5302 123.0
43.54 128.0
43.5499 134.0
43.5597 151.0
43.5696 155.0
43.5794 144.0
43.5893 140.0
43.5991 132.0
43.609 128.0
43.6188 141.0
43.6287 152.0
43.6385 149.0
43.6484 133.0
43.6582 133.0
43.668 158.0
43.6779 139.0
43.6877 145.0
43.6976 142.0
43.7074 155.0
43.7173 159.0
43.7271 148.0
43.737 140.0
43.7468 132.0
43.7567 130.0
43.7665 149.0
43.7764 169.0
43.7862 133.0
43.7961 139.0
43.8059 162.0
43.8158 127.0
43.8256 141.0
43.8355 154.0
43.8453 149.0
43.8552 146.0
43.865 150.0
43.8749 162.0
43.8847 130.0
43.8945 141.0
43.9044 128.0
43.9142 165.0
43.9241 134.0
43.9339 137.0
43.9438 151.0
43.9536 145.0
43.9635 133.0
43.9733 172.0
43.9832 154.0
43.993 150.0
44.0029 150.0
44.0127 157.0
44.0226 153.0
44.0324 154.0
44.0423 155.0
44.0521 147.0
44.062 192.0
44.0718 167.0
44.0817 190.0
44.0915 167.0
44.1013 165.0
44.1112 146.0
44.121 184.0
44.1309 161.0
44.1407 173.0
44.1506 154.0
44.1604 177.0
44.1703 164.0
44.1801 172.0
44.19 182.0
44.1998 214.0
44.2097 202.0
44.2195 207.0
44.2294 206.0
44.2392 225.0
44.2491 206.0
44.2589 215.0
44.2688 214.0
44.2786 240.0
44.2885 204.0
44.2983 219.0
44.3081 239.0
44.318 260.0
44.3278 271.0
44.3377 267.0
44.3475 264.0
44.3574 269.0
44.3672 289.0
44.3771 264.0
44.3869 279.0
44.3968 292.0
44.4066 296.0
44.4165 277.0
44.4263 319.0
44.4362 256.0
44.446 300.0
44.4559 267.0
44.4657 271.0
44.4756 262.0
44.4854 272.0
44.4953 246.0
44.5051 271.0
44.515 286.0
44.5248 249.0
44.5346 232.0
44.5445 220.0
44.5543 235.0
44.5642 239.0
44.574 218.0
44.5839 201.0
44.5937 197.0
44.6036 189.0
44.6134 207.0
44.6233 200.0
44.6331 218.0
44.643 168.0
44.6528 180.0
44.6627 187.0
44.6725 173.0
44.6824 172.0
44.6922 179.0
44.7021 175.0
44.7119 164.0
44.7218 154.0
44.7316 177.0
44.7414 184.0
44.7513 146.0
44.7611 175.0
44.771 154.0
44.7808 136.0
44.7907 179.0
44.8005 150.0
44.8104 158.0
44.8202 132.0
44.8301 149.0
44.8399 148.0
44.8498 158.0
44.8596 140.0
44.8695 156.0
44.8793 143.0
44.8892 119.0
44.899 158.0
44.9089 128.0
44.9187 139.0
44.9286 132.0
44.9384 124.0
44.9483 120.0
44.9581 138.0
44.9679 134.0
44.9778 136.0
44.9876 129.0
44.9975 129.0