File: data/W6784m/XRD_2ThetaOmega/W6784m_absolute_2th-om_10-130deg_PIXscan_17min_2.xy
10.0035 31.0
10.0872 21.0
10.1709 23.0
10.2546 27.0
10.3383 27.0
10.422 18.0
10.5057 21.0
10.5894 30.0
10.6731 14.0
10.7568 29.0
10.8405 28.0
10.9242 26.0
11.0079 31.0
11.0916 25.0
11.1753 21.0
11.259 23.0
11.3428 25.0
11.4265 22.0
11.5102 23.0
11.5939 25.0
11.6776 16.0
11.7613 24.0
11.845 22.0
11.9287 16.0
12.0124 18.0
12.0961 30.0
12.1798 23.0
12.2635 26.0
12.3472 20.0
12.4309 16.0
12.5146 26.0
12.5983 13.0
12.682 23.0
12.7657 23.0
12.8495 19.0
12.9332 21.0
13.0169 18.0
13.1006 22.0
13.1843 20.0
13.268 18.0
13.3517 18.0
13.4354 12.0
13.5191 10.0
13.6028 14.0
13.6865 13.0
13.7702 13.0
13.8539 26.0
13.9376 24.0
14.0213 17.0
14.105 22.0
14.1887 14.0
14.2724 13.0
14.3562 21.0
14.4399 19.0
14.5236 15.0
14.6073 15.0
14.691 12.0
14.7747 18.0
14.8584 20.0
14.9421 18.0
15.0258 16.0
15.1095 19.0
15.1932 14.0
15.2769 20.0
15.3606 15.0
15.4443 11.0
15.528 19.0
15.6117 13.0
15.6954 21.0
15.7791 15.0
15.8629 22.0
15.9466 16.0
16.0303 22.0
16.114 18.0
16.1977 14.0
16.2814 17.0
16.3651 13.0
16.4488 11.0
16.5325 13.0
16.6162 23.0
16.6999 13.0
16.7836 14.0
16.8673 13.0
16.951 14.0
17.0347 17.0
17.1184 22.0
17.2021 24.0
17.2858 12.0
17.3696 15.0
17.4533 19.0
17.537 23.0
17.6207 17.0
17.7044 13.0
17.7881 14.0
17.8718 25.0
17.9555 11.0
18.0392 12.0
18.1229 16.0
18.2066 15.0
18.2903 25.0
18.374 18.0
18.4577 14.0
18.5414 21.0
18.6251 22.0
18.7088 12.0
18.7925 12.0
18.8763 9.0
18.96 11.0
19.0437 14.0
19.1274 12.0
19.2111 23.0
19.2948 9.0
19.3785 13.0
19.4622 6.0
19.5459 16.0
19.6296 10.0
19.7133 17.0
19.797 12.0
19.8807 27.0
19.9644 13.0
20.0481 22.0
20.1318 17.0
20.2155 12.0
20.2992 23.0
20.383 17.0
20.4667 17.0
20.5504 7.0
20.6341 10.0
20.7178 21.0
20.8015 18.0
20.8852 15.0
20.9689 11.0
21.0526 12.0
21.1363 11.0
21.22 15.0
21.3037 14.0
21.3874 11.0
21.4711 11.0
21.5548 16.0
21.6385 12.0
21.7222 13.0
21.8059 10.0
21.8897 9.0
21.9734 11.0
22.0571 17.0
22.1408 19.0
22.2245 12.0
22.3082 14.0
22.3919 8.0
22.4756 11.0
22.5593 17.0
22.643 19.0
22.7267 8.0
22.8104 6.0
22.8941 10.0
22.9778 8.0
23.0615 13.0
23.1452 11.0
23.2289 10.0
23.3126 15.0
23.3964 14.0
23.4801 16.0
23.5638 9.0
23.6475 8.0
23.7312 12.0
23.8149 9.0
23.8986 14.0
23.9823 10.0
24.066 8.0
24.1497 11.0
24.2334 22.0
24.3171 9.0
24.4008 10.0
24.4845 11.0
24.5682 11.0
24.6519 15.0
24.7356 10.0
24.8193 16.0
24.9031 9.0
24.9868 11.0
25.0705 12.0
25.1542 5.0
25.2379 14.0
25.3216 10.0
25.4053 9.0
25.489 10.0
25.5727 8.0
25.6564 9.0
25.7401 8.0
25.8238 17.0
25.9075 13.0
25.9912 6.0
26.0749 9.0
26.1586 11.0
26.2423 13.0
26.326 15.0
26.4098 10.0
26.4935 18.0
26.5772 8.0
26.6609 9.0
26.7446 11.0
26.8283 10.0
26.912 11.0
26.9957 15.0
27.0794 11.0
27.1631 7.0
27.2468 21.0
27.3305 4.0
27.4142 19.0
27.4979 9.0
27.5816 18.0
27.6653 9.0
27.749 8.0
27.8327 1.0
27.9165 9.0
28.0002 17.0
28.0839 10.0
28.1676 10.0
28.2513 10.0
28.335 8.0
28.4187 13.0
28.5024 8.0
28.5861 12.0
28.6698 12.0
28.7535 11.0
28.8372 16.0
28.9209 9.0
29.0046 12.0
29.0883 9.0
29.172 7.0
29.2557 9.0
29.3394 10.0
29.4232 11.0
29.5069 16.0
29.5906 9.0
29.6743 8.0
29.758 16.0
29.8417 6.0
29.9254 14.0
30.0091 13.0
30.0928 4.0
30.1765 6.0
30.2602 9.0
30.3439 11.0
30.4276 6.0
30.5113 16.0
30.595 12.0
30.6787 5.0
30.7624 11.0
30.8461 12.0
30.9298 9.0
31.0136 10.0
31.0973 9.0
31.181 11.0
31.2647 11.0
31.3484 3.0
31.4321 12.0
31.5158 7.0
31.5995 8.0
31.6832 6.0
31.7669 8.0
31.8506 15.0
31.9343 7.0
32.018 13.0
32.1017 12.0
32.1854 10.0
32.2691 13.0
32.3528 17.0
32.4365 10.0
32.5203 12.0
32.604 19.0
32.6877 8.0
32.7714 15.0
32.8551 13.0
32.9388 13.0
33.0225 11.0
33.1062 6.0
33.1899 12.0
33.2736 14.0
33.3573 5.0
33.441 11.0
33.5247 13.0
33.6084 10.0
33.6921 9.0
33.7758 17.0
33.8595 9.0
33.9432 10.0
34.027 11.0
34.1107 13.0
34.1944 9.0
34.2781 12.0
34.3618 11.0
34.4455 11.0
34.5292 2.0
34.6129 10.0
34.6966 8.0
34.7803 6.0
34.864 15.0
34.9477 12.0
35.0314 6.0
35.1151 15.0
35.1988 18.0
35.2825 10.0
35.3662 9.0
35.4499 10.0
35.5337 11.0
35.6174 12.0
35.7011 11.0
35.7848 8.0
35.8685 7.0
35.9522 10.0
36.0359 12.0
36.1196 17.0
36.2033 7.0
36.287 9.0
36.3707 9.0
36.4544 6.0
36.5381 7.0
36.6218 7.0
36.7055 13.0
36.7892 13.0
36.8729 8.0
36.9566 6.0
37.0404 7.0
37.1241 15.0
37.2078 11.0
37.2915 8.0
37.3752 9.0
37.4589 15.0
37.5426 7.0
37.6263 16.0
37.71 8.0
37.7937 19.0
37.8774 11.0
37.9611 12.0
38.0448 8.0
38.1285 16.0
38.2122 13.0
38.2959 14.0
38.3796 9.0
38.4633 14.0
38.5471 8.0
38.6308 8.0
38.7145 10.0
38.7982 11.0
38.8819 6.0
38.9656 10.0
39.0493 15.0
39.133 7.0
39.2167 11.0
39.3004 10.0
39.3841 14.0
39.4678 8.0
39.5515 14.0
39.6352 14.0
39.7189 6.0
39.8026 12.0
39.8863 6.0
39.97 8.0
40.0538 7.0
40.1375 14.0
40.2212 11.0
40.3049 9.0
40.3886 8.0
40.4723 15.0
40.556 11.0
40.6397 13.0
40.7234 9.0
40.8071 12.0
40.8908 6.0
40.9745 16.0
41.0582 9.0
41.1419 9.0
41.2256 7.0
41.3093 6.0
41.393 10.0
41.4767 10.0
41.5605 10.0
41.6442 9.0
41.7279 12.0
41.8116 5.0
41.8953 8.0
41.979 9.0
42.0627 9.0
42.1464 13.0
42.2301 11.0
42.3138 11.0
42.3975 7.0
42.4812 19.0
42.5649 14.0
42.6486 9.0
42.7323 14.0
42.816 12.0
42.8997 12.0
42.9834 10.0
43.0672 15.0
43.1509 13.0
43.2346 8.0
43.3183 12.0
43.402 13.0
43.4857 13.0
43.5694 12.0
43.6531 8.0
43.7368 9.0
43.8205 11.0
43.9042 12.0
43.9879 12.0
44.0716 15.0
44.1553 14.0
44.239 4.0
44.3227 19.0
44.4064 21.0
44.4901 10.0
44.5739 15.0
44.6576 13.0
44.7413 15.0
44.825 22.0
44.9087 14.0
44.9924 17.0
45.0761 15.0
45.1598 8.0
45.2435 19.0
45.3272 4.0
45.4109 8.0
45.4946 12.0
45.5783 6.0
45.662 8.0
45.7457 14.0
45.8294 15.0
45.9131 11.0
45.9968 6.0
46.0806 19.0
46.1643 14.0
46.248 15.0
46.3317 11.0
46.4154 9.0
46.4991 13.0
46.5828 9.0
46.6665 16.0
46.7502 11.0
46.8339 8.0
46.9176 9.0
47.0013 11.0
47.085 9.0
47.1687 8.0
47.2524 7.0
47.3361 15.0
47.4198 16.0
47.5035 11.0
47.5873 3.0
47.671 14.0
47.7547 8.0
47.8384 7.0
47.9221 7.0
48.0058 16.0
48.0895 12.0
48.1732 13.0
48.2569 16.0
48.3406 10.0
48.4243 17.0
48.508 16.0
48.5917 11.0
48.6754 11.0
48.7591 14.0
48.8428 16.0
48.9265 16.0
49.0102 16.0
49.094 12.0
49.1777 6.0
49.2614 16.0
49.3451 12.0
49.4288 11.0
49.5125 20.0
49.5962 10.0
49.6799 9.0
49.7636 12.0
49.8473 10.0
49.931 13.0
50.0147 10.0
50.0984 9.0
50.1821 8.0
50.2658 10.0
50.3495 8.0
50.4332 15.0
50.5169 9.0
50.6007 10.0
50.6844 12.0
50.7681 13.0
50.8518 11.0
50.9355 5.0
51.0192 5.0
51.1029 10.0
51.1866 14.0
51.2703 8.0
51.354 14.0
51.4377 15.0
51.5214 11.0
51.6051 7.0
51.6888 7.0
51.7725 9.0
51.8562 11.0
51.9399 15.0
52.0236 17.0
52.1074 13.0
52.1911 18.0
52.2748 11.0
52.3585 10.0
52.4422 9.0
52.5259 22.0
52.6096 15.0
52.6933 13.0
52.777 6.0
52.8607 9.0
52.9444 11.0
53.0281 11.0
53.1118 14.0
53.1955 14.0
53.2792 13.0
53.3629 14.0
53.4466 14.0
53.5303 3.0
53.6141 12.0
53.6978 10.0
53.7815 5.0
53.8652 9.0
53.9489 12.0
54.0326 9.0
54.1163 12.0
54.2 10.0
54.2837 11.0
54.3674 13.0
54.4511 15.0
54.5348 14.0
54.6185 7.0
54.7022 12.0
54.7859 11.0
54.8696 14.0
54.9533 16.0
55.037 8.0
55.1208 13.0
55.2045 11.0
55.2882 10.0
55.3719 7.0
55.4556 12.0
55.5393 21.0
55.623 8.0
55.7067 7.0
55.7904 19.0
55.8741 9.0
55.9578 8.0
56.0415 11.0
56.1252 9.0
56.2089 12.0
56.2926 3.0
56.3763 18.0
56.46 15.0
56.5437 12.0
56.6275 11.0
56.7112 7.0
56.7949 14.0
56.8786 10.0
56.9623 10.0
57.046 15.0
57.1297 12.0
57.2134 13.0
57.2971 18.0
57.3808 7.0
57.4645 20.0
57.5482 16.0
57.6319 13.0
57.7156 17.0
57.7993 11.0
57.883 13.0
57.9667 14.0
58.0504 12.0
58.1342 10.0
58.2179 13.0
58.3016 6.0
58.3853 8.0
58.469 13.0
58.5527 10.0
58.6364 7.0
58.7201 15.0
58.8038 8.0
58.8875 10.0
58.9712 8.0
59.0549 14.0
59.1386 10.0
59.2223 14.0
59.306 13.0
59.3897 14.0
59.4734 10.0
59.5571 9.0
59.6409 4.0
59.7246 17.0
59.8083 3.0
59.892 14.0
59.9757 11.0
60.0594 10.0
60.1431 13.0
60.2268 19.0
60.3105 13.0
60.3942 8.0
60.4779 8.0
60.5616 5.0
60.6453 11.0
60.729 10.0
60.8127 62.0
60.8964 31.0
60.9801 21.0
61.0638 13.0
61.1476 16.0
61.2313 16.0
61.315 12.0
61.3987 10.0
61.4824 18.0
61.5661 16.0
61.6498 22.0
61.7335 17.0
61.8172 15.0
61.9009 17.0
61.9846 21.0
62.0683 17.0
62.152 10.0
62.2357 10.0
62.3194 18.0
62.4031 18.0
62.4868 19.0
62.5705 13.0
62.6543 16.0
62.738 16.0
62.8217 11.0
62.9054 11.0
62.9891 22.0
63.0728 23.0
63.1565 17.0
63.2402 25.0
63.3239 20.0
63.4076 19.0
63.4913 24.0
63.575 26.0
63.6587 24.0
63.7424 36.0
63.8261 53.0
63.9098 40.0
63.9935 49.0
64.0772 56.0
64.161 87.0
64.2447 145.0
64.3284 191.0
64.4121 269.0
64.4958 379.0
64.5795 462.0
64.6632 486.0
64.7469 444.0
64.8306 308.0
64.9143 305.0
64.998 231.0
65.0817 127.0
65.1654 65.0
65.2491 61.0
65.3328 37.0
65.4165 41.0
65.5002 47.0
65.5839 43.0
65.6677 23.0
65.7514 15.0
65.8351 27.0
65.9188 16.0
66.0025 26.0
66.0862 17.0
66.1699 20.0
66.2536 28.0
66.3373 24.0
66.421 26.0
66.5047 32.0
66.5884 19.0
66.6721 28.0
66.7558 31.0
66.8395 34.0
66.9232 38.0
67.0069 31.0
67.0906 44.0
67.1744 46.0
67.2581 51.0
67.3418 47.0
67.4255 57.0
67.5092 56.0
67.5929 71.0
67.6766 80.0
67.7603 152.0
67.844 295.0
67.9277 276.0
68.0114 504.0
68.0951 2636.0
68.1788 27851.0
68.2625 1833.0
68.3462 15770.0
68.4299 1628.0
68.5136 524.0
68.5973 328.0
68.6811 188.0
68.7648 151.0
68.8485 144.0
68.9322 86.0
69.0159 106.0
69.0996 92.0
69.1833 80.0
69.267 49.0
69.3507 75.0
69.4344 59.0
69.5181 61.0
69.6018 49.0
69.6855 51.0
69.7692 48.0
69.8529 49.0
69.9366 45.0
70.0203 49.0
70.104 40.0
70.1878 30.0
70.2715 45.0
70.3552 30.0
70.4389 39.0
70.5226 26.0
70.6063 38.0
70.69 31.0
70.7737 44.0
70.8574 26.0
70.9411 22.0
71.0248 28.0
71.1085 21.0
71.1922 21.0
71.2759 23.0
71.3596 24.0
71.4433 19.0
71.527 15.0
71.6107 25.0
71.6945 16.0
71.7782 24.0
71.8619 20.0
71.9456 19.0
72.0293 15.0
72.113 19.0
72.1967 13.0
72.2804 18.0
72.3641 15.0
72.4478 16.0
72.5315 21.0
72.6152 13.0
72.6989 12.0
72.7826 12.0
72.8663 17.0
72.95 16.0
73.0337 15.0
73.1174 14.0
73.2012 19.0
73.2849 13.0
73.3686 16.0
73.4523 14.0
73.536 25.0
73.6197 11.0
73.7034 16.0
73.7871 12.0
73.8708 11.0
73.9545 12.0
74.0382 18.0
74.1219 16.0
74.2056 13.0
74.2893 13.0
74.373 20.0
74.4567 17.0
74.5404 17.0
74.6241 13.0
74.7079 14.0
74.7916 20.0
74.8753 14.0
74.959 15.0
75.0427 15.0
75.1264 18.0
75.2101 21.0
75.2938 19.0
75.3775 18.0
75.4612 17.0
75.5449 14.0
75.6286 12.0
75.7123 10.0
75.796 17.0
75.8797 16.0
75.9634 20.0
76.0471 17.0
76.1308 12.0
76.2146 11.0
76.2983 5.0
76.382 18.0
76.4657 12.0
76.5494 14.0
76.6331 16.0
76.7168 18.0
76.8005 10.0
76.8842 10.0
76.9679 12.0
77.0516 20.0
77.1353 21.0
77.219 14.0
77.3027 17.0
77.3864 13.0
77.4701 20.0
77.5538 16.0
77.6375 14.0
77.7213 13.0
77.805 16.0
77.8887 9.0
77.9724 20.0
78.0561 16.0
78.1398 10.0
78.2235 15.0
78.3072 12.0
78.3909 12.0
78.4746 11.0
78.5583 17.0
78.642 19.0
78.7257 20.0
78.8094 13.0
78.8931 10.0
78.9768 15.0
79.0605 14.0
79.1442 17.0
79.228 11.0
79.3117 9.0
79.3954 9.0
79.4791 14.0
79.5628 14.0
79.6465 13.0
79.7302 18.0
79.8139 16.0
79.8976 8.0
79.9813 13.0
80.065 12.0
80.1487 16.0
80.2324 19.0
80.3161 17.0
80.3998 13.0
80.4835 8.0
80.5672 7.0
80.6509 19.0
80.7347 15.0
80.8184 13.0
80.9021 10.0
80.9858 11.0
81.0695 9.0
81.1532 8.0
81.2369 11.0
81.3206 16.0
81.4043 16.0
81.488 15.0
81.5717 11.0
81.6554 19.0
81.7391 14.0
81.8228 8.0
81.9065 23.0
81.9902 11.0
82.0739 20.0
82.1576 12.0
82.2414 12.0
82.3251 13.0
82.4088 12.0
82.4925 13.0
82.5762 18.0
82.6599 10.0
82.7436 14.0
82.8273 11.0
82.911 8.0
82.9947 23.0
83.0784 14.0
83.1621 21.0
83.2458 9.0
83.3295 11.0
83.4132 19.0
83.4969 13.0
83.5806 12.0
83.6643 9.0
83.7481 27.0
83.8318 18.0
83.9155 10.0
83.9992 14.0
84.0829 7.0
84.1666 7.0
84.2503 12.0
84.334 13.0
84.4177 17.0
84.5014 10.0
84.5851 17.0
84.6688 15.0
84.7525 11.0
84.8362 10.0
84.9199 19.0
85.0036 15.0
85.0873 18.0
85.171 19.0
85.2548 17.0
85.3385 14.0
85.4222 23.0
85.5059 16.0
85.5896 7.0
85.6733 9.0
85.757 11.0
85.8407 14.0
85.9244 13.0
86.0081 11.0
86.0918 9.0
86.1755 16.0
86.2592 17.0
86.3429 13.0
86.4266 12.0
86.5103 18.0
86.594 18.0
86.6777 16.0
86.7615 17.0
86.8452 13.0
86.9289 10.0
87.0126 18.0
87.0963 9.0
87.18 17.0
87.2637 10.0
87.3474 21.0
87.4311 11.0
87.5148 7.0
87.5985 23.0
87.6822 13.0
87.7659 22.0
87.8496 9.0
87.9333 17.0
88.017 20.0
88.1007 6.0
88.1844 18.0
88.2682 13.0
88.3519 13.0
88.4356 13.0
88.5193 16.0
88.603 11.0
88.6867 14.0
88.7704 15.0
88.8541 10.0
88.9378 12.0
89.0215 9.0
89.1052 12.0
89.1889 11.0
89.2726 15.0
89.3563 15.0
89.44 7.0
89.5237 12.0
89.6074 11.0
89.6911 10.0
89.7749 14.0
89.8586 18.0
89.9423 19.0
90.026 13.0
90.1097 10.0
90.1934 13.0
90.2771 15.0
90.3608 13.0
90.4445 15.0
90.5282 11.0
90.6119 13.0
90.6956 11.0
90.7793 23.0
90.863 19.0
90.9467 14.0
91.0304 15.0
91.1141 13.0
91.1978 15.0
91.2816 16.0
91.3653 12.0
91.449 19.0
91.5327 21.0
91.6164 11.0
91.7001 7.0
91.7838 15.0
91.8675 12.0
91.9512 15.0
92.0349 23.0
92.1186 16.0
92.2023 13.0
92.286 17.0
92.3697 14.0
92.4534 11.0
92.5371 13.0
92.6208 19.0
92.7045 11.0
92.7883 12.0
92.872 14.0
92.9557 9.0
93.0394 9.0
93.1231 13.0
93.2068 13.0
93.2905 12.0
93.3742 20.0
93.4579 13.0
93.5416 14.0
93.6253 13.0
93.709 14.0
93.7927 10.0
93.8764 17.0
93.9601 14.0
94.0438 10.0
94.1275 14.0
94.2112 11.0
94.295 9.0
94.3787 13.0
94.4624 21.0
94.5461 10.0
94.6298 20.0
94.7135 11.0
94.7972 18.0
94.8809 12.0
94.9646 14.0
95.0483 9.0
95.132 8.0
95.2157 15.0
95.2994 17.0
95.3831 13.0
95.4668 15.0
95.5505 16.0
95.6342 9.0
95.7179 17.0
95.8017 6.0
95.8854 18.0
95.9691 14.0
96.0528 10.0
96.1365 14.0
96.2202 19.0
96.3039 19.0
96.3876 8.0
96.4713 17.0
96.555 10.0
96.6387 15.0
96.7224 12.0
96.8061 5.0
96.8898 15.0
96.9735 17.0
97.0572 17.0
97.1409 11.0
97.2246 18.0
97.3084 14.0
97.3921 16.0
97.4758 19.0
97.5595 14.0
97.6432 10.0
97.7269 19.0
97.8106 7.0
97.8943 21.0
97.978 11.0
98.0617 19.0
98.1454 11.0
98.2291 14.0
98.3128 13.0
98.3965 19.0
98.4802 19.0
98.5639 16.0
98.6476 16.0
98.7313 18.0
98.8151 12.0
98.8988 21.0
98.9825 19.0
99.0662 28.0
99.1499 15.0
99.2336 14.0
99.3173 11.0
99.401 11.0
99.4847 17.0
99.5684 19.0
99.6521 21.0
99.7358 26.0
99.8195 15.0
99.9032 16.0
99.9869 10.0
100.071 17.0
100.154 17.0
100.238 21.0
100.322 11.0
100.405 14.0
100.489 17.0
100.573 9.0
100.657 18.0
100.74 9.0
100.824 14.0
100.908 18.0
100.991 10.0
101.075 10.0
101.159 9.0
101.243 13.0
101.326 19.0
101.41 14.0
101.494 14.0
101.577 13.0
101.661 13.0
101.745 13.0
101.828 5.0
101.912 20.0
101.996 14.0
102.08 18.0
102.163 17.0
102.247 15.0
102.331 16.0
102.414 12.0
102.498 18.0
102.582 20.0
102.666 12.0
102.749 16.0
102.833 15.0
102.917 12.0
103 14.0
103.084 13.0
103.168 9.0
103.251 11.0
103.335 12.0
103.419 17.0
103.503 19.0
103.586 11.0
103.67 15.0
103.754 15.0
103.837 18.0
103.921 17.0
104.005 16.0
104.089 13.0
104.172 13.0
104.256 10.0
104.34 15.0
104.423 14.0
104.507 18.0
104.591 19.0
104.674 8.0
104.758 13.0
104.842 11.0
104.926 13.0
105.009 6.0
105.093 8.0
105.177 16.0
105.26 14.0
105.344 14.0
105.428 11.0
105.511 12.0
105.595 11.0
105.679 10.0
105.763 14.0
105.846 10.0
105.93 14.0
106.014 10.0
106.097 16.0
106.181 11.0
106.265 25.0
106.349 15.0
106.432 14.0
106.516 13.0
106.6 22.0
106.683 17.0
106.767 20.0
106.851 13.0
106.934 20.0
107.018 21.0
107.102 16.0
107.186 20.0
107.269 16.0
107.353 10.0
107.437 13.0
107.52 12.0
107.604 15.0
107.688 10.0
107.772 13.0
107.855 21.0
107.939 15.0
108.023 11.0
108.106 19.0
108.19 11.0
108.274 21.0
108.357 13.0
108.441 13.0
108.525 24.0
108.609 16.0
108.692 19.0
108.776 14.0
108.86 15.0
108.943 10.0
109.027 13.0
109.111 15.0
109.195 11.0
109.278 14.0
109.362 16.0
109.446 18.0
109.529 15.0
109.613 17.0
109.697 14.0
109.78 14.0
109.864 14.0
109.948 11.0
110.032 12.0
110.115 14.0
110.199 11.0
110.283 9.0
110.366 12.0
110.45 17.0
110.534 14.0
110.618 14.0
110.701 15.0
110.785 18.0
110.869 10.0
110.952 15.0
111.036 21.0
111.12 15.0
111.203 12.0
111.287 14.0
111.371 18.0
111.455 20.0
111.538 14.0
111.622 12.0
111.706 19.0
111.789 14.0
111.873 17.0
111.957 10.0
112.041 15.0
112.124 12.0
112.208 21.0
112.292 13.0
112.375 12.0
112.459 13.0
112.543 16.0
112.626 12.0
112.71 10.0
112.794 10.0
112.878 13.0
112.961 12.0
113.045 16.0
113.129 16.0
113.212 13.0
113.296 13.0
113.38 16.0
113.464 16.0
113.547 8.0
113.631 16.0
113.715 18.0
113.798 16.0
113.882 13.0
113.966 11.0
114.049 10.0
114.133 12.0
114.217 14.0
114.301 8.0
114.384 13.0
114.468 15.0
114.552 15.0
114.635 13.0
114.719 16.0
114.803 15.0
114.887 12.0
114.97 11.0
115.054 8.0
115.138 17.0
115.221 18.0
115.305 19.0
115.389 16.0
115.472 14.0
115.556 10.0
115.64 18.0
115.724 14.0
115.807 15.0
115.891 19.0
115.975 21.0
116.058 17.0
116.142 16.0
116.226 18.0
116.31 18.0
116.393 18.0
116.477 23.0
116.561 18.0
116.644 10.0
116.728 11.0
116.812 16.0
116.895 14.0
116.979 10.0
117.063 14.0
117.147 6.0
117.23 19.0
117.314 12.0
117.398 15.0
117.481 14.0
117.565 19.0
117.649 15.0
117.733 9.0
117.816 15.0
117.9 12.0
117.984 18.0
118.067 10.0
118.151 15.0
118.235 17.0
118.318 7.0
118.402 12.0
118.486 11.0
118.57 15.0
118.653 21.0
118.737 8.0
118.821 18.0
118.904 6.0
118.988 10.0
119.072 11.0
119.156 13.0
119.239 19.0
119.323 14.0
119.407 18.0
119.49 11.0
119.574 14.0
119.658 12.0
119.741 16.0
119.825 18.0
119.909 10.0
119.993 17.0
120.076 10.0
120.16 17.0
120.244 10.0
120.327 16.0
120.411 17.0
120.495 12.0
120.578 19.0
120.662 15.0
120.746 8.0
120.83 13.0
120.913 20.0
120.997 19.0
121.081 13.0
121.164 17.0
121.248 15.0
121.332 20.0
121.416 10.0
121.499 18.0
121.583 18.0
121.667 15.0
121.75 4.0
121.834 20.0
121.918 19.0
122.001 11.0
122.085 11.0
122.169 15.0
122.253 21.0
122.336 16.0
122.42 12.0
122.504 15.0
122.587 17.0
122.671 11.0
122.755 17.0
122.839 9.0
122.922 17.0
123.006 21.0
123.09 8.0
123.173 13.0
123.257 12.0
123.341 14.0
123.424 11.0
123.508 18.0
123.592 11.0
123.676 12.0
123.759 16.0
123.843 20.0
123.927 16.0
124.01 16.0
124.094 18.0
124.178 12.0
124.262 13.0
124.345 14.0
124.429 14.0
124.513 18.0
124.596 18.0
124.68 16.0
124.764 15.0
124.847 17.0
124.931 15.0
125.015 24.0
125.099 13.0
125.182 13.0
125.266 24.0
125.35 20.0
125.433 24.0
125.517 12.0
125.601 11.0
125.685 18.0
125.768 11.0
125.852 23.0
125.936 18.0
126.019 9.0
126.103 10.0
126.187 13.0
126.27 20.0
126.354 15.0
126.438 20.0
126.522 17.0
126.605 13.0
126.689 18.0
126.773 9.0
126.856 15.0
126.94 13.0
127.024 16.0
127.108 8.0
127.191 17.0
127.275 17.0
127.359 14.0
127.442 12.0
127.526 21.0
127.61 15.0
127.693 12.0
127.777 9.0
127.861 18.0
127.945 20.0
128.028 11.0
128.112 20.0
128.196 10.0
128.279 10.0
128.363 21.0
128.447 11.0
128.531 12.0
128.614 16.0
128.698 14.0
128.782 11.0
128.865 13.0
128.949 14.0
129.033 21.0
129.116 19.0
129.2 16.0
129.284 21.0
129.368 22.0
129.451 18.0
129.535 16.0
129.619 16.0
129.702 13.0
129.786 13.0
129.87 11.0
129.954 20.0
129.998 18.0