File: data/W6723/XRD_2ThetaOmega/W6723_absolute_2th-om_10-100deg.xy
10.0045 25.0
10.0685 24.0
10.1325 32.0
10.1965 16.0
10.2605 22.0
10.3245 28.0
10.3885 31.0
10.4525 16.0
10.5165 20.0
10.5806 24.0
10.6446 23.0
10.7086 19.0
10.7726 26.0
10.8366 21.0
10.9006 16.0
10.9646 21.0
11.0286 20.0
11.0926 17.0
11.1566 19.0
11.2207 19.0
11.2847 24.0
11.3487 22.0
11.4127 25.0
11.4767 16.0
11.5407 23.0
11.6047 10.0
11.6687 23.0
11.7327 14.0
11.7967 18.0
11.8608 11.0
11.9248 14.0
11.9888 16.0
12.0528 25.0
12.1168 18.0
12.1808 19.0
12.2448 22.0
12.3088 18.0
12.3728 24.0
12.4368 19.0
12.5009 11.0
12.5649 19.0
12.6289 28.0
12.6929 16.0
12.7569 19.0
12.8209 16.0
12.8849 23.0
12.9489 9.0
13.0129 16.0
13.0769 22.0
13.141 14.0
13.205 28.0
13.269 11.0
13.333 10.0
13.397 27.0
13.461 15.0
13.525 17.0
13.589 20.0
13.653 18.0
13.717 15.0
13.7811 10.0
13.8451 13.0
13.9091 14.0
13.9731 13.0
14.0371 16.0
14.1011 19.0
14.1651 16.0
14.2291 18.0
14.2931 11.0
14.3572 17.0
14.4212 16.0
14.4852 19.0
14.5492 16.0
14.6132 12.0
14.6772 12.0
14.7412 14.0
14.8052 16.0
14.8692 14.0
14.9332 22.0
14.9973 9.0
15.0613 9.0
15.1253 11.0
15.1893 12.0
15.2533 10.0
15.3173 14.0
15.3813 17.0
15.4453 13.0
15.5093 19.0
15.5733 14.0
15.6374 13.0
15.7014 15.0
15.7654 13.0
15.8294 13.0
15.8934 13.0
15.9574 15.0
16.0214 13.0
16.0854 9.0
16.1494 18.0
16.2134 14.0
16.2775 10.0
16.3415 14.0
16.4055 13.0
16.4695 5.0
16.5335 14.0
16.5975 14.0
16.6615 21.0
16.7255 19.0
16.7895 14.0
16.8535 16.0
16.9176 12.0
16.9816 17.0
17.0456 9.0
17.1096 8.0
17.1736 11.0
17.2376 5.0
17.3016 13.0
17.3656 12.0
17.4296 13.0
17.4936 10.0
17.5577 5.0
17.6217 7.0
17.6857 9.0
17.7497 12.0
17.8137 12.0
17.8777 17.0
17.9417 13.0
18.0057 10.0
18.0697 12.0
18.1337 9.0
18.1978 9.0
18.2618 9.0
18.3258 9.0
18.3898 10.0
18.4538 9.0
18.5178 12.0
18.5818 5.0
18.6458 8.0
18.7098 8.0
18.7738 10.0
18.8379 10.0
18.9019 7.0
18.9659 17.0
19.0299 7.0
19.0939 6.0
19.1579 5.0
19.2219 14.0
19.2859 15.0
19.3499 6.0
19.414 12.0
19.478 14.0
19.542 9.0
19.606 9.0
19.67 13.0
19.734 6.0
19.798 11.0
19.862 14.0
19.926 13.0
19.99 13.0
20.0541 13.0
20.1181 7.0
20.1821 9.0
20.2461 6.0
20.3101 10.0
20.3741 7.0
20.4381 8.0
20.5021 5.0
20.5661 11.0
20.6301 5.0
20.6942 8.0
20.7582 15.0
20.8222 5.0
20.8862 8.0
20.9502 14.0
21.0142 9.0
21.0782 12.0
21.1422 5.0
21.2062 5.0
21.2702 12.0
21.3343 4.0
21.3983 6.0
21.4623 6.0
21.5263 10.0
21.5903 7.0
21.6543 8.0
21.7183 6.0
21.7823 6.0
21.8463 1.0
21.9103 7.0
21.9744 7.0
22.0384 13.0
22.1024 8.0
22.1664 4.0
22.2304 8.0
22.2944 6.0
22.3584 12.0
22.4224 5.0
22.4864 6.0
22.5504 7.0
22.6145 6.0
22.6785 9.0
22.7425 8.0
22.8065 9.0
22.8705 13.0
22.9345 7.0
22.9985 8.0
23.0625 9.0
23.1265 9.0
23.1905 2.0
23.2546 3.0
23.3186 8.0
23.3826 8.0
23.4466 6.0
23.5106 7.0
23.5746 8.0
23.6386 6.0
23.7026 4.0
23.7666 3.0
23.8306 6.0
23.8947 4.0
23.9587 1.0
24.0227 3.0
24.0867 9.0
24.1507 5.0
24.2147 2.0
24.2787 11.0
24.3427 4.0
24.4067 10.0
24.4708 10.0
24.5348 4.0
24.5988 5.0
24.6628 6.0
24.7268 7.0
24.7908 6.0
24.8548 11.0
24.9188 8.0
24.9828 4.0
25.0468 4.0
25.1109 6.0
25.1749 7.0
25.2389 7.0
25.3029 5.0
25.3669 8.0
25.4309 7.0
25.4949 2.0
25.5589 2.0
25.6229 6.0
25.6869 3.0
25.751 10.0
25.815 5.0
25.879 2.0
25.943 6.0
26.007 3.0
26.071 9.0
26.135 6.0
26.199 8.0
26.263 4.0
26.327 2.0
26.3911 3.0
26.4551 4.0
26.5191 5.0
26.5831 5.0
26.6471 8.0
26.7111 5.0
26.7751 3.0
26.8391 2.0
26.9031 2.0
26.9671 7.0
27.0312 5.0
27.0952 0.0
27.1592 5.0
27.2232 5.0
27.2872 1.0
27.3512 3.0
27.4152 7.0
27.4792 3.0
27.5432 4.0
27.6072 3.0
27.6713 7.0
27.7353 5.0
27.7993 4.0
27.8633 6.0
27.9273 1.0
27.9913 2.0
28.0553 4.0
28.1193 7.0
28.1833 5.0
28.2473 8.0
28.3114 5.0
28.3754 5.0
28.4394 6.0
28.5034 3.0
28.5674 3.0
28.6314 7.0
28.6954 11.0
28.7594 2.0
28.8234 2.0
28.8874 5.0
28.9515 3.0
29.0155 5.0
29.0795 1.0
29.1435 6.0
29.2075 4.0
29.2715 3.0
29.3355 5.0
29.3995 3.0
29.4635 3.0
29.5276 1.0
29.5916 5.0
29.6556 8.0
29.7196 6.0
29.7836 8.0
29.8476 3.0
29.9116 0.0
29.9756 3.0
30.0396 4.0
30.1036 9.0
30.1677 4.0
30.2317 5.0
30.2957 1.0
30.3597 7.0
30.4237 1.0
30.4877 2.0
30.5517 4.0
30.6157 5.0
30.6797 4.0
30.7437 2.0
30.8078 5.0
30.8718 2.0
30.9358 3.0
30.9998 4.0
31.0638 0.0
31.1278 8.0
31.1918 4.0
31.2558 1.0
31.3198 1.0
31.3838 6.0
31.4479 1.0
31.5119 1.0
31.5759 0.0
31.6399 5.0
31.7039 4.0
31.7679 3.0
31.8319 1.0
31.8959 2.0
31.9599 1.0
32.0239 4.0
32.088 7.0
32.152 1.0
32.216 8.0
32.28 4.0
32.344 5.0
32.408 8.0
32.472 1.0
32.536 3.0
32.6 6.0
32.664 5.0
32.7281 3.0
32.7921 4.0
32.8561 3.0
32.9201 4.0
32.9841 8.0
33.0481 3.0
33.1121 5.0
33.1761 5.0
33.2401 5.0
33.3041 1.0
33.3682 2.0
33.4322 8.0
33.4962 4.0
33.5602 5.0
33.6242 3.0
33.6882 3.0
33.7522 0.0
33.8162 1.0
33.8802 2.0
33.9442 3.0
34.0083 2.0
34.0723 4.0
34.1363 1.0
34.2003 6.0
34.2643 2.0
34.3283 1.0
34.3923 2.0
34.4563 1.0
34.5203 1.0
34.5844 1.0
34.6484 1.0
34.7124 7.0
34.7764 4.0
34.8404 2.0
34.9044 2.0
34.9684 3.0
35.0324 1.0
35.0964 1.0
35.1604 4.0
35.2245 2.0
35.2885 1.0
35.3525 6.0
35.4165 6.0
35.4805 0.0
35.5445 4.0
35.6085 3.0
35.6725 1.0
35.7365 4.0
35.8005 0.0
35.8646 3.0
35.9286 5.0
35.9926 2.0
36.0566 2.0
36.1206 2.0
36.1846 3.0
36.2486 4.0
36.3126 5.0
36.3766 3.0
36.4406 3.0
36.5047 5.0
36.5687 1.0
36.6327 5.0
36.6967 3.0
36.7607 2.0
36.8247 0.0
36.8887 2.0
36.9527 3.0
37.0167 3.0
37.0807 2.0
37.1448 1.0
37.2088 2.0
37.2728 6.0
37.3368 7.0
37.4008 7.0
37.4648 2.0
37.5288 3.0
37.5928 2.0
37.6568 3.0
37.7208 1.0
37.7849 2.0
37.8489 6.0
37.9129 6.0
37.9769 1.0
38.0409 4.0
38.1049 0.0
38.1689 5.0
38.2329 0.0
38.2969 1.0
38.3609 1.0
38.425 1.0
38.489 5.0
38.553 3.0
38.617 2.0
38.681 2.0
38.745 5.0
38.809 2.0
38.873 1.0
38.937 1.0
39.001 4.0
39.0651 1.0
39.1291 0.0
39.1931 1.0
39.2571 1.0
39.3211 3.0
39.3851 1.0
39.4491 0.0
39.5131 2.0
39.5771 1.0
39.6412 2.0
39.7052 4.0
39.7692 7.0
39.8332 4.0
39.8972 0.0
39.9612 4.0
40.0252 4.0
40.0892 3.0
40.1532 0.0
40.2172 1.0
40.2813 2.0
40.3453 0.0
40.4093 3.0
40.4733 0.0
40.5373 2.0
40.6013 5.0
40.6653 0.0
40.7293 4.0
40.7933 0.0
40.8573 1.0
40.9214 3.0
40.9854 2.0
41.0494 1.0
41.1134 2.0
41.1774 1.0
41.2414 2.0
41.3054 2.0
41.3694 1.0
41.4334 4.0
41.4974 0.0
41.5615 1.0
41.6255 0.0
41.6895 2.0
41.7535 3.0
41.8175 2.0
41.8815 0.0
41.9455 2.0
42.0095 5.0
42.0735 2.0
42.1375 0.0
42.2016 2.0
42.2656 3.0
42.3296 4.0
42.3936 1.0
42.4576 1.0
42.5216 3.0
42.5856 1.0
42.6496 5.0
42.7136 1.0
42.7776 0.0
42.8417 3.0
42.9057 2.0
42.9697 0.0
43.0337 0.0
43.0977 0.0
43.1617 1.0
43.2257 3.0
43.2897 4.0
43.3537 4.0
43.4177 2.0
43.4818 0.0
43.5458 0.0
43.6098 1.0
43.6738 2.0
43.7378 4.0
43.8018 1.0
43.8658 2.0
43.9298 0.0
43.9938 0.0
44.0579 3.0
44.1219 4.0
44.1859 0.0
44.2499 3.0
44.3139 3.0
44.3779 7.0
44.4419 5.0
44.5059 5.0
44.5699 5.0
44.6339 3.0
44.698 0.0
44.762 2.0
44.826 4.0
44.89 0.0
44.954 0.0
45.018 0.0
45.082 5.0
45.146 4.0
45.21 1.0
45.274 3.0
45.3381 3.0
45.4021 1.0
45.4661 4.0
45.5301 0.0
45.5941 4.0
45.6581 2.0
45.7221 0.0
45.7861 6.0
45.8501 1.0
45.9141 3.0
45.9782 1.0
46.0422 3.0
46.1062 2.0
46.1702 1.0
46.2342 1.0
46.2982 3.0
46.3622 0.0
46.4262 3.0
46.4902 2.0
46.5542 0.0
46.6183 2.0
46.6823 0.0
46.7463 1.0
46.8103 1.0
46.8743 1.0
46.9383 2.0
47.0023 2.0
47.0663 4.0
47.1303 2.0
47.1943 1.0
47.2584 2.0
47.3224 1.0
47.3864 0.0
47.4504 2.0
47.5144 0.0
47.5784 1.0
47.6424 3.0
47.7064 5.0
47.7704 6.0
47.8344 2.0
47.8985 4.0
47.9625 3.0
48.0265 0.0
48.0905 1.0
48.1545 1.0
48.2185 2.0
48.2825 6.0
48.3465 0.0
48.4105 2.0
48.4745 1.0
48.5386 2.0
48.6026 0.0
48.6666 1.0
48.7306 1.0
48.7946 0.0
48.8586 2.0
48.9226 1.0
48.9866 2.0
49.0506 3.0
49.1147 4.0
49.1787 0.0
49.2427 0.0
49.3067 1.0
49.3707 1.0
49.4347 4.0
49.4987 2.0
49.5627 1.0
49.6267 4.0
49.6907 5.0
49.7548 5.0
49.8188 3.0
49.8828 2.0
49.9468 2.0
50.0108 0.0
50.0748 3.0
50.1388 0.0
50.2028 4.0
50.2668 1.0
50.3308 2.0
50.3949 1.0
50.4589 1.0
50.5229 3.0
50.5869 0.0
50.6509 0.0
50.7149 2.0
50.7789 0.0
50.8429 2.0
50.9069 4.0
50.9709 0.0
51.035 2.0
51.099 3.0
51.163 1.0
51.227 0.0
51.291 2.0
51.355 2.0
51.419 5.0
51.483 2.0
51.547 3.0
51.611 2.0
51.6751 1.0
51.7391 2.0
51.8031 5.0
51.8671 0.0
51.9311 1.0
51.9951 1.0
52.0591 2.0
52.1231 3.0
52.1871 1.0
52.2511 1.0
52.3152 2.0
52.3792 2.0
52.4432 0.0
52.5072 2.0
52.5712 0.0
52.6352 3.0
52.6992 3.0
52.7632 4.0
52.8272 1.0
52.8912 3.0
52.9553 2.0
53.0193 3.0
53.0833 1.0
53.1473 1.0
53.2113 2.0
53.2753 3.0
53.3393 4.0
53.4033 1.0
53.4673 1.0
53.5313 3.0
53.5954 3.0
53.6594 0.0
53.7234 3.0
53.7874 6.0
53.8514 10.0
53.9154 3.0
53.9794 3.0
54.0434 0.0
54.1074 4.0
54.1715 4.0
54.2355 4.0
54.2995 4.0
54.3635 1.0
54.4275 5.0
54.4915 2.0
54.5555 3.0
54.6195 6.0
54.6835 6.0
54.7475 1.0
54.8116 7.0
54.8756 2.0
54.9396 5.0
55.0036 1.0
55.0676 4.0
55.1316 3.0
55.1956 4.0
55.2596 4.0
55.3236 1.0
55.3876 2.0
55.4517 4.0
55.5157 12.0
55.5797 17.0
55.6437 2.0
55.7077 4.0
55.7717 3.0
55.8357 2.0
55.8997 0.0
55.9637 3.0
56.0277 1.0
56.0918 8.0
56.1558 1.0
56.2198 4.0
56.2838 4.0
56.3478 3.0
56.4118 5.0
56.4758 2.0
56.5398 5.0
56.6038 4.0
56.6678 3.0
56.7319 5.0
56.7959 0.0
56.8599 2.0
56.9239 1.0
56.9879 2.0
57.0519 1.0
57.1159 0.0
57.1799 1.0
57.2439 3.0
57.3079 0.0
57.372 1.0
57.436 1.0
57.5 2.0
57.564 1.0
57.628 3.0
57.692 4.0
57.756 4.0
57.82 1.0
57.884 3.0
57.948 4.0
58.0121 4.0
58.0761 1.0
58.1401 2.0
58.2041 2.0
58.2681 3.0
58.3321 0.0
58.3961 2.0
58.4601 3.0
58.5241 3.0
58.5881 5.0
58.6522 2.0
58.7162 1.0
58.7802 2.0
58.8442 2.0
58.9082 2.0
58.9722 1.0
59.0362 7.0
59.1002 1.0
59.1642 0.0
59.2283 6.0
59.2923 0.0
59.3563 0.0
59.4203 3.0
59.4843 4.0
59.5483 2.0
59.6123 2.0
59.6763 1.0
59.7403 5.0
59.8043 2.0
59.8684 2.0
59.9324 0.0
59.9964 2.0
60.0604 3.0
60.1244 4.0
60.1884 5.0
60.2524 7.0
60.3164 3.0
60.3804 5.0
60.4444 4.0
60.5085 7.0
60.5725 6.0
60.6365 4.0
60.7005 5.0
60.7645 17.0
60.8285 106.0
60.8925 56.0
60.9565 17.0
61.0205 5.0
61.0845 4.0
61.1486 2.0
61.2126 2.0
61.2766 1.0
61.3406 6.0
61.4046 4.0
61.4686 2.0
61.5326 5.0
61.5966 8.0
61.6606 5.0
61.7246 7.0
61.7887 7.0
61.8527 4.0
61.9167 6.0
61.9807 9.0
62.0447 6.0
62.1087 4.0
62.1727 8.0
62.2367 4.0
62.3007 4.0
62.3647 3.0
62.4288 5.0
62.4928 5.0
62.5568 8.0
62.6208 6.0
62.6848 11.0
62.7488 3.0
62.8128 7.0
62.8768 5.0
62.9408 4.0
63.0048 4.0
63.0689 3.0
63.1329 5.0
63.1969 6.0
63.2609 12.0
63.3249 5.0
63.3889 12.0
63.4529 14.0
63.5169 13.0
63.5809 12.0
63.6449 16.0
63.709 8.0
63.773 8.0
63.837 8.0
63.901 12.0
63.965 24.0
64.029 14.0
64.093 22.0
64.157 23.0
64.221 30.0
64.2851 26.0
64.3491 42.0
64.4131 36.0
64.4771 69.0
64.5411 66.0
64.6051 109.0
64.6691 132.0
64.7331 192.0
64.7971 158.0
64.8611 192.0
64.9252 286.0
64.9892 277.0
65.0532 123.0
65.1172 53.0
65.1812 34.0
65.2452 32.0
65.3092 23.0
65.3732 28.0
65.4372 24.0
65.5012 39.0
65.5653 24.0
65.6293 14.0
65.6933 15.0
65.7573 17.0
65.8213 18.0
65.8853 18.0
65.9493 18.0
66.0133 15.0
66.0773 18.0
66.1413 30.0
66.2054 20.0
66.2694 23.0
66.3334 16.0
66.3974 18.0
66.4614 24.0
66.5254 23.0
66.5894 23.0
66.6534 34.0
66.7174 20.0
66.7814 25.0
66.8455 42.0
66.9095 36.0
66.9735 37.0
67.0375 34.0
67.1015 38.0
67.1655 47.0
67.2295 61.0
67.2935 55.0
67.3575 65.0
67.4215 66.0
67.4856 84.0
67.5496 72.0
67.6136 110.0
67.6776 122.0
67.7416 194.0
67.8056 385.0
67.8696 391.0
67.9336 394.0
67.9976 689.0
68.0616 1757.0
68.1257 24937.0
68.1897 17011.0
68.2537 2248.0
68.3177 12323.0
68.3817 9795.0
68.4457 1090.0
68.5097 510.0
68.5737 350.0
68.6377 192.0
68.7017 157.0
68.7658 139.0
68.8298 123.0
68.8938 122.0
68.9578 88.0
69.0218 91.0
69.0858 74.0
69.1498 55.0
69.2138 60.0
69.2778 46.0
69.3419 46.0
69.4059 35.0
69.4699 35.0
69.5339 40.0
69.5979 33.0
69.6619 27.0
69.7259 25.0
69.7899 32.0
69.8539 25.0
69.9179 28.0
69.982 17.0
70.046 20.0
70.11 15.0
70.174 14.0
70.238 19.0
70.302 5.0
70.366 15.0
70.43 11.0
70.494 11.0
70.558 9.0
70.6221 13.0
70.6861 7.0
70.7501 7.0
70.8141 7.0
70.8781 7.0
70.9421 8.0
71.0061 7.0
71.0701 4.0
71.1341 14.0
71.1981 4.0
71.2622 7.0
71.3262 4.0
71.3902 6.0
71.4542 3.0
71.5182 7.0
71.5822 6.0
71.6462 6.0
71.7102 6.0
71.7742 5.0
71.8382 10.0
71.9023 8.0
71.9663 2.0
72.0303 6.0
72.0943 9.0
72.1583 5.0
72.2223 5.0
72.2863 8.0
72.3503 5.0
72.4143 9.0
72.4783 5.0
72.5424 3.0
72.6064 8.0
72.6704 2.0
72.7344 5.0
72.7984 9.0
72.8624 4.0
72.9264 5.0
72.9904 2.0
73.0544 4.0
73.1184 3.0
73.1825 4.0
73.2465 2.0
73.3105 1.0
73.3745 7.0
73.4385 4.0
73.5025 4.0
73.5665 8.0
73.6305 4.0
73.6945 3.0
73.7585 6.0
73.8226 4.0
73.8866 4.0
73.9506 4.0
74.0146 2.0
74.0786 4.0
74.1426 3.0
74.2066 3.0
74.2706 1.0
74.3346 0.0
74.3987 6.0
74.4627 2.0
74.5267 4.0
74.5907 3.0
74.6547 3.0
74.7187 2.0
74.7827 7.0
74.8467 0.0
74.9107 0.0
74.9747 3.0
75.0388 1.0
75.1028 5.0
75.1668 2.0
75.2308 4.0
75.2948 2.0
75.3588 2.0
75.4228 2.0
75.4868 8.0
75.5508 1.0
75.6148 5.0
75.6789 5.0
75.7429 0.0
75.8069 7.0
75.8709 1.0
75.9349 1.0
75.9989 5.0
76.0629 0.0
76.1269 0.0
76.1909 4.0
76.2549 2.0
76.319 5.0
76.383 2.0
76.447 3.0
76.511 4.0
76.575 0.0
76.639 1.0
76.703 3.0
76.767 5.0
76.831 3.0
76.895 4.0
76.9591 3.0
77.0231 0.0
77.0871 2.0
77.1511 1.0
77.2151 1.0
77.2791 3.0
77.3431 0.0
77.4071 0.0
77.4711 1.0
77.5351 3.0
77.5992 1.0
77.6632 3.0
77.7272 1.0
77.7912 1.0
77.8552 5.0
77.9192 0.0
77.9832 1.0
78.0472 2.0
78.1112 1.0
78.1752 2.0
78.2393 3.0
78.3033 2.0
78.3673 1.0
78.4313 1.0
78.4953 2.0
78.5593 3.0
78.6233 1.0
78.6873 1.0
78.7513 1.0
78.8153 0.0
78.8794 1.0
78.9434 3.0
79.0074 2.0
79.0714 2.0
79.1354 0.0
79.1994 3.0
79.2634 2.0
79.3274 3.0
79.3914 0.0
79.4555 0.0
79.5195 1.0
79.5835 3.0
79.6475 1.0
79.7115 4.0
79.7755 0.0
79.8395 0.0
79.9035 2.0
79.9675 2.0
80.0315 0.0
80.0956 3.0
80.1596 1.0
80.2236 1.0
80.2876 2.0
80.3516 2.0
80.4156 5.0
80.4796 0.0
80.5436 2.0
80.6076 0.0
80.6716 0.0
80.7357 1.0
80.7997 5.0
80.8637 1.0
80.9277 4.0
80.9917 1.0
81.0557 2.0
81.1197 0.0
81.1837 3.0
81.2477 2.0
81.3117 2.0
81.3758 2.0
81.4398 1.0
81.5038 1.0
81.5678 2.0
81.6318 0.0
81.6958 3.0
81.7598 1.0
81.8238 5.0
81.8878 2.0
81.9518 3.0
82.0159 0.0
82.0799 1.0
82.1439 1.0
82.2079 0.0
82.2719 2.0
82.3359 0.0
82.3999 3.0
82.4639 0.0
82.5279 0.0
82.5919 0.0
82.656 3.0
82.72 2.0
82.784 1.0
82.848 1.0
82.912 0.0
82.976 0.0
83.04 1.0
83.104 1.0
83.168 4.0
83.232 0.0
83.2961 3.0
83.3601 0.0
83.4241 1.0
83.4881 1.0
83.5521 2.0
83.6161 4.0
83.6801 0.0
83.7441 4.0
83.8081 3.0
83.8721 4.0
83.9362 0.0
84.0002 7.0
84.0642 0.0
84.1282 0.0
84.1922 0.0
84.2562 2.0
84.3202 0.0
84.3842 7.0
84.4482 1.0
84.5123 1.0
84.5763 1.0
84.6403 5.0
84.7043 3.0
84.7683 3.0
84.8323 2.0
84.8963 1.0
84.9603 0.0
85.0243 0.0
85.0883 0.0
85.1524 1.0
85.2164 3.0
85.2804 1.0
85.3444 4.0
85.4084 0.0
85.4724 3.0
85.5364 1.0
85.6004 0.0
85.6644 2.0
85.7284 3.0
85.7925 0.0
85.8565 3.0
85.9205 2.0
85.9845 3.0
86.0485 1.0
86.1125 2.0
86.1765 1.0
86.2405 0.0
86.3045 3.0
86.3685 1.0
86.4326 3.0
86.4966 0.0
86.5606 1.0
86.6246 0.0
86.6886 1.0
86.7526 2.0
86.8166 2.0
86.8806 4.0
86.9446 3.0
87.0086 2.0
87.0727 1.0
87.1367 0.0
87.2007 0.0
87.2647 1.0
87.3287 2.0
87.3927 3.0
87.4567 2.0
87.5207 0.0
87.5847 1.0
87.6487 0.0
87.7128 1.0
87.7768 2.0
87.8408 2.0
87.9048 0.0
87.9688 1.0
88.0328 3.0
88.0968 2.0
88.1608 0.0
88.2248 2.0
88.2888 5.0
88.3529 0.0
88.4169 3.0
88.4809 6.0
88.5449 0.0
88.6089 2.0
88.6729 0.0
88.7369 1.0
88.8009 0.0
88.8649 0.0
88.9289 1.0
88.993 3.0
89.057 0.0
89.121 3.0
89.185 2.0
89.249 2.0
89.313 2.0
89.377 2.0
89.441 1.0
89.505 0.0
89.5691 1.0
89.6331 1.0
89.6971 1.0
89.7611 2.0
89.8251 1.0
89.8891 1.0
89.9531 1.0
90.0171 2.0
90.0811 1.0
90.1451 0.0
90.2092 0.0
90.2732 1.0
90.3372 2.0
90.4012 2.0
90.4652 1.0
90.5292 3.0
90.5932 0.0
90.6572 0.0
90.7212 0.0
90.7852 1.0
90.8493 1.0
90.9133 1.0
90.9773 6.0
91.0413 1.0
91.1053 1.0
91.1693 0.0
91.2333 5.0
91.2973 3.0
91.3613 1.0
91.4253 3.0
91.4894 2.0
91.5534 1.0
91.6174 0.0
91.6814 0.0
91.7454 1.0
91.8094 5.0
91.8734 0.0
91.9374 0.0
92.0014 3.0
92.0654 2.0
92.1295 0.0
92.1935 4.0
92.2575 4.0
92.3215 0.0
92.3855 0.0
92.4495 2.0
92.5135 0.0
92.5775 1.0
92.6415 2.0
92.7055 0.0
92.7696 0.0
92.8336 0.0
92.8976 1.0
92.9616 0.0
93.0256 1.0
93.0896 2.0
93.1536 0.0
93.2176 0.0
93.2816 0.0
93.3456 2.0
93.4097 2.0
93.4737 1.0
93.5377 1.0
93.6017 1.0
93.6657 1.0
93.7297 4.0
93.7937 2.0
93.8577 0.0
93.9217 0.0
93.9858 3.0
94.0498 3.0
94.1138 0.0
94.1778 1.0
94.2418 1.0
94.3058 0.0
94.3698 0.0
94.4338 1.0
94.4978 4.0
94.5618 1.0
94.6259 1.0
94.6899 3.0
94.7539 2.0
94.8179 0.0
94.8819 0.0
94.9459 0.0
95.0099 0.0
95.0739 1.0
95.1379 1.0
95.2019 4.0
95.266 1.0
95.33 0.0
95.394 2.0
95.458 1.0
95.522 0.0
95.586 1.0
95.65 2.0
95.714 3.0
95.778 3.0
95.842 1.0
95.9061 1.0
95.9701 2.0
96.0341 1.0
96.0981 1.0
96.1621 1.0
96.2261 0.0
96.2901 0.0
96.3541 5.0
96.4181 3.0
96.4821 2.0
96.5462 2.0
96.6102 3.0
96.6742 4.0
96.7382 2.0
96.8022 2.0
96.8662 0.0
96.9302 0.0
96.9942 1.0
97.0582 2.0
97.1222 0.0
97.1863 2.0
97.2503 1.0
97.3143 0.0
97.3783 1.0
97.4423 1.0
97.5063 3.0
97.5703 2.0
97.6343 0.0
97.6983 0.0
97.7623 0.0
97.8264 2.0
97.8904 3.0
97.9544 1.0
98.0184 0.0
98.0824 0.0
98.1464 1.0
98.2104 3.0
98.2744 0.0
98.3384 0.0
98.4024 2.0
98.4665 0.0
98.5305 0.0
98.5945 4.0
98.6585 3.0
98.7225 3.0
98.7865 1.0
98.8505 1.0
98.9145 0.0
98.9785 3.0
99.0426 0.0
99.1066 1.0
99.1706 1.0
99.2346 1.0
99.2986 2.0
99.3626 0.0
99.4266 1.0
99.4906 1.0
99.5546 3.0
99.6186 0.0
99.6827 1.0
99.7467 5.0
99.8107 2.0
99.8747 3.0
99.9387 1.0
99.9978 2.0