File: data/W6723/XRD_2ThetaOmega/W6723_absolute_2th-om_58-72deg-20min_3.xy
58.0028 323.0
58.0127 293.0
58.0225 291.0
58.0324 295.0
58.0422 301.0
58.0521 314.0
58.0619 291.0
58.0718 298.0
58.0816 291.0
58.0915 259.0
58.1013 294.0
58.1112 275.0
58.121 298.0
58.1309 287.0
58.1407 275.0
58.1505 318.0
58.1604 289.0
58.1702 310.0
58.1801 294.0
58.1899 305.0
58.1998 302.0
58.2096 290.0
58.2195 308.0
58.2293 295.0
58.2392 271.0
58.249 278.0
58.2589 293.0
58.2687 290.0
58.2786 273.0
58.2884 286.0
58.2983 314.0
58.3081 297.0
58.318 285.0
58.3278 298.0
58.3377 286.0
58.3475 322.0
58.3573 244.0
58.3672 267.0
58.377 299.0
58.3869 300.0
58.3967 311.0
58.4066 294.0
58.4164 305.0
58.4263 305.0
58.4361 313.0
58.446 271.0
58.4558 296.0
58.4657 283.0
58.4755 259.0
58.4854 306.0
58.4952 265.0
58.5051 299.0
58.5149 289.0
58.5248 315.0
58.5346 300.0
58.5445 309.0
58.5543 299.0
58.5642 262.0
58.574 305.0
58.5838 287.0
58.5937 285.0
58.6035 261.0
58.6134 305.0
58.6232 296.0
58.6331 300.0
58.6429 297.0
58.6528 312.0
58.6626 296.0
58.6725 284.0
58.6823 278.0
58.6922 307.0
58.702 305.0
58.7119 295.0
58.7217 265.0
58.7316 274.0
58.7414 260.0
58.7513 294.0
58.7611 290.0
58.771 312.0
58.7808 301.0
58.7906 247.0
58.8005 291.0
58.8103 278.0
58.8202 290.0
58.83 274.0
58.8399 292.0
58.8497 261.0
58.8596 291.0
58.8694 302.0
58.8793 267.0
58.8891 303.0
58.899 309.0
58.9088 294.0
58.9187 283.0
58.9285 278.0
58.9384 268.0
58.9482 271.0
58.9581 290.0
58.9679 306.0
58.9778 266.0
58.9876 277.0
58.9974 287.0
59.0073 312.0
59.0171 271.0
59.027 297.0
59.0368 286.0
59.0467 308.0
59.0565 276.0
59.0664 289.0
59.0762 280.0
59.0861 293.0
59.0959 258.0
59.1058 288.0
59.1156 304.0
59.1255 282.0
59.1353 318.0
59.1452 279.0
59.155 315.0
59.1649 259.0
59.1747 281.0
59.1846 288.0
59.1944 260.0
59.2043 242.0
59.2141 268.0
59.2239 268.0
59.2338 268.0
59.2436 313.0
59.2535 299.0
59.2633 284.0
59.2732 312.0
59.283 310.0
59.2929 299.0
59.3027 306.0
59.3126 288.0
59.3224 283.0
59.3323 292.0
59.3421 310.0
59.352 298.0
59.3618 284.0
59.3717 299.0
59.3815 275.0
59.3914 275.0
59.4012 328.0
59.4111 308.0
59.4209 305.0
59.4307 262.0
59.4406 322.0
59.4504 303.0
59.4603 248.0
59.4701 285.0
59.48 287.0
59.4898 282.0
59.4997 273.0
59.5095 260.0
59.5194 296.0
59.5292 264.0
59.5391 282.0
59.5489 268.0
59.5588 278.0
59.5686 291.0
59.5785 303.0
59.5883 298.0
59.5982 303.0
59.608 298.0
59.6179 295.0
59.6277 282.0
59.6376 320.0
59.6474 280.0
59.6572 261.0
59.6671 307.0
59.6769 264.0
59.6868 279.0
59.6966 295.0
59.7065 309.0
59.7163 300.0
59.7262 286.0
59.736 291.0
59.7459 280.0
59.7557 266.0
59.7656 294.0
59.7754 294.0
59.7853 274.0
59.7951 276.0
59.805 270.0
59.8148 312.0
59.8247 288.0
59.8345 296.0
59.8444 299.0
59.8542 265.0
59.864 300.0
59.8739 271.0
59.8837 283.0
59.8936 296.0
59.9034 309.0
59.9133 302.0
59.9231 282.0
59.933 293.0
59.9428 278.0
59.9527 291.0
59.9625 287.0
59.9724 263.0
59.9822 259.0
59.9921 291.0
60.0019 282.0
60.0118 279.0
60.0216 312.0
60.0315 313.0
60.0413 272.0
60.0512 300.0
60.061 324.0
60.0709 305.0
60.0807 290.0
60.0905 291.0
60.1004 269.0
60.1102 307.0
60.1201 282.0
60.1299 316.0
60.1398 267.0
60.1496 287.0
60.1595 306.0
60.1693 309.0
60.1792 265.0
60.189 291.0
60.1989 293.0
60.2087 309.0
60.2186 303.0
60.2284 276.0
60.2383 293.0
60.2481 322.0
60.258 296.0
60.2678 345.0
60.2777 334.0
60.2875 339.0
60.2973 305.0
60.3072 320.0
60.317 311.0
60.3269 348.0
60.3367 333.0
60.3466 318.0
60.3564 313.0
60.3663 314.0
60.3761 270.0
60.386 301.0
60.3958 305.0
60.4057 317.0
60.4155 315.0
60.4254 336.0
60.4352 311.0
60.4451 318.0
60.4549 316.0
60.4648 298.0
60.4746 310.0
60.4845 313.0
60.4943 290.0
60.5041 309.0
60.514 333.0
60.5238 275.0
60.5337 316.0
60.5435 337.0
60.5534 283.0
60.5632 292.0
60.5731 297.0
60.5829 341.0
60.5928 317.0
60.6026 325.0
60.6125 320.0
60.6223 321.0
60.6322 349.0
60.642 350.0
60.6519 323.0
60.6617 352.0
60.6716 369.0
60.6814 359.0
60.6913 352.0
60.7011 410.0
60.711 373.0
60.7208 447.0
60.7306 475.0
60.7405 482.0
60.7503 555.0
60.7602 669.0
60.77 798.0
60.7799 1000.0
60.7897 1287.0
60.7996 1758.0
60.8094 2073.0
60.8193 2360.0
60.8291 2478.0
60.839 2415.0
60.8488 2230.0
60.8587 1957.0
60.8685 1607.0
60.8784 1410.0
60.8882 1262.0
60.8981 1244.0
60.9079 1183.0
60.9178 1091.0
60.9276 982.0
60.9374 862.0
60.9473 797.0
60.9571 688.0
60.967 567.0
60.9768 541.0
60.9867 524.0
60.9965 482.0
61.0064 413.0
61.0162 434.0
61.0261 401.0
61.0359 423.0
61.0458 396.0
61.0556 406.0
61.0655 397.0
61.0753 369.0
61.0852 387.0
61.095 400.0
61.1049 386.0
61.1147 347.0
61.1246 331.0
61.1344 382.0
61.1443 359.0
61.1541 327.0
61.1639 320.0
61.1738 350.0
61.1836 353.0
61.1935 345.0
61.2033 362.0
61.2132 364.0
61.223 354.0
61.2329 380.0
61.2427 334.0
61.2526 390.0
61.2624 387.0
61.2723 347.0
61.2821 347.0
61.292 347.0
61.3018 339.0
61.3117 348.0
61.3215 345.0
61.3314 356.0
61.3412 360.0
61.3511 342.0
61.3609 375.0
61.3707 371.0
61.3806 358.0
61.3904 363.0
61.4003 364.0
61.4101 358.0
61.42 362.0
61.4298 331.0
61.4397 350.0
61.4495 358.0
61.4594 361.0
61.4692 330.0
61.4791 362.0
61.4889 344.0
61.4988 345.0
61.5086 362.0
61.5185 347.0
61.5283 374.0
61.5382 377.0
61.548 343.0
61.5579 350.0
61.5677 363.0
61.5776 354.0
61.5874 386.0
61.5972 354.0
61.6071 375.0
61.6169 387.0
61.6268 379.0
61.6366 407.0
61.6465 368.0
61.6563 395.0
61.6662 367.0
61.676 413.0
61.6859 419.0
61.6957 406.0
61.7056 408.0
61.7154 405.0
61.7253 439.0
61.7351 433.0
61.745 440.0
61.7548 420.0
61.7647 421.0
61.7745 448.0
61.7844 370.0
61.7942 384.0
61.804 405.0
61.8139 382.0
61.8237 385.0
61.8336 348.0
61.8434 394.0
61.8533 351.0
61.8631 369.0
61.873 365.0
61.8828 346.0
61.8927 364.0
61.9025 362.0
61.9124 351.0
61.9222 365.0
61.9321 365.0
61.9419 370.0
61.9518 342.0
61.9616 356.0
61.9715 348.0
61.9813 359.0
61.9912 376.0
62.001 326.0
62.0108 352.0
62.0207 343.0
62.0305 348.0
62.0404 364.0
62.0502 340.0
62.0601 368.0
62.0699 360.0
62.0798 331.0
62.0896 368.0
62.0995 374.0
62.1093 346.0
62.1192 343.0
62.129 370.0
62.1389 315.0
62.1487 368.0
62.1586 358.0
62.1684 353.0
62.1783 365.0
62.1881 376.0
62.198 349.0
62.2078 341.0
62.2177 393.0
62.2275 350.0
62.2373 386.0
62.2472 358.0
62.257 380.0
62.2669 353.0
62.2767 380.0
62.2866 401.0
62.2964 374.0
62.3063 371.0
62.3161 380.0
62.326 381.0
62.3358 343.0
62.3457 365.0
62.3555 351.0
62.3654 342.0
62.3752 364.0
62.3851 350.0
62.3949 351.0
62.4048 381.0
62.4146 323.0
62.4245 375.0
62.4343 323.0
62.4441 378.0
62.454 337.0
62.4638 344.0
62.4737 322.0
62.4835 367.0
62.4934 348.0
62.5032 324.0
62.5131 401.0
62.5229 313.0
62.5328 346.0
62.5426 315.0
62.5525 354.0
62.5623 367.0
62.5722 373.0
62.582 360.0
62.5919 350.0
62.6017 384.0
62.6116 369.0
62.6214 369.0
62.6313 353.0
62.6411 338.0
62.651 361.0
62.6608 319.0
62.6706 362.0
62.6805 341.0
62.6903 341.0
62.7002 375.0
62.71 308.0
62.7199 316.0
62.7297 362.0
62.7396 377.0
62.7494 345.0
62.7593 323.0
62.7691 354.0
62.779 359.0
62.7888 342.0
62.7987 369.0
62.8085 360.0
62.8184 353.0
62.8282 381.0
62.8381 360.0
62.8479 393.0
62.8578 371.0
62.8676 339.0
62.8774 351.0
62.8873 351.0
62.8971 360.0
62.907 360.0
62.9168 371.0
62.9267 371.0
62.9365 353.0
62.9464 351.0
62.9562 375.0
62.9661 377.0
62.9759 355.0
62.9858 366.0
62.9956 316.0
63.0055 378.0
63.0153 362.0
63.0252 401.0
63.035 340.0
63.0449 392.0
63.0547 365.0
63.0646 378.0
63.0744 366.0
63.0843 412.0
63.0941 421.0
63.1039 384.0
63.1138 385.0
63.1236 366.0
63.1335 370.0
63.1433 353.0
63.1532 392.0
63.163 431.0
63.1729 404.0
63.1827 386.0
63.1926 425.0
63.2024 412.0
63.2123 379.0
63.2221 401.0
63.232 351.0
63.2418 388.0
63.2517 402.0
63.2615 389.0
63.2714 363.0
63.2812 396.0
63.2911 385.0
63.3009 405.0
63.3107 390.0
63.3206 417.0
63.3304 392.0
63.3403 424.0
63.3501 398.0
63.36 430.0
63.3698 403.0
63.3797 392.0
63.3895 409.0
63.3994 414.0
63.4092 424.0
63.4191 451.0
63.4289 413.0
63.4388 424.0
63.4486 398.0
63.4585 407.0
63.4683 403.0
63.4782 434.0
63.488 464.0
63.4979 434.0
63.5077 405.0
63.5175 432.0
63.5274 439.0
63.5372 440.0
63.5471 446.0
63.5569 461.0
63.5668 464.0
63.5766 460.0
63.5865 477.0
63.5963 460.0
63.6062 466.0
63.616 481.0
63.6259 476.0
63.6357 454.0
63.6456 452.0
63.6554 500.0
63.6653 496.0
63.6751 528.0
63.685 504.0
63.6948 505.0
63.7047 488.0
63.7145 500.0
63.7244 547.0
63.7342 486.0
63.744 523.0
63.7539 504.0
63.7637 511.0
63.7736 503.0
63.7834 538.0
63.7933 516.0
63.8031 482.0
63.813 535.0
63.8228 544.0
63.8327 508.0
63.8425 547.0
63.8524 508.0
63.8622 540.0
63.8721 563.0
63.8819 578.0
63.8918 553.0
63.9016 611.0
63.9115 567.0
63.9213 570.0
63.9312 660.0
63.941 669.0
63.9508 658.0
63.9607 593.0
63.9705 622.0
63.9804 642.0
63.9902 640.0
64.0001 632.0
64.0099 682.0
64.0198 693.0
64.0296 662.0
64.0395 670.0
64.0493 702.0
64.0592 708.0
64.069 730.0
64.0789 790.0
64.0887 745.0
64.0986 768.0
64.1084 798.0
64.1183 815.0
64.1281 844.0
64.138 821.0
64.1478 885.0
64.1577 858.0
64.1675 898.0
64.1773 917.0
64.1872 893.0
64.197 1000.0
64.2069 1004.0
64.2167 999.0
64.2266 1011.0
64.2364 1083.0
64.2463 1045.0
64.2561 1140.0
64.266 1153.0
64.2758 1201.0
64.2857 1184.0
64.2955 1192.0
64.3054 1282.0
64.3152 1398.0
64.3251 1425.0
64.3349 1427.0
64.3448 1433.0
64.3546 1517.0
64.3645 1551.0
64.3743 1683.0
64.3841 1751.0
64.394 1757.0
64.4038 1920.0
64.4137 1908.0
64.4235 2092.0
64.4334 2181.0
64.4432 2195.0
64.4531 2342.0
64.4629 2477.0
64.4728 2559.0
64.4826 2780.0
64.4925 2807.0
64.5023 3036.0
64.5122 3132.0
64.522 3382.0
64.5319 3603.0
64.5417 3906.0
64.5516 4055.0
64.5614 4424.0
64.5713 4737.0
64.5811 5148.0
64.591 5314.0
64.6008 5786.0
64.6106 6257.0
64.6205 6794.0
64.6303 7317.0
64.6402 7700.0
64.65 8341.0
64.6599 8822.0
64.6697 9214.0
64.6796 9933.0
64.6894 10195.0
64.6993 10680.0
64.7091 10787.0
64.719 11221.0
64.7288 11320.0
64.7387 11308.0
64.7485 11362.0
64.7584 11297.0
64.7682 11172.0
64.7781 11079.0
64.7879 10827.0
64.7978 10727.0
64.8076 10676.0
64.8174 10437.0
64.8273 10086.0
64.8371 9661.0
64.847 9747.0
64.8568 9916.0
64.8667 9652.0
64.8765 9832.0
64.8864 9722.0
64.8962 9828.0
64.9061 9963.0
64.9159 10332.0
64.9258 10726.0
64.9356 11020.0
64.9455 10911.0
64.9553 10406.0
64.9652 9836.0
64.975 9124.0
64.9849 8344.0
64.9947 7333.0
65.0046 6587.0
65.0144 5798.0
65.0242 5153.0
65.0341 4763.0
65.0439 4418.0
65.0538 3966.0
65.0636 3607.0
65.0735 3268.0
65.0833 2902.0
65.0932 2872.0
65.103 2683.0
65.1129 2427.0
65.1227 2356.0
65.1326 2131.0
65.1424 2086.0
65.1523 1943.0
65.1621 1847.0
65.172 1742.0
65.1818 1741.0
65.1917 1595.0
65.2015 1485.0
65.2114 1486.0
65.2212 1361.0
65.2311 1325.0
65.2409 1222.0
65.2507 1248.0
65.2606 1228.0
65.2704 1165.0
65.2803 1098.0
65.2901 1028.0
65.3 1028.0
65.3098 991.0
65.3197 993.0
65.3295 957.0
65.3394 960.0
65.3492 987.0
65.3591 958.0
65.3689 905.0
65.3788 930.0
65.3886 915.0
65.3985 909.0
65.4083 964.0
65.4182 971.0
65.428 915.0
65.4379 968.0
65.4477 1150.0
65.4575 1170.0
65.4674 1269.0
65.4772 1383.0
65.4871 1488.0
65.4969 1485.0
65.5068 1435.0
65.5166 1319.0
65.5265 1169.0
65.5363 1120.0
65.5462 1082.0
65.556 951.0
65.5659 871.0
65.5757 849.0
65.5856 761.0
65.5954 771.0
65.6053 709.0
65.6151 738.0
65.625 704.0
65.6348 640.0
65.6447 708.0
65.6545 662.0
65.6644 672.0
65.6742 670.0
65.684 641.0
65.6939 617.0
65.7037 633.0
65.7136 629.0
65.7234 641.0
65.7333 593.0
65.7431 629.0
65.753 534.0
65.7628 587.0
65.7727 631.0
65.7825 621.0
65.7924 604.0
65.8022 606.0
65.8121 592.0
65.8219 593.0
65.8318 586.0
65.8416 530.0
65.8515 606.0
65.8613 587.0
65.8712 617.0
65.881 559.0
65.8908 571.0
65.9007 557.0
65.9105 614.0
65.9204 581.0
65.9302 610.0
65.9401 573.0
65.9499 636.0
65.9598 602.0
65.9696 587.0
65.9795 576.0
65.9893 591.0
65.9992 582.0
66.009 598.0
66.0189 593.0
66.0287 572.0
66.0386 571.0
66.0484 583.0
66.0583 579.0
66.0681 596.0
66.078 606.0
66.0878 636.0
66.0977 643.0
66.1075 644.0
66.1173 636.0
66.1272 607.0
66.137 624.0
66.1469 605.0
66.1567 631.0
66.1666 627.0
66.1764 630.0
66.1863 613.0
66.1961 599.0
66.206 590.0
66.2158 637.0
66.2257 615.0
66.2355 608.0
66.2454 610.0
66.2552 675.0
66.2651 617.0
66.2749 642.0
66.2848 636.0
66.2946 606.0
66.3045 672.0
66.3143 662.0
66.3241 629.0
66.334 630.0
66.3438 679.0
66.3537 644.0
66.3635 673.0
66.3734 640.0
66.3832 654.0
66.3931 634.0
66.4029 681.0
66.4128 622.0
66.4226 682.0
66.4325 630.0
66.4423 671.0
66.4522 647.0
66.462 689.0
66.4719 651.0
66.4817 680.0
66.4916 686.0
66.5014 720.0
66.5113 749.0
66.5211 675.0
66.5309 634.0
66.5408 665.0
66.5506 701.0
66.5605 720.0
66.5703 678.0
66.5802 721.0
66.59 734.0
66.5999 719.0
66.6097 679.0
66.6196 768.0
66.6294 724.0
66.6393 771.0
66.6491 765.0
66.659 749.0
66.6688 782.0
66.6787 747.0
66.6885 763.0
66.6984 781.0
66.7082 802.0
66.7181 829.0
66.7279 775.0
66.7378 801.0
66.7476 778.0
66.7574 784.0
66.7673 839.0
66.7771 807.0
66.787 796.0
66.7968 854.0
66.8067 843.0
66.8165 896.0
66.8264 829.0
66.8362 877.0
66.8461 820.0
66.8559 815.0
66.8658 776.0
66.8756 889.0
66.8855 905.0
66.8953 842.0
66.9052 876.0
66.915 829.0
66.9249 897.0
66.9347 964.0
66.9446 915.0
66.9544 943.0
66.9642 954.0
66.9741 950.0
66.9839 958.0
66.9938 966.0
67.0036 959.0
67.0135 1014.0
67.0233 956.0
67.0332 1013.0
67.043 1034.0
67.0529 986.0
67.0627 1021.0
67.0726 1033.0
67.0824 1051.0
67.0923 1080.0
67.1021 1071.0
67.112 1018.0
67.1218 1102.0
67.1317 1058.0
67.1415 1057.0
67.1514 1113.0
67.1612 1099.0
67.1711 1136.0
67.1809 1126.0
67.1907 1149.0
67.2006 1161.0
67.2104 1187.0
67.2203 1205.0
67.2301 1191.0
67.24 1174.0
67.2498 1230.0
67.2597 1274.0
67.2695 1252.0
67.2794 1250.0
67.2892 1338.0
67.2991 1343.0
67.3089 1309.0
67.3188 1365.0
67.3286 1393.0
67.3385 1362.0
67.3483 1411.0
67.3582 1379.0
67.368 1405.0
67.3779 1404.0
67.3877 1432.0
67.3975 1468.0
67.4074 1501.0
67.4172 1506.0
67.4271 1442.0
67.4369 1553.0
67.4468 1611.0
67.4566 1608.0
67.4665 1586.0
67.4763 1666.0
67.4862 1685.0
67.496 1679.0
67.5059 1719.0
67.5157 1722.0
67.5256 1762.0
67.5354 1810.0
67.5453 1871.0
67.5551 1813.0
67.565 1910.0
67.5748 1957.0
67.5847 2032.0
67.5945 2023.0
67.6044 2060.0
67.6142 2174.0
67.624 2138.0
67.6339 2279.0
67.6437 2281.0
67.6536 2350.0
67.6634 2496.0
67.6733 2506.0
67.6831 2732.0
67.693 2836.0
67.7028 3015.0
67.7127 3079.0
67.7225 3314.0
67.7324 3705.0
67.7422 4043.0
67.7521 4216.0
67.7619 4664.0
67.7718 5246.0
67.7816 5490.0
67.7915 6055.0
67.8013 6452.0
67.8112 6646.0
67.821 6945.0
67.8308 7104.0
67.8407 7048.0
67.8505 7085.0
67.8604 7205.0
67.8702 7028.0
67.8801 6943.0
67.8899 6731.0
67.8998 6750.0
67.9096 6934.0
67.9195 7049.0
67.9293 7408.0
67.9392 7725.0
67.949 8077.0
67.9589 8762.0
67.9687 9260.0
67.9786 10045.0
67.9884 11004.0
67.9983 12345.0
68.0081 13783.0
68.018 15543.0
68.0278 17894.0
68.0376 20896.0
68.0475 24763.0
68.0573 30118.0
68.0672 37471.0
68.077 48628.0
68.0869 67509.0
68.0967 99146.0
68.1066 166842.0
68.1164 306711.0
68.1263 488106.0
68.1361 613782.0
68.146 672383.0
68.1558 681284.0
68.1657 624018.0
68.1755 470880.0
68.1854 292556.0
68.1952 180399.0
68.2051 117570.0
68.2149 80100.0
68.2248 59019.0
68.2346 47573.0
68.2445 41154.0
68.2543 39173.0
68.2641 39901.0
68.274 45297.0
68.2838 56457.0
68.2937 80034.0
68.3035 126507.0
68.3134 200908.0
68.3232 276155.0
68.3331 326435.0
68.3429 346483.0
68.3528 336078.0
68.3626 288541.0
68.3725 209907.0
68.3823 137269.0
68.3922 87099.0
68.402 57222.0
68.4119 40517.0
68.4217 30033.0
68.4316 23687.0
68.4414 19216.0
68.4513 16373.0
68.4611 14399.0
68.4709 12636.0
68.4808 11276.0
68.4906 10180.0
68.5005 9419.0
68.5103 8741.0
68.5202 8238.0
68.53 7695.0
68.5399 7250.0
68.5497 6807.0
68.5596 6364.0
68.5694 6032.0
68.5793 5734.0
68.5891 5502.0
68.599 5209.0
68.6088 4953.0
68.6187 4675.0
68.6285 4557.0
68.6384 4351.0
68.6482 4302.0
68.6581 4147.0
68.6679 3967.0
68.6778 3877.0
68.6876 3731.0
68.6974 3676.0
68.7073 3604.0
68.7171 3358.0
68.727 3435.0
68.7368 3368.0
68.7467 3222.0
68.7565 3054.0
68.7664 2927.0
68.7762 2897.0
68.7861 2849.0
68.7959 2828.0
68.8058 2639.0
68.8156 2551.0
68.8255 2673.0
68.8353 2511.0
68.8452 2429.0
68.855 2326.0
68.8649 2426.0
68.8747 2260.0
68.8846 2238.0
68.8944 2267.0
68.9042 2135.0
68.9141 2194.0
68.9239 2191.0
68.9338 2149.0
68.9436 2074.0
68.9535 2003.0
68.9633 2035.0
68.9732 2066.0
68.983 1960.0
68.9929 1853.0
69.0027 1970.0
69.0126 1891.0
69.0224 1839.0
69.0323 1823.0
69.0421 1798.0
69.052 1763.0
69.0618 1757.0
69.0717 1727.0
69.0815 1788.0
69.0914 1722.0
69.1012 1816.0
69.1111 1648.0
69.1209 1648.0
69.1307 1662.0
69.1406 1579.0
69.1504 1626.0
69.1603 1506.0
69.1701 1538.0
69.18 1597.0
69.1898 1601.0
69.1997 1548.0
69.2095 1452.0
69.2194 1538.0
69.2292 1490.0
69.2391 1447.0
69.2489 1422.0
69.2588 1470.0
69.2686 1444.0
69.2785 1398.0
69.2883 1372.0
69.2982 1350.0
69.308 1351.0
69.3179 1405.0
69.3277 1336.0
69.3375 1314.0
69.3474 1368.0
69.3572 1344.0
69.3671 1324.0
69.3769 1331.0
69.3868 1299.0
69.3966 1255.0
69.4065 1271.0
69.4163 1252.0
69.4262 1207.0
69.436 1238.0
69.4459 1218.0
69.4557 1200.0
69.4656 1187.0
69.4754 1115.0
69.4853 1107.0
69.4951 1172.0
69.505 1088.0
69.5148 1048.0
69.5247 1096.0
69.5345 1065.0
69.5443 1114.0
69.5542 1059.0
69.564 1051.0
69.5739 1084.0
69.5837 1059.0
69.5936 969.0
69.6034 972.0
69.6133 1014.0
69.6231 962.0
69.633 1014.0
69.6428 995.0
69.6527 969.0
69.6625 989.0
69.6724 1022.0
69.6822 949.0
69.6921 927.0
69.7019 977.0
69.7118 930.0
69.7216 936.0
69.7315 931.0
69.7413 930.0
69.7512 863.0
69.761 914.0
69.7708 907.0
69.7807 820.0
69.7905 861.0
69.8004 878.0
69.8102 795.0
69.8201 896.0
69.8299 864.0
69.8398 789.0
69.8496 823.0
69.8595 840.0
69.8693 817.0
69.8792 813.0
69.889 785.0
69.8989 791.0
69.9087 770.0
69.9186 817.0
69.9284 803.0
69.9383 723.0
69.9481 752.0
69.958 781.0
69.9678 776.0
69.9776 729.0
69.9875 770.0
69.9973 778.0
70.0072 685.0
70.017 696.0
70.0269 705.0
70.0367 702.0
70.0466 717.0
70.0564 721.0
70.0663 678.0
70.0761 679.0
70.086 641.0
70.0958 689.0
70.1057 649.0
70.1155 697.0
70.1254 638.0
70.1352 690.0
70.1451 638.0
70.1549 642.0
70.1648 608.0
70.1746 629.0
70.1845 654.0
70.1943 621.0
70.2041 610.0
70.214 604.0
70.2238 628.0
70.2337 609.0
70.2435 627.0
70.2534 652.0
70.2632 614.0
70.2731 672.0
70.2829 630.0
70.2928 560.0
70.3026 554.0
70.3125 575.0
70.3223 556.0
70.3322 573.0
70.342 558.0
70.3519 587.0
70.3617 561.0
70.3716 573.0
70.3814 540.0
70.3913 554.0
70.4011 580.0
70.4109 531.0
70.4208 550.0
70.4306 579.0
70.4405 572.0
70.4503 527.0
70.4602 547.0
70.47 582.0
70.4799 525.0
70.4897 508.0
70.4996 538.0
70.5094 525.0
70.5193 559.0
70.5291 517.0
70.539 568.0
70.5488 529.0
70.5587 515.0
70.5685 528.0
70.5784 532.0
70.5882 492.0
70.5981 493.0
70.6079 466.0
70.6178 486.0
70.6276 485.0
70.6374 467.0
70.6473 500.0
70.6571 486.0
70.667 466.0
70.6768 529.0
70.6867 448.0
70.6965 454.0
70.7064 517.0
70.7162 509.0
70.7261 484.0
70.7359 510.0
70.7458 468.0
70.7556 458.0
70.7655 463.0
70.7753 496.0
70.7852 446.0
70.795 497.0
70.8049 479.0
70.8147 492.0
70.8246 464.0
70.8344 436.0
70.8442 470.0
70.8541 481.0
70.8639 481.0
70.8738 466.0
70.8836 467.0
70.8935 446.0
70.9033 451.0
70.9132 455.0
70.923 446.0
70.9329 433.0
70.9427 447.0
70.9526 403.0
70.9624 439.0
70.9723 452.0
70.9821 431.0
70.992 449.0
71.0018 425.0
71.0117 429.0
71.0215 451.0
71.0314 437.0
71.0412 455.0
71.051 423.0
71.0609 419.0
71.0707 406.0
71.0806 391.0
71.0904 470.0
71.1003 431.0
71.1101 453.0
71.12 440.0
71.1298 452.0
71.1397 431.0
71.1495 409.0
71.1594 398.0
71.1692 442.0
71.1791 419.0
71.1889 373.0
71.1988 404.0
71.2086 383.0
71.2185 446.0
71.2283 381.0
71.2382 396.0
71.248 359.0
71.2579 358.0
71.2677 390.0
71.2775 460.0
71.2874 421.0
71.2972 406.0
71.3071 426.0
71.3169 403.0
71.3268 422.0
71.3366 364.0
71.3465 430.0
71.3563 433.0
71.3662 376.0
71.376 387.0
71.3859 407.0
71.3957 405.0
71.4056 408.0
71.4154 404.0
71.4253 353.0
71.4351 341.0
71.445 381.0
71.4548 404.0
71.4647 392.0
71.4745 376.0
71.4843 392.0
71.4942 381.0
71.504 406.0
71.5139 379.0
71.5237 381.0
71.5336 391.0
71.5434 375.0
71.5533 409.0
71.5631 368.0
71.573 392.0
71.5828 387.0
71.5927 365.0
71.6025 347.0
71.6124 400.0
71.6222 364.0
71.6321 408.0
71.6419 365.0
71.6518 384.0
71.6616 363.0
71.6715 381.0
71.6813 399.0
71.6912 341.0
71.701 381.0
71.7108 335.0
71.7207 360.0
71.7305 346.0
71.7404 362.0
71.7502 380.0
71.7601 357.0
71.7699 390.0
71.7798 350.0
71.7896 393.0
71.7995 365.0
71.8093 397.0
71.8192 367.0
71.829 359.0
71.8389 352.0
71.8487 389.0
71.8586 370.0
71.8684 390.0
71.8783 397.0
71.8881 371.0
71.898 366.0
71.9078 376.0
71.9176 370.0
71.9275 359.0
71.9373 368.0
71.9472 349.0
71.957 366.0
71.9669 363.0
71.9767 360.0
71.9866 322.0
71.9964 402.0
71.9989 348.0