File: data/W6928c/XRD_2ThetaOmega/scan_2th-om_c_Cr2O3_35-45deg_PIXscan_4min_C1.xy
35.0021 49.0
35.0119 55.0
35.0218 59.0
35.0316 61.0
35.0415 49.0
35.0513 56.0
35.0611 51.0
35.071 52.0
35.0808 58.0
35.0907 77.0
35.1005 50.0
35.1104 52.0
35.1202 61.0
35.1301 49.0
35.1399 44.0
35.1498 55.0
35.1596 58.0
35.1695 65.0
35.1793 55.0
35.1892 44.0
35.199 48.0
35.2089 51.0
35.2187 57.0
35.2286 55.0
35.2384 48.0
35.2483 61.0
35.2581 53.0
35.268 54.0
35.2778 64.0
35.2876 67.0
35.2975 55.0
35.3073 57.0
35.3172 59.0
35.327 46.0
35.3369 62.0
35.3467 66.0
35.3566 58.0
35.3664 58.0
35.3763 56.0
35.3861 51.0
35.396 77.0
35.4058 71.0
35.4157 66.0
35.4255 67.0
35.4354 59.0
35.4452 66.0
35.4551 63.0
35.4649 67.0
35.4748 64.0
35.4846 49.0
35.4944 51.0
35.5043 43.0
35.5141 59.0
35.524 64.0
35.5338 65.0
35.5437 70.0
35.5535 68.0
35.5634 75.0
35.5732 60.0
35.5831 55.0
35.5929 53.0
35.6028 62.0
35.6126 61.0
35.6225 59.0
35.6323 57.0
35.6422 65.0
35.652 42.0
35.6619 48.0
35.6717 62.0
35.6816 68.0
35.6914 58.0
35.7012 66.0
35.7111 55.0
35.7209 57.0
35.7308 64.0
35.7406 56.0
35.7505 71.0
35.7603 57.0
35.7702 69.0
35.78 53.0
35.7899 60.0
35.7997 59.0
35.8096 54.0
35.8194 56.0
35.8293 49.0
35.8391 60.0
35.849 57.0
35.8588 65.0
35.8687 61.0
35.8785 68.0
35.8884 64.0
35.8982 43.0
35.9081 54.0
35.9179 57.0
35.9277 45.0
35.9376 48.0
35.9474 80.0
35.9573 54.0
35.9671 53.0
35.977 57.0
35.9868 54.0
35.9967 54.0
36.0065 65.0
36.0164 46.0
36.0262 60.0
36.0361 54.0
36.0459 58.0
36.0558 64.0
36.0656 45.0
36.0755 46.0
36.0853 53.0
36.0952 52.0
36.105 51.0
36.1149 60.0
36.1247 58.0
36.1345 54.0
36.1444 74.0
36.1542 54.0
36.1641 59.0
36.1739 75.0
36.1838 66.0
36.1936 62.0
36.2035 62.0
36.2133 51.0
36.2232 50.0
36.233 52.0
36.2429 55.0
36.2527 63.0
36.2626 46.0
36.2724 59.0
36.2823 55.0
36.2921 64.0
36.302 59.0
36.3118 57.0
36.3217 45.0
36.3315 54.0
36.3414 62.0
36.3512 62.0
36.361 53.0
36.3709 46.0
36.3807 61.0
36.3906 68.0
36.4004 67.0
36.4103 53.0
36.4201 55.0
36.43 58.0
36.4398 60.0
36.4497 49.0
36.4595 51.0
36.4694 53.0
36.4792 71.0
36.4891 63.0
36.4989 64.0
36.5088 60.0
36.5186 60.0
36.5285 58.0
36.5383 63.0
36.5482 69.0
36.558 66.0
36.5678 61.0
36.5777 50.0
36.5875 58.0
36.5974 65.0
36.6072 54.0
36.6171 58.0
36.6269 49.0
36.6368 58.0
36.6466 55.0
36.6565 47.0
36.6663 45.0
36.6762 55.0
36.686 51.0
36.6959 59.0
36.7057 66.0
36.7156 53.0
36.7254 59.0
36.7353 55.0
36.7451 55.0
36.755 55.0
36.7648 51.0
36.7747 53.0
36.7845 64.0
36.7943 47.0
36.8042 65.0
36.814 76.0
36.8239 72.0
36.8337 51.0
36.8436 45.0
36.8534 55.0
36.8633 80.0
36.8731 61.0
36.883 58.0
36.8928 62.0
36.9027 66.0
36.9125 58.0
36.9224 53.0
36.9322 61.0
36.9421 53.0
36.9519 57.0
36.9618 62.0
36.9716 56.0
36.9815 60.0
36.9913 50.0
37.0011 43.0
37.011 51.0
37.0208 59.0
37.0307 62.0
37.0405 50.0
37.0504 57.0
37.0602 48.0
37.0701 74.0
37.0799 56.0
37.0898 57.0
37.0996 68.0
37.1095 48.0
37.1193 53.0
37.1292 62.0
37.139 67.0
37.1489 63.0
37.1587 73.0
37.1686 68.0
37.1784 60.0
37.1883 66.0
37.1981 61.0
37.2079 54.0
37.2178 49.0
37.2276 65.0
37.2375 63.0
37.2473 62.0
37.2572 56.0
37.267 66.0
37.2769 67.0
37.2867 66.0
37.2966 59.0
37.3064 50.0
37.3163 55.0
37.3261 63.0
37.336 42.0
37.3458 49.0
37.3557 49.0
37.3655 51.0
37.3754 62.0
37.3852 82.0
37.3951 105.0
37.4049 96.0
37.4148 132.0
37.4246 139.0
37.4344 131.0
37.4443 133.0
37.4541 105.0
37.464 86.0
37.4738 77.0
37.4837 70.0
37.4935 89.0
37.5034 62.0
37.5132 64.0
37.5231 67.0
37.5329 54.0
37.5428 62.0
37.5526 83.0
37.5625 64.0
37.5723 57.0
37.5822 70.0
37.592 63.0
37.6019 62.0
37.6117 56.0
37.6216 62.0
37.6314 58.0
37.6412 69.0
37.6511 46.0
37.6609 70.0
37.6708 56.0
37.6806 52.0
37.6905 64.0
37.7003 56.0
37.7102 53.0
37.72 64.0
37.7299 48.0
37.7397 58.0
37.7496 59.0
37.7594 69.0
37.7693 69.0
37.7791 80.0
37.789 62.0
37.7988 57.0
37.8087 62.0
37.8185 57.0
37.8284 65.0
37.8382 55.0
37.8481 54.0
37.8579 56.0
37.8677 67.0
37.8776 73.0
37.8874 76.0
37.8973 63.0
37.9071 70.0
37.917 72.0
37.9268 55.0
37.9367 58.0
37.9465 80.0
37.9564 47.0
37.9662 68.0
37.9761 64.0
37.9859 69.0
37.9958 68.0
38.0056 66.0
38.0155 56.0
38.0253 64.0
38.0352 44.0
38.045 57.0
38.0549 66.0
38.0647 44.0
38.0745 60.0
38.0844 70.0
38.0942 64.0
38.1041 41.0
38.1139 71.0
38.1238 62.0
38.1336 60.0
38.1435 65.0
38.1533 58.0
38.1632 63.0
38.173 60.0
38.1829 76.0
38.1927 74.0
38.2026 54.0
38.2124 61.0
38.2223 64.0
38.2321 64.0
38.242 62.0
38.2518 71.0
38.2617 67.0
38.2715 80.0
38.2814 64.0
38.2912 73.0
38.301 60.0
38.3109 79.0
38.3207 75.0
38.3306 66.0
38.3404 70.0
38.3503 86.0
38.3601 77.0
38.37 85.0
38.3798 69.0
38.3897 67.0
38.3995 78.0
38.4094 87.0
38.4192 77.0
38.4291 77.0
38.4389 67.0
38.4488 69.0
38.4586 84.0
38.4685 75.0
38.4783 78.0
38.4882 82.0
38.498 59.0
38.5078 84.0
38.5177 85.0
38.5275 97.0
38.5374 78.0
38.5472 90.0
38.5571 85.0
38.5669 78.0
38.5768 79.0
38.5866 80.0
38.5965 99.0
38.6063 94.0
38.6162 93.0
38.626 76.0
38.6359 80.0
38.6457 97.0
38.6556 78.0
38.6654 104.0
38.6753 110.0
38.6851 95.0
38.695 83.0
38.7048 111.0
38.7146 99.0
38.7245 91.0
38.7343 94.0
38.7442 91.0
38.754 105.0
38.7639 108.0
38.7737 114.0
38.7836 122.0
38.7934 112.0
38.8033 135.0
38.8131 121.0
38.823 131.0
38.8328 106.0
38.8427 138.0
38.8525 138.0
38.8624 165.0
38.8722 159.0
38.8821 139.0
38.8919 166.0
38.9018 170.0
38.9116 160.0
38.9215 169.0
38.9313 172.0
38.9411 168.0
38.951 138.0
38.9608 190.0
38.9707 198.0
38.9805 204.0
38.9904 204.0
39.0002 180.0
39.0101 220.0
39.0199 197.0
39.0298 229.0
39.0396 246.0
39.0495 233.0
39.0593 227.0
39.0692 243.0
39.079 316.0
39.0889 292.0
39.0987 288.0
39.1086 318.0
39.1184 308.0
39.1283 339.0
39.1381 355.0
39.1479 397.0
39.1578 373.0
39.1676 412.0
39.1775 428.0
39.1873 481.0
39.1972 518.0
39.207 579.0
39.2169 586.0
39.2267 678.0
39.2366 689.0
39.2464 794.0
39.2563 786.0
39.2661 863.0
39.276 929.0
39.2858 962.0
39.2957 1141.0
39.3055 1176.0
39.3154 1253.0
39.3252 1342.0
39.3351 1357.0
39.3449 1558.0
39.3548 1647.0
39.3646 1732.0
39.3744 1871.0
39.3843 1960.0
39.3941 2138.0
39.404 2199.0
39.4138 2289.0
39.4237 2469.0
39.4335 2676.0
39.4434 2737.0
39.4532 2986.0
39.4631 3055.0
39.4729 3146.0
39.4828 3327.0
39.4926 3444.0
39.5025 3494.0
39.5123 3535.0
39.5222 3564.0
39.532 3500.0
39.5419 3357.0
39.5517 3328.0
39.5616 3220.0
39.5714 3101.0
39.5812 2847.0
39.5911 2832.0
39.6009 2623.0
39.6108 2443.0
39.6206 2319.0
39.6305 2143.0
39.6403 1992.0
39.6502 1834.0
39.66 1595.0
39.6699 1489.0
39.6797 1364.0
39.6896 1232.0
39.6994 1146.0
39.7093 995.0
39.7191 875.0
39.729 799.0
39.7388 693.0
39.7487 683.0
39.7585 569.0
39.7684 507.0
39.7782 506.0
39.788 465.0
39.7979 404.0
39.8077 332.0
39.8176 311.0
39.8274 299.0
39.8373 269.0
39.8471 278.0
39.857 266.0
39.8668 223.0
39.8767 248.0
39.8865 219.0
39.8964 217.0
39.9062 188.0
39.9161 164.0
39.9259 149.0
39.9358 151.0
39.9456 164.0
39.9555 152.0
39.9653 139.0
39.9752 158.0
39.985 111.0
39.9949 138.0
40.0047 122.0
40.0145 115.0
40.0244 109.0
40.0342 132.0
40.0441 106.0
40.0539 108.0
40.0638 128.0
40.0736 92.0
40.0835 123.0
40.0933 90.0
40.1032 104.0
40.113 115.0
40.1229 87.0
40.1327 99.0
40.1426 91.0
40.1524 109.0
40.1623 103.0
40.1721 83.0
40.182 77.0
40.1918 103.0
40.2017 101.0
40.2115 65.0
40.2213 79.0
40.2312 76.0
40.241 81.0
40.2509 79.0
40.2607 93.0
40.2706 51.0
40.2804 91.0
40.2903 75.0
40.3001 84.0
40.31 82.0
40.3198 80.0
40.3297 73.0
40.3395 84.0
40.3494 73.0
40.3592 88.0
40.3691 82.0
40.3789 81.0
40.3888 88.0
40.3986 65.0
40.4085 101.0
40.4183 59.0
40.4282 67.0
40.438 69.0
40.4478 56.0
40.4577 77.0
40.4675 82.0
40.4774 75.0
40.4872 70.0
40.4971 73.0
40.5069 81.0
40.5168 73.0
40.5266 73.0
40.5365 78.0
40.5463 84.0
40.5562 78.0
40.566 81.0
40.5759 79.0
40.5857 88.0
40.5956 76.0
40.6054 75.0
40.6153 76.0
40.6251 76.0
40.635 81.0
40.6448 75.0
40.6546 70.0
40.6645 77.0
40.6743 58.0
40.6842 79.0
40.694 87.0
40.7039 79.0
40.7137 92.0
40.7236 78.0
40.7334 78.0
40.7433 72.0
40.7531 83.0
40.763 77.0
40.7728 74.0
40.7827 77.0
40.7925 86.0
40.8024 66.0
40.8122 88.0
40.8221 89.0
40.8319 72.0
40.8418 79.0
40.8516 92.0
40.8615 87.0
40.8713 74.0
40.8811 88.0
40.891 89.0
40.9008 82.0
40.9107 97.0
40.9205 73.0
40.9304 76.0
40.9402 103.0
40.9501 94.0
40.9599 84.0
40.9698 78.0
40.9796 88.0
40.9895 89.0
40.9993 82.0
41.0092 90.0
41.019 96.0
41.0289 95.0
41.0387 93.0
41.0486 103.0
41.0584 110.0
41.0683 94.0
41.0781 82.0
41.0879 109.0
41.0978 91.0
41.1076 106.0
41.1175 94.0
41.1273 92.0
41.1372 89.0
41.147 99.0
41.1569 106.0
41.1667 111.0
41.1766 107.0
41.1864 112.0
41.1963 105.0
41.2061 97.0
41.216 127.0
41.2258 120.0
41.2357 130.0
41.2455 116.0
41.2554 107.0
41.2652 129.0
41.2751 133.0
41.2849 131.0
41.2947 108.0
41.3046 141.0
41.3144 133.0
41.3243 140.0
41.3341 147.0
41.344 159.0
41.3538 164.0
41.3637 209.0
41.3735 259.0
41.3834 278.0
41.3932 307.0
41.4031 431.0
41.4129 433.0
41.4228 473.0
41.4326 485.0
41.4425 452.0
41.4523 408.0
41.4622 399.0
41.472 435.0
41.4819 426.0
41.4917 498.0
41.5016 494.0
41.5114 637.0
41.5212 698.0
41.5311 955.0
41.5409 1223.0
41.5508 1809.0
41.5606 2846.0
41.5705 5165.0
41.5803 12707.0
41.5902 29639.0
41.6 40614.0
41.6099 39054.0
41.6197 24267.0
41.6296 10666.0
41.6394 5033.0
41.6493 2982.0
41.6591 2339.0
41.669 2396.0
41.6788 3364.0
41.6887 7122.0
41.6985 14686.0
41.7084 19819.0
41.7182 18806.0
41.728 12245.0
41.7379 5776.0
41.7477 2857.0
41.7576 1579.0
41.7674 1074.0
41.7773 778.0
41.7871 648.0
41.797 557.0
41.8068 458.0
41.8167 410.0
41.8265 372.0
41.8364 348.0
41.8462 301.0
41.8561 286.0
41.8659 275.0
41.8758 204.0
41.8856 155.0
41.8955 194.0
41.9053 149.0
41.9152 174.0
41.925 161.0
41.9349 167.0
41.9447 169.0
41.9545 137.0
41.9644 149.0
41.9742 131.0
41.9841 153.0
41.9939 142.0
42.0038 153.0
42.0136 140.0
42.0235 119.0
42.0333 108.0
42.0432 121.0
42.053 94.0
42.0629 105.0
42.0727 94.0
42.0826 91.0
42.0924 113.0
42.1023 99.0
42.1121 93.0
42.122 94.0
42.1318 89.0
42.1417 99.0
42.1515 93.0
42.1613 85.0
42.1712 87.0
42.181 87.0
42.1909 83.0
42.2007 94.0
42.2106 90.0
42.2204 86.0
42.2303 84.0
42.2401 98.0
42.25 87.0
42.2598 91.0
42.2697 77.0
42.2795 79.0
42.2894 88.0
42.2992 71.0
42.3091 68.0
42.3189 81.0
42.3288 76.0
42.3386 77.0
42.3485 68.0
42.3583 82.0
42.3682 79.0
42.378 61.0
42.3878 71.0
42.3977 83.0
42.4075 74.0
42.4174 69.0
42.4272 69.0
42.4371 83.0
42.4469 73.0
42.4568 63.0
42.4666 62.0
42.4765 73.0
42.4863 72.0
42.4962 73.0
42.506 98.0
42.5159 84.0
42.5257 71.0
42.5356 77.0
42.5454 71.0
42.5553 78.0
42.5651 68.0
42.575 82.0
42.5848 57.0
42.5946 70.0
42.6045 71.0
42.6143 74.0
42.6242 94.0
42.634 68.0
42.6439 67.0
42.6537 64.0
42.6636 46.0
42.6734 60.0
42.6833 72.0
42.6931 79.0
42.703 68.0
42.7128 74.0
42.7227 81.0
42.7325 72.0
42.7424 72.0
42.7522 67.0
42.7621 74.0
42.7719 49.0
42.7818 70.0
42.7916 74.0
42.8014 71.0
42.8113 53.0
42.8211 69.0
42.831 54.0
42.8408 60.0
42.8507 59.0
42.8605 78.0
42.8704 62.0
42.8802 63.0
42.8901 54.0
42.8999 61.0
42.9098 61.0
42.9196 58.0
42.9295 52.0
42.9393 63.0
42.9492 51.0
42.959 75.0
42.9689 74.0
42.9787 56.0
42.9886 68.0
42.9984 63.0
43.0083 60.0
43.0181 68.0
43.0279 70.0
43.0378 64.0
43.0476 61.0
43.0575 73.0
43.0673 65.0
43.0772 58.0
43.087 61.0
43.0969 43.0
43.1067 70.0
43.1166 71.0
43.1264 77.0
43.1363 61.0
43.1461 66.0
43.156 62.0
43.1658 69.0
43.1757 69.0
43.1855 60.0
43.1954 72.0
43.2052 54.0
43.2151 53.0
43.2249 54.0
43.2347 53.0
43.2446 56.0
43.2544 82.0
43.2643 67.0
43.2741 61.0
43.284 63.0
43.2938 68.0
43.3037 69.0
43.3135 56.0
43.3234 65.0
43.3332 70.0
43.3431 67.0
43.3529 54.0
43.3628 55.0
43.3726 61.0
43.3825 63.0
43.3923 53.0
43.4022 62.0
43.412 62.0
43.4219 55.0
43.4317 71.0
43.4416 62.0
43.4514 83.0
43.4612 60.0
43.4711 58.0
43.4809 69.0
43.4908 65.0
43.5006 70.0
43.5105 58.0
43.5203 53.0
43.5302 54.0
43.54 60.0
43.5499 64.0
43.5597 68.0
43.5696 61.0
43.5794 69.0
43.5893 67.0
43.5991 70.0
43.609 70.0
43.6188 54.0
43.6287 55.0
43.6385 72.0
43.6484 54.0
43.6582 70.0
43.668 57.0
43.6779 73.0
43.6877 68.0
43.6976 83.0
43.7074 43.0
43.7173 51.0
43.7271 70.0
43.737 89.0
43.7468 60.0
43.7567 58.0
43.7665 71.0
43.7764 61.0
43.7862 81.0
43.7961 64.0
43.8059 75.0
43.8158 83.0
43.8256 56.0
43.8355 58.0
43.8453 91.0
43.8552 60.0
43.865 76.0
43.8749 61.0
43.8847 62.0
43.8945 56.0
43.9044 57.0
43.9142 62.0
43.9241 58.0
43.9339 77.0
43.9438 75.0
43.9536 77.0
43.9635 79.0
43.9733 81.0
43.9832 79.0
43.993 80.0
44.0029 56.0
44.0127 89.0
44.0226 68.0
44.0324 70.0
44.0423 65.0
44.0521 63.0
44.062 79.0
44.0718 65.0
44.0817 64.0
44.0915 74.0
44.1013 80.0
44.1112 90.0
44.121 89.0
44.1309 75.0
44.1407 79.0
44.1506 75.0
44.1604 65.0
44.1703 95.0
44.1801 80.0
44.19 83.0
44.1998 77.0
44.2097 70.0
44.2195 94.0
44.2294 95.0
44.2392 96.0
44.2491 87.0
44.2589 93.0
44.2688 93.0
44.2786 114.0
44.2885 99.0
44.2983 120.0
44.3081 109.0
44.318 102.0
44.3278 136.0
44.3377 125.0
44.3475 119.0
44.3574 105.0
44.3672 127.0
44.3771 138.0
44.3869 118.0
44.3968 139.0
44.4066 133.0
44.4165 130.0
44.4263 116.0
44.4362 139.0
44.446 125.0
44.4559 124.0
44.4657 129.0
44.4756 111.0
44.4854 139.0
44.4953 138.0
44.5051 117.0
44.515 93.0
44.5248 102.0
44.5346 95.0
44.5445 99.0
44.5543 91.0
44.5642 95.0
44.574 87.0
44.5839 98.0
44.5937 87.0
44.6036 89.0
44.6134 104.0
44.6233 103.0
44.6331 83.0
44.643 92.0
44.6528 79.0
44.6627 89.0
44.6725 90.0
44.6824 79.0
44.6922 71.0
44.7021 67.0
44.7119 85.0
44.7218 90.0
44.7316 73.0
44.7414 70.0
44.7513 90.0
44.7611 69.0
44.771 91.0
44.7808 76.0
44.7907 70.0
44.8005 84.0
44.8104 64.0
44.8202 70.0
44.8301 71.0
44.8399 61.0
44.8498 71.0
44.8596 81.0
44.8695 74.0
44.8793 65.0
44.8892 53.0
44.899 73.0
44.9089 59.0
44.9187 58.0
44.9286 71.0
44.9384 85.0
44.9483 59.0
44.9581 63.0
44.9679 59.0
44.9778 64.0
44.9876 51.0
44.9975 60.0