File: data/W6777r/XRD_Omega/scan_omega_4deg_step_0.005deg0_3.xy
23.18810 35.0
23.19310 45.0
23.19810 27.0
23.20310 55.0
23.20810 41.0
23.21310 30.0
23.21810 34.0
23.22310 40.0
23.22810 32.0
23.23310 37.0
23.23810 36.0
23.24310 33.0
23.24810 39.0
23.25310 32.0
23.25810 36.0
23.26310 36.0
23.26810 38.0
23.27310 43.0
23.27810 35.0
23.28310 38.0
23.28810 31.0
23.29310 43.0
23.29810 43.0
23.30310 35.0
23.30810 37.0
23.31310 45.0
23.31810 43.0
23.32310 38.0
23.32810 51.0
23.33310 45.0
23.33810 36.0
23.34310 45.0
23.34810 41.0
23.35310 43.0
23.35810 53.0
23.36310 39.0
23.36810 44.0
23.37310 39.0
23.37810 49.0
23.38310 34.0
23.38810 45.0
23.39310 38.0
23.39810 45.0
23.40310 32.0
23.40810 53.0
23.41310 43.0
23.41810 39.0
23.42310 42.0
23.42810 38.0
23.43310 44.0
23.43810 49.0
23.44310 62.0
23.44810 54.0
23.45310 47.0
23.45810 45.0
23.46310 49.0
23.46810 52.0
23.47310 58.0
23.47810 49.0
23.48310 45.0
23.48810 47.0
23.49310 50.0
23.49810 46.0
23.50310 64.0
23.50810 44.0
23.51310 54.0
23.51810 40.0
23.52310 41.0
23.52810 49.0
23.53310 49.0
23.53810 49.0
23.54310 39.0
23.54810 53.0
23.55310 49.0
23.55810 47.0
23.56310 53.0
23.56810 44.0
23.57310 45.0
23.57810 46.0
23.58310 63.0
23.58810 52.0
23.59310 53.0
23.59810 58.0
23.60310 53.0
23.60810 60.0
23.61310 66.0
23.61810 55.0
23.62310 63.0
23.62810 59.0
23.63310 46.0
23.63810 65.0
23.64310 43.0
23.64810 65.0
23.65310 70.0
23.65810 53.0
23.66310 39.0
23.66810 57.0
23.67310 60.0
23.67810 48.0
23.68310 73.0
23.68810 57.0
23.69310 55.0
23.69810 61.0
23.70310 60.0
23.70810 59.0
23.71310 52.0
23.71810 77.0
23.72310 51.0
23.72810 65.0
23.73310 82.0
23.73810 60.0
23.74310 67.0
23.74810 79.0
23.75310 67.0
23.75810 72.0
23.76310 81.0
23.76810 60.0
23.77310 71.0
23.77810 64.0
23.78310 70.0
23.78810 65.0
23.79310 60.0
23.79810 82.0
23.80310 73.0
23.80810 85.0
23.81310 73.0
23.81810 82.0
23.82310 81.0
23.82810 77.0
23.83310 80.0
23.83810 75.0
23.84310 75.0
23.84810 73.0
23.85310 77.0
23.85810 72.0
23.86310 89.0
23.86810 76.0
23.87310 74.0
23.87810 77.0
23.88310 86.0
23.88810 96.0
23.89310 66.0
23.89810 84.0
23.90310 92.0
23.90810 98.0
23.91310 101.0
23.91810 92.0
23.92310 92.0
23.92810 107.0
23.93310 105.0
23.93810 106.0
23.94310 93.0
23.94810 99.0
23.95310 86.0
23.95810 90.0
23.96310 88.0
23.96810 101.0
23.97310 111.0
23.97810 101.0
23.98310 80.0
23.98810 112.0
23.99310 88.0
23.99810 129.0
24.00310 117.0
24.00810 113.0
24.01310 121.0
24.01810 111.0
24.02310 121.0
24.02810 122.0
24.03310 144.0
24.03810 133.0
24.04310 104.0
24.04810 126.0
24.05310 130.0
24.05810 129.0
24.06310 143.0
24.06810 151.0
24.07310 138.0
24.07810 148.0
24.08310 157.0
24.08810 149.0
24.09310 151.0
24.09810 151.0
24.10310 143.0
24.10810 176.0
24.11310 144.0
24.11810 146.0
24.12310 169.0
24.12810 139.0
24.13310 159.0
24.13810 173.0
24.14310 183.0
24.14810 159.0
24.15310 165.0
24.15810 157.0
24.16310 189.0
24.16810 157.0
24.17310 196.0
24.17810 219.0
24.18310 182.0
24.18810 197.0
24.19310 182.0
24.19810 171.0
24.20310 227.0
24.20810 202.0
24.21310 200.0
24.21810 197.0
24.22310 200.0
24.22810 228.0
24.23310 237.0
24.23810 219.0
24.24310 228.0
24.24810 214.0
24.25310 225.0
24.25810 237.0
24.26310 231.0
24.26810 298.0
24.27310 252.0
24.27810 252.0
24.28310 248.0
24.28810 248.0
24.29310 281.0
24.29810 241.0
24.30310 304.0
24.30810 262.0
24.31310 286.0
24.31810 312.0
24.32310 301.0
24.32810 326.0
24.33310 289.0
24.33810 332.0
24.34310 333.0
24.34810 328.0
24.35310 320.0
24.35810 372.0
24.36310 352.0
24.36810 410.0
24.37310 377.0
24.37810 377.0
24.38310 351.0
24.38810 378.0
24.39310 393.0
24.39810 389.0
24.40310 420.0
24.40810 431.0
24.41310 428.0
24.41810 423.0
24.42310 469.0
24.42810 419.0
24.43310 432.0
24.43810 451.0
24.44310 469.0
24.44810 491.0
24.45310 465.0
24.45810 504.0
24.46310 515.0
24.46810 507.0
24.47310 534.0
24.47810 514.0
24.48310 527.0
24.48810 573.0
24.49310 565.0
24.49810 604.0
24.50310 552.0
24.50810 590.0
24.51310 598.0
24.51810 626.0
24.52310 627.0
24.52810 612.0
24.53310 672.0
24.53810 703.0
24.54310 642.0
24.54810 665.0
24.55310 670.0
24.55810 733.0
24.56310 714.0
24.56810 762.0
24.57310 728.0
24.57810 753.0
24.58310 732.0
24.58810 786.0
24.59310 781.0
24.59810 884.0
24.60310 840.0
24.60810 850.0
24.61310 862.0
24.61810 846.0
24.62310 930.0
24.62810 942.0
24.63310 941.0
24.63810 965.0
24.64310 969.0
24.64810 988.0
24.65310 1022.0
24.65810 1096.0
24.66310 1108.0
24.66810 1139.0
24.67310 1075.0
24.67810 1161.0
24.68310 1172.0
24.68810 1165.0
24.69310 1178.0
24.69810 1233.0
24.70310 1222.0
24.70810 1156.0
24.71310 1228.0
24.71810 1329.0
24.72310 1315.0
24.72810 1326.0
24.73310 1373.0
24.73810 1396.0
24.74310 1328.0
24.74810 1385.0
24.75310 1410.0
24.75810 1451.0
24.76310 1510.0
24.76810 1505.0
24.77310 1552.0
24.77810 1569.0
24.78310 1568.0
24.78810 1691.0
24.79310 1637.0
24.79810 1702.0
24.80310 1680.0
24.80810 1720.0
24.81310 1723.0
24.81810 1831.0
24.82310 1849.0
24.82810 1794.0
24.83310 1856.0
24.83810 1955.0
24.84310 1843.0
24.84810 2067.0
24.85310 1997.0
24.85810 2008.0
24.86310 1942.0
24.86810 2015.0
24.87310 2013.0
24.87810 2038.0
24.88310 2119.0
24.88810 2193.0
24.89310 2234.0
24.89810 2191.0
24.90310 2226.0
24.90810 2297.0
24.91310 2238.0
24.91810 2290.0
24.92310 2349.0
24.92810 2469.0
24.93310 2422.0
24.93810 2435.0
24.94310 2428.0
24.94810 2459.0
24.95310 2424.0
24.95810 2478.0
24.96310 2532.0
24.96810 2602.0
24.97310 2576.0
24.97810 2768.0
24.98310 2684.0
24.98810 2618.0
24.99310 2752.0
24.99810 2852.0
25.00310 2706.0
25.00810 2699.0
25.01310 2913.0
25.01810 2902.0
25.02310 2863.0
25.02810 2889.0
25.03310 2968.0
25.03810 3041.0
25.04310 2871.0
25.04810 2997.0
25.05310 3067.0
25.05810 3087.0
25.06310 3100.0
25.06810 2972.0
25.07310 3094.0
25.07810 3041.0
25.08310 2991.0
25.08810 3060.0
25.09310 3113.0
25.09810 3194.0
25.10310 3238.0
25.10810 3100.0
25.11310 3144.0
25.11810 3163.0
25.12310 3006.0
25.12810 3143.0
25.13310 3218.0
25.13810 3151.0
25.14310 3099.0
25.14810 3193.0
25.15310 3216.0
25.15810 3260.0
25.16310 3112.0
25.16810 3160.0
25.17310 3267.0
25.17810 3263.0
25.18310 3162.0
25.18810 3325.0
25.19310 3139.0
25.19810 3210.0
25.20310 3170.0
25.20810 3162.0
25.21310 3229.0
25.21810 3126.0
25.22310 3065.0
25.22810 3101.0
25.23310 3258.0
25.23810 3098.0
25.24310 3118.0
25.24810 3048.0
25.25310 3122.0
25.25810 3034.0
25.26310 3145.0
25.26810 3025.0
25.27310 3047.0
25.27810 3031.0
25.28310 2994.0
25.28810 2962.0
25.29310 3019.0
25.29810 2868.0
25.30310 2820.0
25.30810 2876.0
25.31310 2967.0
25.31810 2876.0
25.32310 2733.0
25.32810 2702.0
25.33310 2739.0
25.33810 2698.0
25.34310 2708.0
25.34810 2670.0
25.35310 2686.0
25.35810 2586.0
25.36310 2615.0
25.36810 2521.0
25.37310 2608.0
25.37810 2560.0
25.38310 2484.0
25.38810 2546.0
25.39310 2494.0
25.39810 2436.0
25.40310 2432.0
25.40810 2350.0
25.41310 2451.0
25.41810 2280.0
25.42310 2314.0
25.42810 2309.0
25.43310 2306.0
25.43810 2322.0
25.44310 2166.0
25.44810 2251.0
25.45310 2200.0
25.45810 2165.0
25.46310 2181.0
25.46810 2097.0
25.47310 2054.0
25.47810 2073.0
25.48310 2035.0
25.48810 2002.0
25.49310 1954.0
25.49810 1989.0
25.50310 1979.0
25.50810 1869.0
25.51310 1825.0
25.51810 1816.0
25.52310 1820.0
25.52810 1870.0
25.53310 1788.0
25.53810 1732.0
25.54310 1699.0
25.54810 1638.0
25.55310 1592.0
25.55810 1637.0
25.56310 1584.0
25.56810 1605.0
25.57310 1580.0
25.57810 1520.0
25.58310 1465.0
25.58810 1530.0
25.59310 1472.0
25.59810 1458.0
25.60310 1406.0
25.60810 1414.0
25.61310 1408.0
25.61810 1324.0
25.62310 1348.0
25.62810 1265.0
25.63310 1265.0
25.63810 1241.0
25.64310 1270.0
25.64810 1188.0
25.65310 1235.0
25.65810 1099.0
25.66310 1181.0
25.66810 1149.0
25.67310 1126.0
25.67810 1093.0
25.68310 1068.0
25.68810 1025.0
25.69310 1026.0
25.69810 1081.0
25.70310 981.0
25.70810 966.0
25.71310 984.0
25.71810 925.0
25.72310 883.0
25.72810 945.0
25.73310 904.0
25.73810 907.0
25.74310 937.0
25.74810 833.0
25.75310 817.0
25.75810 840.0
25.76310 783.0
25.76810 759.0
25.77310 808.0
25.77810 775.0
25.78310 734.0
25.78810 692.0
25.79310 768.0
25.79810 724.0
25.80310 721.0
25.80810 673.0
25.81310 689.0
25.81810 712.0
25.82310 687.0
25.82810 625.0
25.83310 668.0
25.83810 629.0
25.84310 609.0
25.84810 545.0
25.85310 555.0
25.85810 557.0
25.86310 555.0
25.86810 568.0
25.87310 548.0
25.87810 546.0
25.88310 505.0
25.88810 505.0
25.89310 511.0
25.89810 493.0
25.90310 466.0
25.90810 509.0
25.91310 495.0
25.91810 459.0
25.92310 480.0
25.92810 442.0
25.93310 474.0
25.93810 418.0
25.94310 447.0
25.94810 420.0
25.95310 413.0
25.95810 432.0
25.96310 383.0
25.96810 397.0
25.97310 340.0
25.97810 347.0
25.98310 353.0
25.98810 370.0
25.99310 368.0
25.99810 351.0
26.00310 337.0
26.00810 294.0
26.01310 310.0
26.01810 311.0
26.02310 277.0
26.02810 307.0
26.03310 303.0
26.03810 276.0
26.04310 319.0
26.04810 291.0
26.05310 286.0
26.05810 291.0
26.06310 275.0
26.06810 259.0
26.07310 252.0
26.07810 238.0
26.08310 252.0
26.08810 247.0
26.09310 223.0
26.09810 246.0
26.10310 207.0
26.10810 252.0
26.11310 227.0
26.11810 242.0
26.12310 231.0
26.12810 192.0
26.13310 208.0
26.13810 228.0
26.14310 212.0
26.14810 212.0
26.15310 219.0
26.15810 180.0
26.16310 194.0
26.16810 185.0
26.17310 182.0
26.17810 153.0
26.18310 177.0
26.18810 182.0
26.19310 185.0
26.19810 167.0
26.20310 157.0
26.20810 178.0
26.21310 161.0
26.21810 148.0
26.22310 162.0
26.22810 152.0
26.23310 146.0
26.23810 167.0
26.24310 152.0
26.24810 132.0
26.25310 162.0
26.25810 136.0
26.26310 128.0
26.26810 143.0
26.27310 139.0
26.27810 146.0
26.28310 123.0
26.28810 114.0
26.29310 133.0
26.29810 119.0
26.30310 165.0
26.30810 131.0
26.31310 126.0
26.31810 147.0
26.32310 104.0
26.32810 125.0
26.33310 97.0
26.33810 96.0
26.34310 144.0
26.34810 109.0
26.35310 109.0
26.35810 114.0
26.36310 95.0
26.36810 106.0
26.37310 99.0
26.37810 107.0
26.38310 99.0
26.38810 95.0
26.39310 80.0
26.39810 99.0
26.40310 90.0
26.40810 99.0
26.41310 105.0
26.41810 95.0
26.42310 89.0
26.42810 102.0
26.43310 83.0
26.43810 83.0
26.44310 89.0
26.44810 88.0
26.45310 90.0
26.45810 83.0
26.46310 83.0
26.46810 72.0
26.47310 99.0
26.47810 83.0
26.48310 81.0
26.48810 85.0
26.49310 71.0
26.49810 69.0
26.50310 78.0
26.50810 83.0
26.51310 75.0
26.51810 88.0
26.52310 70.0
26.52810 70.0
26.53310 78.0
26.53810 86.0
26.54310 65.0
26.54810 72.0
26.55310 64.0
26.55810 70.0
26.56310 77.0
26.56810 73.0
26.57310 68.0
26.57810 55.0
26.58310 51.0
26.58810 63.0
26.59310 49.0
26.59810 67.0
26.60310 65.0
26.60810 65.0
26.61310 80.0
26.61810 58.0
26.62310 54.0
26.62810 57.0
26.63310 57.0
26.63810 68.0
26.64310 75.0
26.64810 61.0
26.65310 71.0
26.65810 67.0
26.66310 47.0
26.66810 49.0
26.67310 55.0
26.67810 54.0
26.68310 51.0
26.68810 60.0
26.69310 60.0
26.69810 65.0
26.70310 54.0
26.70810 65.0
26.71310 52.0
26.71810 47.0
26.72310 60.0
26.72810 52.0
26.73310 51.0
26.73810 67.0
26.74310 59.0
26.74810 47.0
26.75310 39.0
26.75810 41.0
26.76310 45.0
26.76810 52.0
26.77310 56.0
26.77810 69.0
26.78310 44.0
26.78810 58.0
26.79310 71.0
26.79810 47.0
26.80310 49.0
26.80810 59.0
26.81310 52.0
26.81810 47.0
26.82310 60.0
26.82810 40.0
26.83310 55.0
26.83810 48.0
26.84310 47.0
26.84810 57.0
26.85310 47.0
26.85810 37.0
26.86310 45.0
26.86810 57.0
26.87310 45.0
26.87810 48.0
26.88310 40.0
26.88810 54.0
26.89310 32.0
26.89810 50.0
26.90310 44.0
26.90810 46.0
26.91310 39.0
26.91810 45.0
26.92310 50.0
26.92810 42.0
26.93310 47.0
26.93810 45.0
26.94310 37.0
26.94810 32.0
26.95310 38.0
26.95810 37.0
26.96310 42.0
26.96810 36.0
26.97310 41.0
26.97810 42.0
26.98310 52.0
26.98810 43.0
26.99310 38.0
26.99810 42.0
27.00310 43.0
27.00810 44.0
27.01310 38.0
27.01810 48.0
27.02310 25.0
27.02810 47.0
27.03310 36.0
27.03810 37.0
27.04310 34.0
27.04810 37.0
27.05310 38.0
27.05810 36.0
27.06310 47.0
27.06810 48.0
27.07310 42.0
27.07810 41.0
27.08310 43.0
27.08810 36.0
27.09310 41.0
27.09810 40.0
27.10310 44.0
27.10810 47.0
27.11310 43.0
27.11810 40.0
27.12310 36.0
27.12810 32.0
27.13310 42.0
27.13810 37.0
27.14310 36.0
27.14810 44.0