File: data/W6902m/XRD_Omega/scan_omega_4deg_step_0.005deg0_C3_2.xy
30.95010 68.0
30.95510 77.0
30.96010 87.0
30.96510 76.0
30.97010 66.0
30.97510 90.0
30.98010 74.0
30.98510 77.0
30.99010 85.0
30.99510 86.0
31.00010 68.0
31.00510 72.0
31.01010 82.0
31.01510 67.0
31.02010 76.0
31.02510 91.0
31.03010 77.0
31.03510 58.0
31.04010 77.0
31.04510 67.0
31.05010 79.0
31.05510 58.0
31.06010 78.0
31.06510 81.0
31.07010 77.0
31.07510 79.0
31.08010 78.0
31.08510 64.0
31.09010 83.0
31.09510 69.0
31.10010 95.0
31.10510 69.0
31.11010 65.0
31.11510 94.0
31.12010 80.0
31.12510 87.0
31.13010 72.0
31.13510 75.0
31.14010 101.0
31.14510 91.0
31.15010 61.0
31.15510 97.0
31.16010 77.0
31.16510 100.0
31.17010 88.0
31.17510 96.0
31.18010 83.0
31.18510 93.0
31.19010 67.0
31.19510 78.0
31.20010 86.0
31.20510 67.0
31.21010 92.0
31.21510 88.0
31.22010 90.0
31.22510 88.0
31.23010 79.0
31.23510 75.0
31.24010 84.0
31.24510 78.0
31.25010 97.0
31.25510 89.0
31.26010 84.0
31.26510 84.0
31.27010 83.0
31.27510 81.0
31.28010 76.0
31.28510 92.0
31.29010 89.0
31.29510 75.0
31.30010 76.0
31.30510 78.0
31.31010 86.0
31.31510 100.0
31.32010 88.0
31.32510 76.0
31.33010 78.0
31.33510 80.0
31.34010 95.0
31.34510 95.0
31.35010 72.0
31.35510 79.0
31.36010 92.0
31.36510 93.0
31.37010 95.0
31.37510 71.0
31.38010 84.0
31.38510 89.0
31.39010 91.0
31.39510 75.0
31.40010 98.0
31.40510 81.0
31.41010 65.0
31.41510 89.0
31.42010 93.0
31.42510 97.0
31.43010 75.0
31.43510 86.0
31.44010 94.0
31.44510 100.0
31.45010 84.0
31.45510 88.0
31.46010 94.0
31.46510 93.0
31.47010 85.0
31.47510 101.0
31.48010 90.0
31.48510 95.0
31.49010 98.0
31.49510 99.0
31.50010 91.0
31.50510 84.0
31.51010 100.0
31.51510 95.0
31.52010 91.0
31.52510 83.0
31.53010 71.0
31.53510 94.0
31.54010 96.0
31.54510 91.0
31.55010 123.0
31.55510 119.0
31.56010 82.0
31.56510 104.0
31.57010 114.0
31.57510 93.0
31.58010 85.0
31.58510 91.0
31.59010 89.0
31.59510 90.0
31.60010 130.0
31.60510 86.0
31.61010 110.0
31.61510 93.0
31.62010 90.0
31.62510 86.0
31.63010 94.0
31.63510 109.0
31.64010 112.0
31.64510 114.0
31.65010 129.0
31.65510 124.0
31.66010 99.0
31.66510 97.0
31.67010 114.0
31.67510 120.0
31.68010 117.0
31.68510 95.0
31.69010 138.0
31.69510 114.0
31.70010 98.0
31.70510 120.0
31.71010 108.0
31.71510 121.0
31.72010 115.0
31.72510 115.0
31.73010 113.0
31.73510 111.0
31.74010 121.0
31.74510 98.0
31.75010 129.0
31.75510 117.0
31.76010 125.0
31.76510 110.0
31.77010 119.0
31.77510 126.0
31.78010 109.0
31.78510 131.0
31.79010 133.0
31.79510 122.0
31.80010 126.0
31.80510 131.0
31.81010 140.0
31.81510 130.0
31.82010 134.0
31.82510 126.0
31.83010 120.0
31.83510 125.0
31.84010 137.0
31.84510 148.0
31.85010 131.0
31.85510 140.0
31.86010 145.0
31.86510 159.0
31.87010 135.0
31.87510 137.0
31.88010 160.0
31.88510 136.0
31.89010 137.0
31.89510 135.0
31.90010 135.0
31.90510 160.0
31.91010 150.0
31.91510 157.0
31.92010 153.0
31.92510 156.0
31.93010 158.0
31.93510 171.0
31.94010 171.0
31.94510 147.0
31.95010 172.0
31.95510 191.0
31.96010 176.0
31.96510 169.0
31.97010 200.0
31.97510 188.0
31.98010 184.0
31.98510 187.0
31.99010 185.0
31.99510 171.0
32.00010 201.0
32.00510 206.0
32.01010 213.0
32.01510 203.0
32.02010 198.0
32.02510 202.0
32.03010 220.0
32.03510 194.0
32.04010 229.0
32.04510 242.0
32.05010 236.0
32.05510 216.0
32.06010 193.0
32.06510 213.0
32.07010 213.0
32.07510 230.0
32.08010 223.0
32.08510 242.0
32.09010 234.0
32.09510 269.0
32.10010 193.0
32.10510 238.0
32.11010 239.0
32.11510 256.0
32.12010 234.0
32.12510 261.0
32.13010 276.0
32.13510 290.0
32.14010 265.0
32.14510 286.0
32.15010 284.0
32.15510 252.0
32.16010 300.0
32.16510 266.0
32.17010 314.0
32.17510 297.0
32.18010 340.0
32.18510 325.0
32.19010 368.0
32.19510 347.0
32.20010 362.0
32.20510 344.0
32.21010 422.0
32.21510 393.0
32.22010 428.0
32.22510 411.0
32.23010 413.0
32.23510 429.0
32.24010 453.0
32.24510 447.0
32.25010 418.0
32.25510 448.0
32.26010 466.0
32.26510 482.0
32.27010 501.0
32.27510 499.0
32.28010 474.0
32.28510 500.0
32.29010 473.0
32.29510 504.0
32.30010 540.0
32.30510 489.0
32.31010 543.0
32.31510 546.0
32.32010 567.0
32.32510 553.0
32.33010 587.0
32.33510 632.0
32.34010 561.0
32.34510 627.0
32.35010 655.0
32.35510 660.0
32.36010 703.0
32.36510 714.0
32.37010 682.0
32.37510 670.0
32.38010 717.0
32.38510 741.0
32.39010 760.0
32.39510 775.0
32.40010 725.0
32.40510 748.0
32.41010 758.0
32.41510 782.0
32.42010 793.0
32.42510 823.0
32.43010 811.0
32.43510 839.0
32.44010 853.0
32.44510 877.0
32.45010 897.0
32.45510 882.0
32.46010 828.0
32.46510 850.0
32.47010 891.0
32.47510 917.0
32.48010 904.0
32.48510 975.0
32.49010 963.0
32.49510 943.0
32.50010 969.0
32.50510 980.0
32.51010 1032.0
32.51510 1066.0
32.52010 1072.0
32.52510 1067.0
32.53010 1105.0
32.53510 1161.0
32.54010 1108.0
32.54510 1157.0
32.55010 1170.0
32.55510 1117.0
32.56010 1218.0
32.56510 1231.0
32.57010 1277.0
32.57510 1335.0
32.58010 1300.0
32.58510 1381.0
32.59010 1286.0
32.59510 1275.0
32.60010 1336.0
32.60510 1373.0
32.61010 1402.0
32.61510 1543.0
32.62010 1437.0
32.62510 1566.0
32.63010 1537.0
32.63510 1546.0
32.64010 1589.0
32.64510 1512.0
32.65010 1617.0
32.65510 1570.0
32.66010 1646.0
32.66510 1700.0
32.67010 1648.0
32.67510 1737.0
32.68010 1704.0
32.68510 1763.0
32.69010 1800.0
32.69510 1873.0
32.70010 1879.0
32.70510 1857.0
32.71010 1930.0
32.71510 1905.0
32.72010 2004.0
32.72510 1975.0
32.73010 1940.0
32.73510 2007.0
32.74010 2033.0
32.74510 1989.0
32.75010 2019.0
32.75510 2108.0
32.76010 2169.0
32.76510 2190.0
32.77010 2161.0
32.77510 2156.0
32.78010 2281.0
32.78510 2378.0
32.79010 2330.0
32.79510 2263.0
32.80010 2286.0
32.80510 2309.0
32.81010 2357.0
32.81510 2386.0
32.82010 2340.0
32.82510 2384.0
32.83010 2588.0
32.83510 2415.0
32.84010 2543.0
32.84510 2527.0
32.85010 2439.0
32.85510 2521.0
32.86010 2413.0
32.86510 2559.0
32.87010 2537.0
32.87510 2626.0
32.88010 2533.0
32.88510 2615.0
32.89010 2550.0
32.89510 2692.0
32.90010 2631.0
32.90510 2733.0
32.91010 2700.0
32.91510 2665.0
32.92010 2694.0
32.92510 2769.0
32.93010 2739.0
32.93510 2616.0
32.94010 2703.0
32.94510 2706.0
32.95010 2721.0
32.95510 2695.0
32.96010 2654.0
32.96510 2696.0
32.97010 2705.0
32.97510 2679.0
32.98010 2715.0
32.98510 2620.0
32.99010 2752.0
32.99510 2553.0
33.00010 2611.0
33.00510 2643.0
33.01010 2535.0
33.01510 2545.0
33.02010 2469.0
33.02510 2541.0
33.03010 2493.0
33.03510 2466.0
33.04010 2477.0
33.04510 2497.0
33.05010 2400.0
33.05510 2427.0
33.06010 2365.0
33.06510 2287.0
33.07010 2349.0
33.07510 2230.0
33.08010 2260.0
33.08510 2202.0
33.09010 2140.0
33.09510 2132.0
33.10010 2046.0
33.10510 2008.0
33.11010 2061.0
33.11510 1977.0
33.12010 1942.0
33.12510 1890.0
33.13010 1851.0
33.13510 1886.0
33.14010 1854.0
33.14510 1750.0
33.15010 1734.0
33.15510 1745.0
33.16010 1613.0
33.16510 1588.0
33.17010 1503.0
33.17510 1538.0
33.18010 1446.0
33.18510 1412.0
33.19010 1409.0
33.19510 1387.0
33.20010 1293.0
33.20510 1299.0
33.21010 1289.0
33.21510 1278.0
33.22010 1184.0
33.22510 1165.0
33.23010 1197.0
33.23510 1117.0
33.24010 1033.0
33.24510 1086.0
33.25010 959.0
33.25510 994.0
33.26010 958.0
33.26510 917.0
33.27010 913.0
33.27510 885.0
33.28010 869.0
33.28510 864.0
33.29010 770.0
33.29510 800.0
33.30010 781.0
33.30510 743.0
33.31010 733.0
33.31510 694.0
33.32010 640.0
33.32510 645.0
33.33010 642.0
33.33510 592.0
33.34010 591.0
33.34510 582.0
33.35010 569.0
33.35510 540.0
33.36010 572.0
33.36510 532.0
33.37010 479.0
33.37510 498.0
33.38010 504.0
33.38510 486.0
33.39010 450.0
33.39510 435.0
33.40010 435.0
33.40510 452.0
33.41010 396.0
33.41510 404.0
33.42010 395.0
33.42510 384.0
33.43010 359.0
33.43510 335.0
33.44010 349.0
33.44510 319.0
33.45010 320.0
33.45510 298.0
33.46010 284.0
33.46510 323.0
33.47010 285.0
33.47510 282.0
33.48010 274.0
33.48510 292.0
33.49010 295.0
33.49510 276.0
33.50010 282.0
33.50510 259.0
33.51010 231.0
33.51510 261.0
33.52010 235.0
33.52510 242.0
33.53010 266.0
33.53510 232.0
33.54010 240.0
33.54510 245.0
33.55010 239.0
33.55510 217.0
33.56010 195.0
33.56510 206.0
33.57010 179.0
33.57510 209.0
33.58010 201.0
33.58510 198.0
33.59010 197.0
33.59510 177.0
33.60010 204.0
33.60510 180.0
33.61010 189.0
33.61510 176.0
33.62010 169.0
33.62510 159.0
33.63010 154.0
33.63510 159.0
33.64010 189.0
33.64510 146.0
33.65010 163.0
33.65510 182.0
33.66010 146.0
33.66510 154.0
33.67010 153.0
33.67510 147.0
33.68010 135.0
33.68510 156.0
33.69010 121.0
33.69510 142.0
33.70010 166.0
33.70510 120.0
33.71010 140.0
33.71510 132.0
33.72010 132.0
33.72510 138.0
33.73010 119.0
33.73510 133.0
33.74010 113.0
33.74510 126.0
33.75010 123.0
33.75510 136.0
33.76010 120.0
33.76510 113.0
33.77010 120.0
33.77510 114.0
33.78010 107.0
33.78510 128.0
33.79010 110.0
33.79510 100.0
33.80010 124.0
33.80510 120.0
33.81010 105.0
33.81510 110.0
33.82010 114.0
33.82510 90.0
33.83010 103.0
33.83510 115.0
33.84010 130.0
33.84510 105.0
33.85010 116.0
33.85510 90.0
33.86010 99.0
33.86510 106.0
33.87010 88.0
33.87510 105.0
33.88010 110.0
33.88510 100.0
33.89010 91.0
33.89510 111.0
33.90010 105.0
33.90510 95.0
33.91010 108.0
33.91510 100.0
33.92010 105.0
33.92510 106.0
33.93010 95.0
33.93510 93.0
33.94010 85.0
33.94510 81.0
33.95010 87.0
33.95510 85.0
33.96010 87.0
33.96510 108.0
33.97010 91.0
33.97510 85.0
33.98010 103.0
33.98510 84.0
33.99010 92.0
33.99510 98.0
34.00010 105.0
34.00510 100.0
34.01010 95.0
34.01510 86.0
34.02010 90.0
34.02510 79.0
34.03010 92.0
34.03510 99.0
34.04010 89.0
34.04510 80.0
34.05010 82.0
34.05510 74.0
34.06010 87.0
34.06510 94.0
34.07010 88.0
34.07510 74.0
34.08010 88.0
34.08510 81.0
34.09010 78.0
34.09510 85.0
34.10010 66.0
34.10510 78.0
34.11010 82.0
34.11510 87.0
34.12010 76.0
34.12510 101.0
34.13010 71.0
34.13510 86.0
34.14010 80.0
34.14510 65.0
34.15010 76.0
34.15510 93.0
34.16010 92.0
34.16510 88.0
34.17010 65.0
34.17510 75.0
34.18010 89.0
34.18510 81.0
34.19010 65.0
34.19510 85.0
34.20010 81.0
34.20510 82.0
34.21010 78.0
34.21510 84.0
34.22010 88.0
34.22510 66.0
34.23010 79.0
34.23510 78.0
34.24010 65.0
34.24510 81.0
34.25010 88.0
34.25510 66.0
34.26010 85.0
34.26510 82.0
34.27010 70.0
34.27510 69.0
34.28010 50.0
34.28510 72.0
34.29010 90.0
34.29510 72.0
34.30010 74.0
34.30510 70.0
34.31010 73.0
34.31510 67.0
34.32010 77.0
34.32510 79.0
34.33010 73.0
34.33510 78.0
34.34010 67.0
34.34510 69.0
34.35010 64.0
34.35510 69.0
34.36010 80.0
34.36510 82.0
34.37010 68.0
34.37510 91.0
34.38010 64.0
34.38510 73.0
34.39010 80.0
34.39510 88.0
34.40010 72.0
34.40510 69.0
34.41010 58.0
34.41510 72.0
34.42010 75.0
34.42510 78.0
34.43010 70.0
34.43510 69.0
34.44010 85.0
34.44510 73.0
34.45010 69.0
34.45510 70.0
34.46010 76.0
34.46510 57.0
34.47010 55.0
34.47510 62.0
34.48010 69.0
34.48510 69.0
34.49010 86.0
34.49510 78.0
34.50010 73.0
34.50510 63.0
34.51010 62.0
34.51510 95.0
34.52010 76.0
34.52510 69.0
34.53010 77.0
34.53510 78.0
34.54010 62.0
34.54510 60.0
34.55010 52.0
34.55510 66.0
34.56010 75.0
34.56510 67.0
34.57010 61.0
34.57510 70.0
34.58010 67.0
34.58510 71.0
34.59010 60.0
34.59510 67.0
34.60010 79.0
34.60510 76.0
34.61010 68.0
34.61510 79.0
34.62010 72.0
34.62510 58.0
34.63010 82.0
34.63510 67.0
34.64010 58.0
34.64510 82.0
34.65010 69.0
34.65510 71.0
34.66010 72.0
34.66510 64.0
34.67010 64.0
34.67510 65.0
34.68010 56.0
34.68510 65.0
34.69010 61.0
34.69510 59.0
34.70010 87.0
34.70510 59.0
34.71010 76.0
34.71510 70.0
34.72010 72.0
34.72510 75.0
34.73010 60.0
34.73510 78.0
34.74010 72.0
34.74510 61.0
34.75010 68.0
34.75510 99.0
34.76010 60.0
34.76510 72.0
34.77010 61.0
34.77510 63.0
34.78010 66.0
34.78510 63.0
34.79010 74.0
34.79510 64.0
34.80010 72.0
34.80510 69.0
34.81010 71.0
34.81510 74.0
34.82010 70.0
34.82510 73.0
34.83010 72.0
34.83510 61.0
34.84010 63.0
34.84510 54.0
34.85010 67.0
34.85510 79.0
34.86010 75.0
34.86510 77.0
34.87010 62.0
34.87510 72.0
34.88010 75.0
34.88510 77.0
34.89010 58.0
34.89510 61.0
34.90010 84.0
34.90510 56.0
34.91010 73.0