File: data/W6901a/XRD_Omega/scan_omega_4deg_step_0.005deg0_C2_1.xy
16.00970 75.0
16.01470 63.0
16.01970 67.0
16.02470 60.0
16.02970 75.0
16.03470 79.0
16.03970 74.0
16.04470 82.0
16.04970 56.0
16.05470 63.0
16.05970 53.0
16.06470 71.0
16.06970 79.0
16.07470 66.0
16.07970 71.0
16.08470 75.0
16.08970 55.0
16.09470 75.0
16.09970 65.0
16.10470 76.0
16.10970 65.0
16.11470 60.0
16.11970 60.0
16.12470 56.0
16.12970 70.0
16.13470 66.0
16.13970 76.0
16.14470 65.0
16.14970 77.0
16.15470 84.0
16.15970 66.0
16.16470 80.0
16.16970 63.0
16.17470 67.0
16.17970 73.0
16.18470 64.0
16.18970 92.0
16.19470 64.0
16.19970 75.0
16.20470 64.0
16.20970 66.0
16.21470 74.0
16.21970 66.0
16.22470 59.0
16.22970 54.0
16.23470 64.0
16.23970 62.0
16.24470 96.0
16.24970 65.0
16.25470 66.0
16.25970 71.0
16.26470 76.0
16.26970 56.0
16.27470 70.0
16.27970 85.0
16.28470 52.0
16.28970 64.0
16.29470 77.0
16.29970 64.0
16.30470 76.0
16.30970 82.0
16.31470 68.0
16.31970 60.0
16.32470 69.0
16.32970 82.0
16.33470 61.0
16.33970 75.0
16.34470 59.0
16.34970 71.0
16.35470 74.0
16.35970 74.0
16.36470 66.0
16.36970 75.0
16.37470 67.0
16.37970 91.0
16.38470 70.0
16.38970 75.0
16.39470 74.0
16.39970 78.0
16.40470 83.0
16.40970 71.0
16.41470 74.0
16.41970 81.0
16.42470 88.0
16.42970 82.0
16.43470 72.0
16.43970 68.0
16.44470 65.0
16.44970 64.0
16.45470 79.0
16.45970 79.0
16.46470 71.0
16.46970 81.0
16.47470 67.0
16.47970 82.0
16.48470 78.0
16.48970 79.0
16.49470 77.0
16.49970 78.0
16.50470 74.0
16.50970 77.0
16.51470 73.0
16.51970 71.0
16.52470 72.0
16.52970 67.0
16.53470 64.0
16.53970 63.0
16.54470 78.0
16.54970 73.0
16.55470 65.0
16.55970 70.0
16.56470 84.0
16.56970 77.0
16.57470 79.0
16.57970 74.0
16.58470 63.0
16.58970 84.0
16.59470 86.0
16.59970 81.0
16.60470 90.0
16.60970 82.0
16.61470 82.0
16.61970 89.0
16.62470 53.0
16.62970 72.0
16.63470 77.0
16.63970 74.0
16.64470 68.0
16.64970 84.0
16.65470 72.0
16.65970 80.0
16.66470 68.0
16.66970 81.0
16.67470 65.0
16.67970 90.0
16.68470 71.0
16.68970 91.0
16.69470 88.0
16.69970 80.0
16.70470 70.0
16.70970 82.0
16.71470 91.0
16.71970 78.0
16.72470 89.0
16.72970 78.0
16.73470 89.0
16.73970 75.0
16.74470 80.0
16.74970 83.0
16.75470 85.0
16.75970 86.0
16.76470 81.0
16.76970 77.0
16.77470 78.0
16.77970 81.0
16.78470 72.0
16.78970 75.0
16.79470 84.0
16.79970 76.0
16.80470 89.0
16.80970 97.0
16.81470 81.0
16.81970 76.0
16.82470 64.0
16.82970 63.0
16.83470 91.0
16.83970 83.0
16.84470 93.0
16.84970 83.0
16.85470 75.0
16.85970 96.0
16.86470 91.0
16.86970 67.0
16.87470 74.0
16.87970 83.0
16.88470 98.0
16.88970 87.0
16.89470 94.0
16.89970 97.0
16.90470 84.0
16.90970 94.0
16.91470 102.0
16.91970 93.0
16.92470 96.0
16.92970 102.0
16.93470 95.0
16.93970 93.0
16.94470 107.0
16.94970 114.0
16.95470 106.0
16.95970 96.0
16.96470 105.0
16.96970 118.0
16.97470 109.0
16.97970 104.0
16.98470 97.0
16.98970 85.0
16.99470 101.0
16.99970 104.0
17.00470 83.0
17.00970 101.0
17.01470 100.0
17.01970 114.0
17.02470 90.0
17.02970 102.0
17.03470 96.0
17.03970 102.0
17.04470 95.0
17.04970 107.0
17.05470 111.0
17.05970 89.0
17.06470 99.0
17.06970 98.0
17.07470 115.0
17.07970 117.0
17.08470 97.0
17.08970 108.0
17.09470 106.0
17.09970 134.0
17.10470 119.0
17.10970 101.0
17.11470 101.0
17.11970 110.0
17.12470 101.0
17.12970 102.0
17.13470 102.0
17.13970 119.0
17.14470 123.0
17.14970 112.0
17.15470 114.0
17.15970 123.0
17.16470 128.0
17.16970 102.0
17.17470 144.0
17.17970 127.0
17.18470 107.0
17.18970 122.0
17.19470 116.0
17.19970 131.0
17.20470 124.0
17.20970 154.0
17.21470 128.0
17.21970 132.0
17.22470 123.0
17.22970 142.0
17.23470 149.0
17.23970 135.0
17.24470 138.0
17.24970 133.0
17.25470 143.0
17.25970 152.0
17.26470 135.0
17.26970 159.0
17.27470 143.0
17.27970 154.0
17.28470 153.0
17.28970 157.0
17.29470 150.0
17.29970 132.0
17.30470 167.0
17.30970 164.0
17.31470 166.0
17.31970 151.0
17.32470 156.0
17.32970 171.0
17.33470 156.0
17.33970 170.0
17.34470 147.0
17.34970 168.0
17.35470 164.0
17.35970 180.0
17.36470 168.0
17.36970 163.0
17.37470 163.0
17.37970 171.0
17.38470 176.0
17.38970 165.0
17.39470 183.0
17.39970 185.0
17.40470 165.0
17.40970 184.0
17.41470 156.0
17.41970 160.0
17.42470 189.0
17.42970 185.0
17.43470 213.0
17.43970 188.0
17.44470 196.0
17.44970 199.0
17.45470 198.0
17.45970 201.0
17.46470 198.0
17.46970 202.0
17.47470 205.0
17.47970 207.0
17.48470 224.0
17.48970 233.0
17.49470 209.0
17.49970 204.0
17.50470 230.0
17.50970 231.0
17.51470 199.0
17.51970 228.0
17.52470 206.0
17.52970 184.0
17.53470 275.0
17.53970 210.0
17.54470 246.0
17.54970 169.0
17.55470 263.0
17.55970 241.0
17.56470 222.0
17.56970 261.0
17.57470 272.0
17.57970 254.0
17.58470 255.0
17.58970 264.0
17.59470 233.0
17.59970 236.0
17.60470 251.0
17.60970 218.0
17.61470 255.0
17.61970 294.0
17.62470 269.0
17.62970 269.0
17.63470 250.0
17.63970 282.0
17.64470 267.0
17.64970 260.0
17.65470 270.0
17.65970 252.0
17.66470 295.0
17.66970 306.0
17.67470 277.0
17.67970 272.0
17.68470 265.0
17.68970 296.0
17.69470 298.0
17.69970 274.0
17.70470 318.0
17.70970 294.0
17.71470 327.0
17.71970 319.0
17.72470 298.0
17.72970 321.0
17.73470 312.0
17.73970 328.0
17.74470 323.0
17.74970 346.0
17.75470 328.0
17.75970 324.0
17.76470 343.0
17.76970 358.0
17.77470 338.0
17.77970 355.0
17.78470 310.0
17.78970 350.0
17.79470 314.0
17.79970 342.0
17.80470 364.0
17.80970 356.0
17.81470 349.0
17.81970 342.0
17.82470 336.0
17.82970 347.0
17.83470 434.0
17.83970 437.0
17.84470 509.0
17.84970 528.0
17.85470 774.0
17.85970 868.0
17.86470 994.0
17.86970 1238.0
17.87470 1332.0
17.87970 1420.0
17.88470 1537.0
17.88970 1497.0
17.89470 1586.0
17.89970 1639.0
17.90470 1719.0
17.90970 1778.0
17.91470 1710.0
17.91970 1878.0
17.92470 1822.0
17.92970 1934.0
17.93470 1965.0
17.93970 1910.0
17.94470 2075.0
17.94970 2085.0
17.95470 2081.0
17.95970 2109.0
17.96470 2117.0
17.96970 2261.0
17.97470 2088.0
17.97970 2108.0
17.98470 2188.0
17.98970 2170.0
17.99470 2107.0
17.99970 2136.0
18.00470 2174.0
18.00970 2166.0
18.01470 2132.0
18.01970 2069.0
18.02470 2073.0
18.02970 2043.0
18.03470 2093.0
18.03970 1910.0
18.04470 1856.0
18.04970 1952.0
18.05470 1814.0
18.05970 1807.0
18.06470 1803.0
18.06970 1871.0
18.07470 1710.0
18.07970 1655.0
18.08470 1560.0
18.08970 1556.0
18.09470 1521.0
18.09970 1463.0
18.10470 1359.0
18.10970 1278.0
18.11470 1197.0
18.11970 1099.0
18.12470 954.0
18.12970 884.0
18.13470 644.0
18.13970 582.0
18.14470 460.0
18.14970 432.0
18.15470 377.0
18.15970 380.0
18.16470 371.0
18.16970 371.0
18.17470 359.0
18.17970 386.0
18.18470 384.0
18.18970 348.0
18.19470 370.0
18.19970 361.0
18.20470 348.0
18.20970 356.0
18.21470 333.0
18.21970 337.0
18.22470 341.0
18.22970 329.0
18.23470 320.0
18.23970 329.0
18.24470 349.0
18.24970 308.0
18.25470 342.0
18.25970 300.0
18.26470 309.0
18.26970 331.0
18.27470 309.0
18.27970 296.0
18.28470 276.0
18.28970 329.0
18.29470 291.0
18.29970 285.0
18.30470 268.0
18.30970 297.0
18.31470 272.0
18.31970 293.0
18.32470 266.0
18.32970 273.0
18.33470 266.0
18.33970 284.0
18.34470 231.0
18.34970 262.0
18.35470 298.0
18.35970 247.0
18.36470 283.0
18.36970 277.0
18.37470 242.0
18.37970 264.0
18.38470 258.0
18.38970 228.0
18.39470 231.0
18.39970 253.0
18.40470 250.0
18.40970 253.0
18.41470 252.0
18.41970 261.0
18.42470 221.0
18.42970 231.0
18.43470 208.0
18.43970 213.0
18.44470 225.0
18.44970 192.0
18.45470 232.0
18.45970 197.0
18.46470 207.0
18.46970 203.0
18.47470 173.0
18.47970 199.0
18.48470 195.0
18.48970 212.0
18.49470 203.0
18.49970 217.0
18.50470 199.0
18.50970 185.0
18.51470 193.0
18.51970 192.0
18.52470 170.0
18.52970 182.0
18.53470 199.0
18.53970 174.0
18.54470 187.0
18.54970 170.0
18.55470 203.0
18.55970 156.0
18.56470 171.0
18.56970 190.0
18.57470 166.0
18.57970 171.0
18.58470 179.0
18.58970 177.0
18.59470 196.0
18.59970 130.0
18.60470 171.0
18.60970 157.0
18.61470 160.0
18.61970 166.0
18.62470 141.0
18.62970 157.0
18.63470 162.0
18.63970 145.0
18.64470 175.0
18.64970 143.0
18.65470 155.0
18.65970 138.0
18.66470 166.0
18.66970 128.0
18.67470 148.0
18.67970 142.0
18.68470 130.0
18.68970 149.0
18.69470 130.0
18.69970 168.0
18.70470 150.0
18.70970 159.0
18.71470 132.0
18.71970 139.0
18.72470 151.0
18.72970 138.0
18.73470 125.0
18.73970 133.0
18.74470 137.0
18.74970 131.0
18.75470 123.0
18.75970 131.0
18.76470 114.0
18.76970 128.0
18.77470 141.0
18.77970 127.0
18.78470 111.0
18.78970 133.0
18.79470 106.0
18.79970 128.0
18.80470 119.0
18.80970 99.0
18.81470 124.0
18.81970 109.0
18.82470 108.0
18.82970 126.0
18.83470 113.0
18.83970 106.0
18.84470 124.0
18.84970 104.0
18.85470 105.0
18.85970 99.0
18.86470 105.0
18.86970 96.0
18.87470 109.0
18.87970 101.0
18.88470 115.0
18.88970 110.0
18.89470 95.0
18.89970 107.0
18.90470 104.0
18.90970 93.0
18.91470 119.0
18.91970 101.0
18.92470 109.0
18.92970 101.0
18.93470 101.0
18.93970 101.0
18.94470 103.0
18.94970 88.0
18.95470 85.0
18.95970 107.0
18.96470 99.0
18.96970 114.0
18.97470 115.0
18.97970 102.0
18.98470 122.0
18.98970 112.0
18.99470 105.0
18.99970 103.0
19.00470 87.0
19.00970 99.0
19.01470 99.0
19.01970 91.0
19.02470 78.0
19.02970 90.0
19.03470 72.0
19.03970 85.0
19.04470 94.0
19.04970 91.0
19.05470 96.0
19.05970 83.0
19.06470 96.0
19.06970 85.0
19.07470 89.0
19.07970 90.0
19.08470 94.0
19.08970 90.0
19.09470 78.0
19.09970 75.0
19.10470 87.0
19.10970 92.0
19.11470 96.0
19.11970 82.0
19.12470 93.0
19.12970 89.0
19.13470 89.0
19.13970 96.0
19.14470 69.0
19.14970 93.0
19.15470 75.0
19.15970 86.0
19.16470 88.0
19.16970 75.0
19.17470 84.0
19.17970 81.0
19.18470 87.0
19.18970 88.0
19.19470 74.0
19.19970 82.0
19.20470 85.0
19.20970 69.0
19.21470 66.0
19.21970 87.0
19.22470 72.0
19.22970 74.0
19.23470 60.0
19.23970 74.0
19.24470 90.0
19.24970 74.0
19.25470 83.0
19.25970 84.0
19.26470 82.0
19.26970 59.0
19.27470 83.0
19.27970 76.0
19.28470 73.0
19.28970 76.0
19.29470 73.0
19.29970 60.0
19.30470 61.0
19.30970 86.0
19.31470 74.0
19.31970 81.0
19.32470 80.0
19.32970 57.0
19.33470 67.0
19.33970 68.0
19.34470 59.0
19.34970 59.0
19.35470 79.0
19.35970 72.0
19.36470 63.0
19.36970 62.0
19.37470 78.0
19.37970 67.0
19.38470 57.0
19.38970 82.0
19.39470 73.0
19.39970 75.0
19.40470 76.0
19.40970 66.0
19.41470 65.0
19.41970 55.0
19.42470 61.0
19.42970 52.0
19.43470 68.0
19.43970 64.0
19.44470 75.0
19.44970 64.0
19.45470 66.0
19.45970 84.0
19.46470 70.0
19.46970 74.0
19.47470 68.0
19.47970 73.0
19.48470 71.0
19.48970 66.0
19.49470 89.0
19.49970 62.0
19.50470 66.0
19.50970 58.0
19.51470 75.0
19.51970 63.0
19.52470 72.0
19.52970 75.0
19.53470 71.0
19.53970 66.0
19.54470 62.0
19.54970 55.0
19.55470 57.0
19.55970 62.0
19.56470 61.0
19.56970 57.0
19.57470 72.0
19.57970 69.0
19.58470 67.0
19.58970 65.0
19.59470 77.0
19.59970 58.0
19.60470 65.0
19.60970 72.0
19.61470 60.0
19.61970 69.0
19.62470 65.0
19.62970 54.0
19.63470 63.0
19.63970 51.0
19.64470 64.0
19.64970 61.0
19.65470 64.0
19.65970 65.0
19.66470 72.0
19.66970 73.0
19.67470 67.0
19.67970 55.0
19.68470 56.0
19.68970 49.0
19.69470 56.0
19.69970 70.0
19.70470 65.0
19.70970 59.0
19.71470 50.0
19.71970 46.0
19.72470 51.0
19.72970 65.0
19.73470 69.0
19.73970 54.0
19.74470 67.0
19.74970 64.0
19.75470 50.0
19.75970 71.0
19.76470 55.0
19.76970 59.0
19.77470 51.0
19.77970 67.0
19.78470 60.0
19.78970 69.0
19.79470 56.0
19.79970 64.0
19.80470 63.0
19.80970 76.0
19.81470 62.0
19.81970 49.0
19.82470 53.0
19.82970 63.0
19.83470 46.0
19.83970 60.0
19.84470 59.0
19.84970 57.0
19.85470 55.0
19.85970 63.0
19.86470 74.0
19.86970 60.0
19.87470 82.0
19.87970 57.0
19.88470 66.0
19.88970 59.0
19.89470 57.0
19.89970 75.0
19.90470 78.0
19.90970 63.0
19.91470 74.0
19.91970 60.0
19.92470 67.0
19.92970 54.0
19.93470 55.0
19.93970 52.0
19.94470 52.0
19.94970 58.0
19.95470 55.0
19.95970 59.0
19.96470 53.0
19.96970 64.0