File: data/W6815c2/XRD_Omega/W6815c2_Omega-Scan_2deg_0.002_0_6.xy
18.80830 396.0
18.81030 417.0
18.81230 405.0
18.81430 409.0
18.81630 386.0
18.81830 430.0
18.82030 450.0
18.82230 411.0
18.82430 413.0
18.82630 461.0
18.82830 431.0
18.83030 461.0
18.83230 453.0
18.83430 416.0
18.83630 417.0
18.83830 424.0
18.84030 410.0
18.84230 409.0
18.84430 420.0
18.84630 435.0
18.84830 443.0
18.85030 434.0
18.85230 475.0
18.85430 449.0
18.85630 470.0
18.85830 452.0
18.86030 470.0
18.86230 446.0
18.86430 448.0
18.86630 487.0
18.86830 466.0
18.87030 523.0
18.87230 463.0
18.87430 457.0
18.87630 481.0
18.87830 467.0
18.88030 467.0
18.88230 461.0
18.88430 482.0
18.88630 484.0
18.88830 466.0
18.89030 470.0
18.89230 467.0
18.89430 492.0
18.89630 514.0
18.89830 499.0
18.90030 537.0
18.90230 498.0
18.90430 504.0
18.90630 498.0
18.90830 503.0
18.91030 535.0
18.91230 493.0
18.91430 532.0
18.91630 518.0
18.91830 558.0
18.92030 490.0
18.92230 571.0
18.92430 540.0
18.92630 515.0
18.92830 500.0
18.93030 524.0
18.93230 570.0
18.93430 532.0
18.93630 541.0
18.93830 506.0
18.94030 558.0
18.94230 547.0
18.94430 520.0
18.94630 505.0
18.94830 547.0
18.95030 544.0
18.95230 545.0
18.95430 597.0
18.95630 549.0
18.95830 571.0
18.96030 565.0
18.96230 539.0
18.96430 589.0
18.96630 585.0
18.96830 570.0
18.97030 553.0
18.97230 578.0
18.97430 559.0
18.97630 601.0
18.97830 583.0
18.98030 595.0
18.98230 569.0
18.98430 613.0
18.98630 652.0
18.98830 584.0
18.99030 631.0
18.99230 624.0
18.99430 650.0
18.99630 616.0
18.99830 664.0
19.00030 655.0
19.00230 592.0
19.00430 654.0
19.00630 644.0
19.00830 645.0
19.01030 680.0
19.01230 669.0
19.01430 677.0
19.01630 639.0
19.01830 689.0
19.02030 707.0
19.02230 712.0
19.02430 676.0
19.02630 684.0
19.02830 686.0
19.03030 694.0
19.03230 735.0
19.03430 703.0
19.03630 727.0
19.03830 732.0
19.04030 745.0
19.04230 680.0
19.04430 759.0
19.04630 719.0
19.04830 740.0
19.05030 744.0
19.05230 713.0
19.05430 800.0
19.05630 741.0
19.05830 824.0
19.06030 799.0
19.06230 815.0
19.06430 778.0
19.06630 785.0
19.06830 826.0
19.07030 776.0
19.07230 792.0
19.07430 796.0
19.07630 812.0
19.07830 850.0
19.08030 772.0
19.08230 816.0
19.08430 779.0
19.08630 861.0
19.08830 819.0
19.09030 880.0
19.09230 827.0
19.09430 866.0
19.09630 821.0
19.09830 841.0
19.10030 878.0
19.10230 957.0
19.10430 929.0
19.10630 873.0
19.10830 893.0
19.11030 946.0
19.11230 941.0
19.11430 875.0
19.11630 937.0
19.11830 1000.0
19.12030 937.0
19.12230 1013.0
19.12430 973.0
19.12630 980.0
19.12830 960.0
19.13030 902.0
19.13230 989.0
19.13430 1001.0
19.13630 1001.0
19.13830 986.0
19.14030 1067.0
19.14230 1014.0
19.14430 1020.0
19.14630 1060.0
19.14830 1007.0
19.15030 1096.0
19.15230 1150.0
19.15430 1126.0
19.15630 1107.0
19.15830 1130.0
19.16030 1114.0
19.16230 1081.0
19.16430 1183.0
19.16630 1151.0
19.16830 1207.0
19.17030 1172.0
19.17230 1203.0
19.17430 1231.0
19.17630 1258.0
19.17830 1238.0
19.18030 1204.0
19.18230 1167.0
19.18430 1267.0
19.18630 1273.0
19.18830 1289.0
19.19030 1274.0
19.19230 1283.0
19.19430 1363.0
19.19630 1314.0
19.19830 1344.0
19.20030 1325.0
19.20230 1401.0
19.20430 1459.0
19.20630 1443.0
19.20830 1470.0
19.21030 1418.0
19.21230 1468.0
19.21430 1470.0
19.21630 1428.0
19.21830 1495.0
19.22030 1453.0
19.22230 1433.0
19.22430 1473.0
19.22630 1563.0
19.22830 1574.0
19.23030 1615.0
19.23230 1513.0
19.23430 1535.0
19.23630 1543.0
19.23830 1613.0
19.24030 1679.0
19.24230 1597.0
19.24430 1635.0
19.24630 1632.0
19.24830 1679.0
19.25030 1639.0
19.25230 1683.0
19.25430 1652.0
19.25630 1668.0
19.25830 1710.0
19.26030 1746.0
19.26230 1667.0
19.26430 1738.0
19.26630 1676.0
19.26830 1634.0
19.27030 1690.0
19.27230 1637.0
19.27430 1700.0
19.27630 1830.0
19.27830 1707.0
19.28030 1702.0
19.28230 1761.0
19.28430 1652.0
19.28630 1741.0
19.28830 1721.0
19.29030 1717.0
19.29230 1720.0
19.29430 1670.0
19.29630 1681.0
19.29830 1648.0
19.30030 1719.0
19.30230 1661.0
19.30430 1709.0
19.30630 1682.0
19.30830 1655.0
19.31030 1674.0
19.31230 1668.0
19.31430 1706.0
19.31630 1617.0
19.31830 1621.0
19.32030 1619.0
19.32230 1671.0
19.32430 1658.0
19.32630 1644.0
19.32830 1683.0
19.33030 1616.0
19.33230 1665.0
19.33430 1645.0
19.33630 1580.0
19.33830 1616.0
19.34030 1668.0
19.34230 1595.0
19.34430 1606.0
19.34630 1547.0
19.34830 1545.0
19.35030 1600.0
19.35230 1542.0
19.35430 1652.0
19.35630 1512.0
19.35830 1522.0
19.36030 1569.0
19.36230 1562.0
19.36430 1591.0
19.36630 1499.0
19.36830 1575.0
19.37030 1515.0
19.37230 1554.0
19.37430 1575.0
19.37630 1580.0
19.37830 1512.0
19.38030 1468.0
19.38230 1525.0
19.38430 1584.0
19.38630 1526.0
19.38830 1525.0
19.39030 1562.0
19.39230 1474.0
19.39430 1540.0
19.39630 1500.0
19.39830 1508.0
19.40030 1403.0
19.40230 1442.0
19.40430 1486.0
19.40630 1460.0
19.40830 1453.0
19.41030 1496.0
19.41230 1394.0
19.41430 1492.0
19.41630 1489.0
19.41830 1495.0
19.42030 1420.0
19.42230 1471.0
19.42430 1419.0
19.42630 1389.0
19.42830 1449.0
19.43030 1458.0
19.43230 1417.0
19.43430 1435.0
19.43630 1423.0
19.43830 1375.0
19.44030 1383.0
19.44230 1390.0
19.44430 1374.0
19.44630 1296.0
19.44830 1417.0
19.45030 1394.0
19.45230 1400.0
19.45430 1333.0
19.45630 1309.0
19.45830 1392.0
19.46030 1237.0
19.46230 1285.0
19.46430 1363.0
19.46630 1345.0
19.46830 1323.0
19.47030 1305.0
19.47230 1257.0
19.47430 1302.0
19.47630 1279.0
19.47830 1302.0
19.48030 1267.0
19.48230 1206.0
19.48430 1189.0
19.48630 1277.0
19.48830 1247.0
19.49030 1183.0
19.49230 1257.0
19.49430 1201.0
19.49630 1156.0
19.49830 1197.0
19.50030 1184.0
19.50230 1197.0
19.50430 1238.0
19.50630 1240.0
19.50830 1220.0
19.51030 1158.0
19.51230 1128.0
19.51430 1206.0
19.51630 1246.0
19.51830 1120.0
19.52030 1166.0
19.52230 1120.0
19.52430 1143.0
19.52630 1064.0
19.52830 1109.0
19.53030 1078.0
19.53230 1076.0
19.53430 1106.0
19.53630 1041.0
19.53830 1087.0
19.54030 1081.0
19.54230 1100.0
19.54430 1084.0
19.54630 1081.0
19.54830 1088.0
19.55030 1013.0
19.55230 1042.0
19.55430 1059.0
19.55630 987.0
19.55830 987.0
19.56030 1011.0
19.56230 978.0
19.56430 1053.0
19.56630 1021.0
19.56830 976.0
19.57030 1046.0
19.57230 993.0
19.57430 1037.0
19.57630 1013.0
19.57830 961.0
19.58030 1019.0
19.58230 966.0
19.58430 948.0
19.58630 961.0
19.58830 975.0
19.59030 952.0
19.59230 993.0
19.59430 949.0
19.59630 988.0
19.59830 978.0
19.60030 963.0
19.60230 1013.0
19.60430 954.0
19.60630 868.0
19.60830 945.0
19.61030 926.0
19.61230 886.0
19.61430 951.0
19.61630 956.0
19.61830 957.0
19.62030 848.0
19.62230 868.0
19.62430 926.0
19.62630 885.0
19.62830 933.0
19.63030 892.0
19.63230 912.0
19.63430 856.0
19.63630 854.0
19.63830 867.0
19.64030 880.0
19.64230 885.0
19.64430 847.0
19.64630 797.0
19.64830 838.0
19.65030 827.0
19.65230 845.0
19.65430 828.0
19.65630 823.0
19.65830 818.0
19.66030 791.0
19.66230 875.0
19.66430 820.0
19.66630 758.0
19.66830 740.0
19.67030 805.0
19.67230 766.0
19.67430 772.0
19.67630 755.0
19.67830 771.0
19.68030 749.0
19.68230 839.0
19.68430 776.0
19.68630 764.0
19.68830 797.0
19.69030 739.0
19.69230 776.0
19.69430 797.0
19.69630 763.0
19.69830 722.0
19.70030 751.0
19.70230 780.0
19.70430 742.0
19.70630 769.0
19.70830 737.0
19.71030 717.0
19.71230 748.0
19.71430 766.0
19.71630 730.0
19.71830 764.0
19.72030 683.0
19.72230 748.0
19.72430 733.0
19.72630 718.0
19.72830 718.0
19.73030 691.0
19.73230 766.0
19.73430 684.0
19.73630 681.0
19.73830 678.0
19.74030 710.0
19.74230 681.0
19.74430 708.0
19.74630 673.0
19.74830 662.0
19.75030 716.0
19.75230 708.0
19.75430 691.0
19.75630 668.0
19.75830 717.0
19.76030 679.0
19.76230 710.0
19.76430 674.0
19.76630 723.0
19.76830 671.0
19.77030 695.0
19.77230 692.0
19.77430 672.0
19.77630 750.0
19.77830 759.0
19.78030 760.0
19.78230 799.0
19.78430 799.0
19.78630 825.0
19.78830 825.0
19.79030 902.0
19.79230 903.0
19.79430 881.0
19.79630 846.0
19.79830 905.0
19.80030 892.0
19.80230 927.0
19.80430 911.0
19.80630 855.0
19.80830 833.0
19.81030 822.0
19.81230 783.0
19.81430 765.0
19.81630 769.0
19.81830 699.0
19.82030 744.0
19.82230 636.0
19.82430 665.0
19.82630 700.0
19.82830 706.0
19.83030 642.0
19.83230 694.0
19.83430 654.0
19.83630 622.0
19.83830 678.0
19.84030 616.0
19.84230 665.0
19.84430 630.0
19.84630 666.0
19.84830 684.0
19.85030 631.0
19.85230 621.0
19.85430 611.0
19.85630 639.0
19.85830 639.0
19.86030 628.0
19.86230 578.0
19.86430 615.0
19.86630 615.0
19.86830 621.0
19.87030 591.0
19.87230 608.0
19.87430 636.0
19.87630 613.0
19.87830 588.0
19.88030 576.0
19.88230 578.0
19.88430 581.0
19.88630 599.0
19.88830 597.0
19.89030 553.0
19.89230 570.0
19.89430 563.0
19.89630 584.0
19.89830 530.0
19.90030 556.0
19.90230 506.0
19.90430 537.0
19.90630 506.0
19.90830 539.0
19.91030 528.0
19.91230 523.0
19.91430 549.0
19.91630 547.0
19.91830 539.0
19.92030 515.0
19.92230 532.0
19.92430 585.0
19.92630 560.0
19.92830 550.0
19.93030 587.0
19.93230 502.0
19.93430 530.0
19.93630 511.0
19.93830 515.0
19.94030 543.0
19.94230 544.0
19.94430 523.0
19.94630 550.0
19.94830 512.0
19.95030 487.0
19.95230 517.0
19.95430 520.0
19.95630 540.0
19.95830 499.0
19.96030 550.0
19.96230 521.0
19.96430 445.0
19.96630 516.0
19.96830 528.0
19.97030 498.0
19.97230 539.0
19.97430 469.0
19.97630 502.0
19.97830 489.0
19.98030 467.0
19.98230 476.0
19.98430 506.0
19.98630 463.0
19.98830 446.0
19.99030 478.0
19.99230 438.0
19.99430 412.0
19.99630 413.0
19.99830 432.0
20.00030 407.0
20.00230 452.0
20.00430 417.0
20.00630 430.0
20.00830 442.0
20.01030 386.0
20.01230 468.0
20.01430 460.0
20.01630 431.0
20.01830 403.0
20.02030 454.0
20.02230 393.0
20.02430 425.0
20.02630 409.0
20.02830 439.0
20.03030 412.0
20.03230 418.0
20.03430 397.0
20.03630 431.0
20.03830 355.0
20.04030 415.0
20.04230 389.0
20.04430 383.0
20.04630 410.0
20.04830 395.0
20.05030 351.0
20.05230 384.0
20.05430 394.0
20.05630 364.0
20.05830 382.0
20.06030 375.0
20.06230 410.0
20.06430 368.0
20.06630 380.0
20.06830 392.0
20.07030 384.0
20.07230 371.0
20.07430 339.0
20.07630 389.0
20.07830 356.0
20.08030 372.0
20.08230 322.0
20.08430 330.0
20.08630 376.0
20.08830 390.0
20.09030 370.0
20.09230 404.0
20.09430 339.0
20.09630 388.0
20.09830 358.0
20.10030 388.0
20.10230 384.0
20.10430 348.0
20.10630 345.0
20.10830 338.0
20.11030 376.0
20.11230 375.0
20.11430 342.0
20.11630 363.0
20.11830 342.0
20.12030 371.0
20.12230 348.0
20.12430 344.0
20.12630 384.0
20.12830 385.0
20.13030 360.0
20.13230 356.0
20.13430 398.0
20.13630 393.0
20.13830 346.0
20.14030 350.0
20.14230 375.0
20.14430 310.0
20.14630 376.0
20.14830 340.0
20.15030 348.0
20.15230 357.0
20.15430 344.0
20.15630 364.0
20.15830 365.0
20.16030 365.0
20.16230 359.0
20.16430 303.0
20.16630 340.0
20.16830 353.0
20.17030 345.0
20.17230 324.0
20.17430 360.0
20.17630 344.0
20.17830 369.0
20.18030 335.0
20.18230 337.0
20.18430 344.0
20.18630 355.0
20.18830 359.0
20.19030 311.0
20.19230 356.0
20.19430 336.0
20.19630 312.0
20.19830 308.0
20.20030 326.0
20.20230 333.0
20.20430 316.0
20.20630 343.0
20.20830 338.0
20.21030 331.0
20.21230 323.0
20.21430 356.0
20.21630 324.0
20.21830 318.0
20.22030 340.0
20.22230 361.0
20.22430 350.0
20.22630 345.0
20.22830 342.0
20.23030 327.0
20.23230 337.0
20.23430 311.0
20.23630 323.0
20.23830 337.0
20.24030 330.0
20.24230 329.0
20.24430 299.0
20.24630 336.0
20.24830 325.0
20.25030 328.0
20.25230 310.0
20.25430 349.0
20.25630 296.0
20.25830 328.0
20.26030 345.0
20.26230 335.0
20.26430 311.0
20.26630 338.0
20.26830 325.0
20.27030 368.0
20.27230 314.0
20.27430 327.0
20.27630 370.0
20.27830 308.0
20.28030 303.0
20.28230 306.0
20.28430 331.0
20.28630 299.0
20.28830 325.0
20.29030 358.0
20.29230 282.0
20.29430 304.0
20.29630 305.0
20.29830 310.0
20.30030 280.0
20.30230 325.0
20.30430 324.0
20.30630 307.0
20.30830 344.0
20.31030 322.0
20.31230 326.0
20.31430 328.0
20.31630 322.0
20.31830 298.0
20.32030 335.0
20.32230 298.0
20.32430 330.0
20.32630 312.0
20.32830 316.0
20.33030 338.0
20.33230 329.0
20.33430 331.0
20.33630 322.0
20.33830 342.0
20.34030 326.0
20.34230 318.0
20.34430 332.0
20.34630 321.0
20.34830 303.0
20.35030 297.0
20.35230 338.0
20.35430 300.0
20.35630 324.0
20.35830 349.0
20.36030 313.0
20.36230 327.0
20.36430 339.0
20.36630 322.0
20.36830 323.0
20.37030 274.0
20.37230 322.0
20.37430 357.0
20.37630 338.0
20.37830 335.0
20.38030 332.0
20.38230 332.0
20.38430 321.0
20.38630 287.0
20.38830 301.0
20.39030 309.0
20.39230 296.0
20.39430 271.0
20.39630 323.0
20.39830 311.0
20.40030 293.0
20.40230 297.0
20.40430 272.0
20.40630 278.0
20.40830 286.0
20.41030 261.0
20.41230 288.0
20.41430 275.0
20.41630 261.0
20.41830 249.0
20.42030 239.0
20.42230 245.0
20.42430 252.0
20.42630 277.0
20.42830 236.0
20.43030 254.0
20.43230 249.0
20.43430 248.0
20.43630 281.0
20.43830 238.0
20.44030 262.0
20.44230 248.0
20.44430 245.0
20.44630 212.0
20.44830 269.0
20.45030 230.0
20.45230 278.0
20.45430 254.0
20.45630 259.0
20.45830 276.0
20.46030 229.0
20.46230 238.0
20.46430 232.0
20.46630 238.0
20.46830 234.0
20.47030 248.0
20.47230 252.0
20.47430 255.0
20.47630 263.0
20.47830 215.0
20.48030 223.0
20.48230 246.0
20.48430 220.0
20.48630 220.0
20.48830 219.0
20.49030 258.0
20.49230 243.0
20.49430 246.0
20.49630 219.0
20.49830 227.0
20.50030 248.0
20.50230 225.0
20.50430 221.0
20.50630 259.0
20.50830 248.0
20.51030 248.0
20.51230 238.0
20.51430 225.0
20.51630 229.0
20.51830 208.0
20.52030 235.0
20.52230 230.0
20.52430 238.0
20.52630 210.0
20.52830 229.0
20.53030 247.0
20.53230 209.0
20.53430 218.0
20.53630 207.0
20.53830 229.0
20.54030 223.0
20.54230 215.0
20.54430 227.0
20.54630 223.0
20.54830 217.0
20.55030 249.0
20.55230 220.0
20.55430 225.0
20.55630 224.0
20.55830 215.0
20.56030 211.0
20.56230 208.0
20.56430 224.0
20.56630 231.0
20.56830 211.0
20.57030 224.0
20.57230 197.0
20.57430 248.0
20.57630 212.0
20.57830 190.0
20.58030 227.0
20.58230 256.0
20.58430 226.0
20.58630 226.0
20.58830 216.0
20.59030 213.0
20.59230 232.0
20.59430 235.0
20.59630 200.0
20.59830 237.0
20.60030 217.0
20.60230 212.0
20.60430 209.0
20.60630 235.0
20.60830 256.0
20.61030 209.0
20.61230 231.0
20.61430 253.0
20.61630 221.0
20.61830 224.0
20.62030 213.0
20.62230 208.0
20.62430 198.0
20.62630 227.0
20.62830 229.0
20.63030 194.0
20.63230 215.0
20.63430 230.0
20.63630 234.0
20.63830 235.0
20.64030 187.0
20.64230 208.0
20.64430 219.0
20.64630 211.0
20.64830 178.0
20.65030 185.0
20.65230 219.0
20.65430 225.0
20.65630 220.0
20.65830 218.0
20.66030 232.0
20.66230 228.0
20.66430 210.0
20.66630 214.0
20.66830 218.0
20.67030 188.0
20.67230 219.0
20.67430 210.0
20.67630 207.0
20.67830 234.0
20.68030 224.0
20.68230 226.0
20.68430 217.0
20.68630 198.0
20.68830 210.0
20.69030 236.0
20.69230 217.0
20.69430 197.0
20.69630 222.0
20.69830 227.0
20.70030 253.0
20.70230 225.0
20.70430 208.0
20.70630 215.0
20.70830 244.0
20.71030 218.0
20.71230 221.0
20.71430 190.0
20.71630 225.0
20.71830 215.0
20.72030 215.0
20.72230 210.0
20.72430 208.0
20.72630 227.0
20.72830 218.0
20.73030 190.0
20.73230 212.0
20.73430 235.0
20.73630 224.0
20.73830 212.0
20.74030 221.0
20.74230 203.0
20.74430 194.0
20.74630 209.0
20.74830 189.0
20.75030 196.0
20.75230 215.0
20.75430 184.0
20.75630 178.0
20.75830 203.0
20.76030 210.0
20.76230 200.0
20.76430 202.0
20.76630 241.0
20.76830 234.0
20.77030 221.0
20.77230 209.0
20.77430 190.0
20.77630 207.0
20.77830 209.0
20.78030 209.0
20.78230 202.0
20.78430 186.0
20.78630 205.0
20.78830 205.0
20.79030 197.0
20.79230 192.0