File: data/W6815c2/XRD_Omega/W6815c2_Cr2O3_scan_omega_2deg_step_0.002deg0_2_new.xy
18.31560 230.0
18.31760 243.0
18.31960 266.0
18.32160 240.0
18.32360 274.0
18.32560 270.0
18.32760 231.0
18.32960 242.0
18.33160 262.0
18.33360 259.0
18.33560 251.0
18.33760 266.0
18.33960 233.0
18.34160 250.0
18.34360 225.0
18.34560 252.0
18.34760 247.0
18.34960 261.0
18.35160 251.0
18.35360 249.0
18.35560 306.0
18.35760 285.0
18.35960 259.0
18.36160 237.0
18.36360 272.0
18.36560 255.0
18.36760 270.0
18.36960 248.0
18.37160 259.0
18.37360 254.0
18.37560 277.0
18.37760 282.0
18.37960 239.0
18.38160 263.0
18.38360 265.0
18.38560 259.0
18.38760 263.0
18.38960 287.0
18.39160 278.0
18.39360 276.0
18.39560 255.0
18.39760 274.0
18.39960 258.0
18.40160 290.0
18.40360 269.0
18.40560 280.0
18.40760 300.0
18.40960 279.0
18.41160 257.0
18.41360 275.0
18.41560 282.0
18.41760 252.0
18.41960 252.0
18.42160 283.0
18.42360 255.0
18.42560 259.0
18.42760 237.0
18.42960 259.0
18.43160 249.0
18.43360 288.0
18.43560 299.0
18.43760 293.0
18.43960 233.0
18.44160 270.0
18.44360 258.0
18.44560 257.0
18.44760 279.0
18.44960 270.0
18.45160 255.0
18.45360 296.0
18.45560 275.0
18.45760 278.0
18.45960 293.0
18.46160 275.0
18.46360 282.0
18.46560 262.0
18.46760 278.0
18.46960 302.0
18.47160 271.0
18.47360 274.0
18.47560 287.0
18.47760 271.0
18.47960 297.0
18.48160 270.0
18.48360 289.0
18.48560 279.0
18.48760 263.0
18.48960 264.0
18.49160 257.0
18.49360 283.0
18.49560 308.0
18.49760 277.0
18.49960 287.0
18.50160 283.0
18.50360 294.0
18.50560 316.0
18.50760 301.0
18.50960 320.0
18.51160 299.0
18.51360 309.0
18.51560 291.0
18.51760 266.0
18.51960 310.0
18.52160 310.0
18.52360 323.0
18.52560 271.0
18.52760 290.0
18.52960 291.0
18.53160 298.0
18.53360 302.0
18.53560 269.0
18.53760 295.0
18.53960 304.0
18.54160 324.0
18.54360 282.0
18.54560 278.0
18.54760 312.0
18.54960 322.0
18.55160 305.0
18.55360 275.0
18.55560 294.0
18.55760 313.0
18.55960 309.0
18.56160 276.0
18.56360 295.0
18.56560 290.0
18.56760 317.0
18.56960 290.0
18.57160 298.0
18.57360 327.0
18.57560 319.0
18.57760 290.0
18.57960 313.0
18.58160 305.0
18.58360 348.0
18.58560 304.0
18.58760 353.0
18.58960 321.0
18.59160 319.0
18.59360 351.0
18.59560 325.0
18.59760 346.0
18.59960 348.0
18.60160 309.0
18.60360 343.0
18.60560 350.0
18.60760 339.0
18.60960 335.0
18.61160 327.0
18.61360 349.0
18.61560 349.0
18.61760 306.0
18.61960 320.0
18.62160 331.0
18.62360 331.0
18.62560 327.0
18.62760 313.0
18.62960 305.0
18.63160 318.0
18.63360 360.0
18.63560 295.0
18.63760 336.0
18.63960 326.0
18.64160 310.0
18.64360 351.0
18.64560 382.0
18.64760 319.0
18.64960 326.0
18.65160 369.0
18.65360 373.0
18.65560 337.0
18.65760 342.0
18.65960 325.0
18.66160 330.0
18.66360 368.0
18.66560 374.0
18.66760 370.0
18.66960 349.0
18.67160 367.0
18.67360 366.0
18.67560 383.0
18.67760 337.0
18.67960 330.0
18.68160 370.0
18.68360 341.0
18.68560 365.0
18.68760 367.0
18.68960 360.0
18.69160 357.0
18.69360 356.0
18.69560 379.0
18.69760 368.0
18.69960 384.0
18.70160 386.0
18.70360 370.0
18.70560 387.0
18.70760 397.0
18.70960 362.0
18.71160 366.0
18.71360 386.0
18.71560 361.0
18.71760 408.0
18.71960 386.0
18.72160 445.0
18.72360 352.0
18.72560 424.0
18.72760 400.0
18.72960 375.0
18.73160 394.0
18.73360 395.0
18.73560 400.0
18.73760 423.0
18.73960 431.0
18.74160 441.0
18.74360 405.0
18.74560 443.0
18.74760 424.0
18.74960 414.0
18.75160 473.0
18.75360 429.0
18.75560 425.0
18.75760 432.0
18.75960 401.0
18.76160 408.0
18.76360 392.0
18.76560 426.0
18.76760 452.0
18.76960 447.0
18.77160 466.0
18.77360 412.0
18.77560 447.0
18.77760 407.0
18.77960 448.0
18.78160 385.0
18.78360 469.0
18.78560 402.0
18.78760 442.0
18.78960 453.0
18.79160 479.0
18.79360 461.0
18.79560 438.0
18.79760 474.0
18.79960 464.0
18.80160 445.0
18.80360 442.0
18.80560 474.0
18.80760 450.0
18.80960 518.0
18.81160 454.0
18.81360 441.0
18.81560 446.0
18.81760 480.0
18.81960 481.0
18.82160 465.0
18.82360 481.0
18.82560 450.0
18.82760 536.0
18.82960 493.0
18.83160 484.0
18.83360 489.0
18.83560 513.0
18.83760 539.0
18.83960 468.0
18.84160 488.0
18.84360 531.0
18.84560 486.0
18.84760 499.0
18.84960 480.0
18.85160 512.0
18.85360 482.0
18.85560 522.0
18.85760 519.0
18.85960 502.0
18.86160 529.0
18.86360 550.0
18.86560 554.0
18.86760 486.0
18.86960 520.0
18.87160 512.0
18.87360 517.0
18.87560 569.0
18.87760 579.0
18.87960 530.0
18.88160 508.0
18.88360 526.0
18.88560 528.0
18.88760 511.0
18.88960 526.0
18.89160 546.0
18.89360 561.0
18.89560 571.0
18.89760 535.0
18.89960 584.0
18.90160 550.0
18.90360 560.0
18.90560 575.0
18.90760 583.0
18.90960 529.0
18.91160 553.0
18.91360 548.0
18.91560 588.0
18.91760 598.0
18.91960 585.0
18.92160 565.0
18.92360 608.0
18.92560 611.0
18.92760 589.0
18.92960 586.0
18.93160 553.0
18.93360 615.0
18.93560 642.0
18.93760 607.0
18.93960 657.0
18.94160 590.0
18.94360 607.0
18.94560 581.0
18.94760 613.0
18.94960 573.0
18.95160 642.0
18.95360 632.0
18.95560 618.0
18.95760 629.0
18.95960 661.0
18.96160 630.0
18.96360 646.0
18.96560 689.0
18.96760 647.0
18.96960 674.0
18.97160 687.0
18.97360 594.0
18.97560 676.0
18.97760 667.0
18.97960 676.0
18.98160 699.0
18.98360 647.0
18.98560 648.0
18.98760 710.0
18.98960 671.0
18.99160 669.0
18.99360 671.0
18.99560 703.0
18.99760 692.0
18.99960 713.0
19.00160 672.0
19.00360 730.0
19.00560 675.0
19.00760 729.0
19.00960 708.0
19.01160 739.0
19.01360 731.0
19.01560 743.0
19.01760 745.0
19.01960 760.0
19.02160 770.0
19.02360 756.0
19.02560 752.0
19.02760 797.0
19.02960 780.0
19.03160 780.0
19.03360 750.0
19.03560 779.0
19.03760 809.0
19.03960 824.0
19.04160 768.0
19.04360 817.0
19.04560 769.0
19.04760 781.0
19.04960 802.0
19.05160 803.0
19.05360 842.0
19.05560 788.0
19.05760 811.0
19.05960 817.0
19.06160 834.0
19.06360 859.0
19.06560 853.0
19.06760 895.0
19.06960 903.0
19.07160 873.0
19.07360 855.0
19.07560 814.0
19.07760 889.0
19.07960 895.0
19.08160 894.0
19.08360 912.0
19.08560 875.0
19.08760 896.0
19.08960 899.0
19.09160 959.0
19.09360 897.0
19.09560 920.0
19.09760 936.0
19.09960 900.0
19.10160 966.0
19.10360 1004.0
19.10560 947.0
19.10760 975.0
19.10960 912.0
19.11160 972.0
19.11360 975.0
19.11560 964.0
19.11760 1004.0
19.11960 1005.0
19.12160 1002.0
19.12360 957.0
19.12560 994.0
19.12760 992.0
19.12960 995.0
19.13160 1045.0
19.13360 1021.0
19.13560 1076.0
19.13760 1077.0
19.13960 1092.0
19.14160 1082.0
19.14360 1080.0
19.14560 1079.0
19.14760 1067.0
19.14960 1067.0
19.15160 1154.0
19.15360 1106.0
19.15560 1162.0
19.15760 1125.0
19.15960 1191.0
19.16160 1078.0
19.16360 1218.0
19.16560 1224.0
19.16760 1170.0
19.16960 1203.0
19.17160 1194.0
19.17360 1220.0
19.17560 1321.0
19.17760 1183.0
19.17960 1232.0
19.18160 1218.0
19.18360 1262.0
19.18560 1292.0
19.18760 1289.0
19.18960 1289.0
19.19160 1385.0
19.19360 1300.0
19.19560 1392.0
19.19760 1397.0
19.19960 1373.0
19.20160 1356.0
19.20360 1373.0
19.20560 1384.0
19.20760 1456.0
19.20960 1454.0
19.21160 1387.0
19.21360 1325.0
19.21560 1423.0
19.21760 1374.0
19.21960 1554.0
19.22160 1557.0
19.22360 1487.0
19.22560 1489.0
19.22760 1471.0
19.22960 1590.0
19.23160 1624.0
19.23360 1539.0
19.23560 1590.0
19.23760 1626.0
19.23960 1585.0
19.24160 1596.0
19.24360 1685.0
19.24560 1650.0
19.24760 1625.0
19.24960 1681.0
19.25160 1583.0
19.25360 1722.0
19.25560 1751.0
19.25760 1665.0
19.25960 1727.0
19.26160 1624.0
19.26360 1773.0
19.26560 1666.0
19.26760 1689.0
19.26960 1700.0
19.27160 1732.0
19.27360 1668.0
19.27560 1720.0
19.27760 1744.0
19.27960 1784.0
19.28160 1752.0
19.28360 1735.0
19.28560 1759.0
19.28760 1793.0
19.28960 1662.0
19.29160 1705.0
19.29360 1645.0
19.29560 1685.0
19.29760 1686.0
19.29960 1711.0
19.30160 1717.0
19.30360 1713.0
19.30560 1698.0
19.30760 1739.0
19.30960 1680.0
19.31160 1631.0
19.31360 1718.0
19.31560 1701.0
19.31760 1684.0
19.31960 1683.0
19.32160 1714.0
19.32360 1647.0
19.32560 1665.0
19.32760 1697.0
19.32960 1699.0
19.33160 1627.0
19.33360 1640.0
19.33560 1642.0
19.33760 1589.0
19.33960 1679.0
19.34160 1567.0
19.34360 1722.0
19.34560 1658.0
19.34760 1627.0
19.34960 1622.0
19.35160 1610.0
19.35360 1595.0
19.35560 1643.0
19.35760 1596.0
19.35960 1574.0
19.36160 1571.0
19.36360 1557.0
19.36560 1678.0
19.36760 1553.0
19.36960 1583.0
19.37160 1630.0
19.37360 1614.0
19.37560 1493.0
19.37760 1611.0
19.37960 1533.0
19.38160 1466.0
19.38360 1543.0
19.38560 1566.0
19.38760 1574.0
19.38960 1481.0
19.39160 1552.0
19.39360 1559.0
19.39560 1520.0
19.39760 1524.0
19.39960 1552.0
19.40160 1515.0
19.40360 1515.0
19.40560 1535.0
19.40760 1519.0
19.40960 1495.0
19.41160 1471.0
19.41360 1411.0
19.41560 1447.0
19.41760 1404.0
19.41960 1440.0
19.42160 1383.0
19.42360 1435.0
19.42560 1423.0
19.42760 1492.0
19.42960 1449.0
19.43160 1431.0
19.43360 1436.0
19.43560 1412.0
19.43760 1460.0
19.43960 1355.0
19.44160 1414.0
19.44360 1348.0
19.44560 1419.0
19.44760 1339.0
19.44960 1393.0
19.45160 1273.0
19.45360 1339.0
19.45560 1312.0
19.45760 1259.0
19.45960 1392.0
19.46160 1320.0
19.46360 1281.0
19.46560 1347.0
19.46760 1288.0
19.46960 1338.0
19.47160 1270.0
19.47360 1333.0
19.47560 1297.0
19.47760 1309.0
19.47960 1264.0
19.48160 1269.0
19.48360 1260.0
19.48560 1273.0
19.48760 1192.0
19.48960 1295.0
19.49160 1258.0
19.49360 1228.0
19.49560 1194.0
19.49760 1220.0
19.49960 1184.0
19.50160 1251.0
19.50360 1240.0
19.50560 1187.0
19.50760 1172.0
19.50960 1162.0
19.51160 1277.0
19.51360 1147.0
19.51560 1159.0
19.51760 1170.0
19.51960 1123.0
19.52160 1162.0
19.52360 1197.0
19.52560 1193.0
19.52760 1183.0
19.52960 1169.0
19.53160 1131.0
19.53360 1149.0
19.53560 1117.0
19.53760 1120.0
19.53960 1099.0
19.54160 1093.0
19.54360 1077.0
19.54560 1053.0
19.54760 996.0
19.54960 1076.0
19.55160 1050.0
19.55360 1077.0
19.55560 1028.0
19.55760 1022.0
19.55960 1020.0
19.56160 1089.0
19.56360 1038.0
19.56560 996.0
19.56760 1093.0
19.56960 1039.0
19.57160 1019.0
19.57360 1087.0
19.57560 1051.0
19.57760 1040.0
19.57960 1074.0
19.58160 1068.0
19.58360 1073.0
19.58560 1016.0
19.58760 1031.0
19.58960 985.0
19.59160 971.0
19.59360 980.0
19.59560 976.0
19.59760 980.0
19.59960 970.0
19.60160 956.0
19.60360 889.0
19.60560 945.0
19.60760 924.0
19.60960 934.0
19.61160 975.0
19.61360 894.0
19.61560 906.0
19.61760 936.0
19.61960 947.0
19.62160 890.0
19.62360 834.0
19.62560 886.0
19.62760 851.0
19.62960 954.0
19.63160 937.0
19.63360 887.0
19.63560 854.0
19.63760 790.0
19.63960 857.0
19.64160 943.0
19.64360 891.0
19.64560 842.0
19.64760 833.0
19.64960 830.0
19.65160 846.0
19.65360 817.0
19.65560 841.0
19.65760 855.0
19.65960 844.0
19.66160 782.0
19.66360 796.0
19.66560 864.0
19.66760 794.0
19.66960 770.0
19.67160 780.0
19.67360 813.0
19.67560 821.0
19.67760 796.0
19.67960 822.0
19.68160 772.0
19.68360 840.0
19.68560 802.0
19.68760 730.0
19.68960 766.0
19.69160 793.0
19.69360 759.0
19.69560 826.0
19.69760 771.0
19.69960 808.0
19.70160 758.0
19.70360 738.0
19.70560 800.0
19.70760 732.0
19.70960 771.0
19.71160 681.0
19.71360 708.0
19.71560 775.0
19.71760 753.0
19.71960 741.0
19.72160 687.0
19.72360 766.0
19.72560 726.0
19.72760 722.0
19.72960 770.0
19.73160 717.0
19.73360 778.0
19.73560 755.0
19.73760 725.0
19.73960 721.0
19.74160 697.0
19.74360 739.0
19.74560 702.0
19.74760 698.0
19.74960 696.0
19.75160 703.0
19.75360 703.0
19.75560 710.0
19.75760 676.0
19.75960 685.0
19.76160 724.0
19.76360 692.0
19.76560 680.0
19.76760 754.0
19.76960 741.0
19.77160 724.0
19.77360 730.0
19.77560 663.0
19.77760 730.0
19.77960 741.0
19.78160 782.0
19.78360 851.0
19.78560 783.0
19.78760 834.0
19.78960 850.0
19.79160 891.0
19.79360 882.0
19.79560 954.0
19.79760 917.0
19.79960 926.0
19.80160 935.0
19.80360 852.0
19.80560 878.0
19.80760 814.0
19.80960 904.0
19.81160 852.0
19.81360 859.0
19.81560 822.0
19.81760 761.0
19.81960 800.0
19.82160 770.0
19.82360 727.0
19.82560 705.0
19.82760 690.0
19.82960 689.0
19.83160 647.0
19.83360 709.0
19.83560 686.0
19.83760 669.0
19.83960 667.0
19.84160 652.0
19.84360 668.0
19.84560 669.0
19.84760 650.0
19.84960 660.0
19.85160 679.0
19.85360 648.0
19.85560 638.0
19.85760 633.0
19.85960 653.0
19.86160 675.0
19.86360 634.0
19.86560 617.0
19.86760 605.0
19.86960 637.0
19.87160 634.0
19.87360 596.0
19.87560 622.0
19.87760 615.0
19.87960 585.0
19.88160 636.0
19.88360 548.0
19.88560 583.0
19.88760 579.0
19.88960 548.0
19.89160 561.0
19.89360 565.0
19.89560 580.0
19.89760 518.0
19.89960 574.0
19.90160 546.0
19.90360 524.0
19.90560 554.0
19.90760 549.0
19.90960 534.0
19.91160 518.0
19.91360 574.0
19.91560 523.0
19.91760 520.0
19.91960 504.0
19.92160 525.0
19.92360 520.0
19.92560 585.0
19.92760 605.0
19.92960 576.0
19.93160 519.0
19.93360 522.0
19.93560 536.0
19.93760 566.0
19.93960 534.0
19.94160 534.0
19.94360 530.0
19.94560 517.0
19.94760 486.0
19.94960 561.0
19.95160 560.0
19.95360 539.0
19.95560 520.0
19.95760 521.0
19.95960 533.0
19.96160 533.0
19.96360 492.0
19.96560 475.0
19.96760 482.0
19.96960 506.0
19.97160 475.0
19.97360 462.0
19.97560 439.0
19.97760 454.0
19.97960 465.0
19.98160 438.0
19.98360 454.0
19.98560 452.0
19.98760 392.0
19.98960 437.0
19.99160 449.0
19.99360 432.0
19.99560 409.0
19.99760 437.0
19.99960 405.0
20.00160 462.0
20.00360 410.0
20.00560 382.0
20.00760 424.0
20.00960 402.0
20.01160 453.0
20.01360 435.0
20.01560 426.0
20.01760 418.0
20.01960 403.0
20.02160 380.0
20.02360 397.0
20.02560 431.0
20.02760 381.0
20.02960 409.0
20.03160 414.0
20.03360 362.0
20.03560 401.0
20.03760 363.0
20.03960 395.0
20.04160 347.0
20.04360 390.0
20.04560 379.0
20.04760 392.0
20.04960 385.0
20.05160 366.0
20.05360 319.0
20.05560 376.0
20.05760 387.0
20.05960 383.0
20.06160 395.0
20.06360 370.0
20.06560 350.0
20.06760 378.0
20.06960 378.0
20.07160 340.0
20.07360 348.0
20.07560 373.0
20.07760 353.0
20.07960 374.0
20.08160 355.0
20.08360 372.0
20.08560 345.0
20.08760 363.0
20.08960 357.0
20.09160 342.0
20.09360 351.0
20.09560 340.0
20.09760 369.0
20.09960 335.0
20.10160 377.0
20.10360 340.0
20.10560 384.0
20.10760 327.0
20.10960 367.0
20.11160 339.0
20.11360 373.0
20.11560 337.0
20.11760 350.0
20.11960 342.0
20.12160 346.0
20.12360 313.0
20.12560 376.0
20.12760 326.0
20.12960 350.0
20.13160 338.0
20.13360 329.0
20.13560 344.0
20.13760 353.0
20.13960 332.0
20.14160 302.0
20.14360 342.0
20.14560 319.0
20.14760 351.0
20.14960 333.0
20.15160 322.0
20.15360 332.0
20.15560 324.0
20.15760 343.0
20.15960 310.0
20.16160 305.0
20.16360 328.0
20.16560 306.0
20.16760 318.0
20.16960 295.0
20.17160 296.0
20.17360 319.0
20.17560 302.0
20.17760 309.0
20.17960 297.0
20.18160 273.0
20.18360 322.0
20.18560 338.0
20.18760 337.0
20.18960 344.0
20.19160 287.0
20.19360 299.0
20.19560 298.0
20.19760 305.0
20.19960 293.0
20.20160 323.0
20.20360 319.0
20.20560 297.0
20.20760 315.0
20.20960 306.0
20.21160 302.0
20.21360 287.0
20.21560 285.0
20.21760 308.0
20.21960 284.0
20.22160 282.0
20.22360 278.0
20.22560 308.0
20.22760 294.0
20.22960 247.0
20.23160 310.0
20.23360 304.0
20.23560 318.0
20.23760 260.0
20.23960 347.0
20.24160 262.0
20.24360 309.0
20.24560 309.0
20.24760 328.0
20.24960 284.0
20.25160 286.0
20.25360 281.0
20.25560 266.0
20.25760 295.0
20.25960 304.0
20.26160 278.0
20.26360 291.0
20.26560 301.0
20.26760 324.0
20.26960 260.0
20.27160 265.0
20.27360 266.0
20.27560 293.0
20.27760 312.0
20.27960 310.0
20.28160 271.0
20.28360 310.0
20.28560 283.0
20.28760 275.0
20.28960 276.0
20.29160 276.0
20.29360 275.0
20.29560 286.0
20.29760 265.0
20.29960 280.0