File: data/W6902r/XRD_2ThetaOmega/scan_2th-om_r2_Cr2O3_45-55deg_PIXscan_5min_C3.xy
45.0025 117.0
45.0123 99.0
45.0222 128.0
45.032 92.0
45.0419 109.0
45.0517 113.0
45.0615 109.0
45.0714 135.0
45.0812 117.0
45.0911 113.0
45.1009 113.0
45.1108 106.0
45.1206 102.0
45.1305 80.0
45.1403 115.0
45.1502 90.0
45.16 129.0
45.1699 108.0
45.1797 86.0
45.1896 121.0
45.1994 102.0
45.2093 91.0
45.2191 110.0
45.229 99.0
45.2388 85.0
45.2487 107.0
45.2585 121.0
45.2684 94.0
45.2782 93.0
45.288 90.0
45.2979 113.0
45.3077 87.0
45.3176 100.0
45.3274 84.0
45.3373 100.0
45.3471 97.0
45.357 103.0
45.3668 109.0
45.3767 101.0
45.3865 100.0
45.3964 99.0
45.4062 110.0
45.4161 84.0
45.4259 96.0
45.4358 107.0
45.4456 110.0
45.4555 104.0
45.4653 117.0
45.4752 84.0
45.485 109.0
45.4948 105.0
45.5047 101.0
45.5145 99.0
45.5244 101.0
45.5342 105.0
45.5441 94.0
45.5539 112.0
45.5638 98.0
45.5736 104.0
45.5835 101.0
45.5933 103.0
45.6032 110.0
45.613 103.0
45.6229 113.0
45.6327 113.0
45.6426 92.0
45.6524 107.0
45.6623 88.0
45.6721 117.0
45.682 108.0
45.6918 113.0
45.7016 116.0
45.7115 120.0
45.7213 114.0
45.7312 102.0
45.741 89.0
45.7509 115.0
45.7607 93.0
45.7706 131.0
45.7804 107.0
45.7903 85.0
45.8001 88.0
45.81 102.0
45.8198 114.0
45.8297 82.0
45.8395 105.0
45.8494 102.0
45.8592 109.0
45.8691 108.0
45.8789 105.0
45.8888 109.0
45.8986 104.0
45.9085 109.0
45.9183 117.0
45.9281 111.0
45.938 107.0
45.9478 95.0
45.9577 107.0
45.9675 101.0
45.9774 101.0
45.9872 103.0
45.9971 113.0
46.0069 90.0
46.0168 91.0
46.0266 104.0
46.0365 111.0
46.0463 102.0
46.0562 86.0
46.066 102.0
46.0759 106.0
46.0857 99.0
46.0956 104.0
46.1054 75.0
46.1153 106.0
46.1251 92.0
46.1349 88.0
46.1448 105.0
46.1546 96.0
46.1645 99.0
46.1743 106.0
46.1842 91.0
46.194 107.0
46.2039 93.0
46.2137 106.0
46.2236 115.0
46.2334 115.0
46.2433 119.0
46.2531 89.0
46.263 107.0
46.2728 87.0
46.2827 103.0
46.2925 108.0
46.3024 92.0
46.3122 95.0
46.3221 92.0
46.3319 110.0
46.3418 103.0
46.3516 102.0
46.3614 104.0
46.3713 86.0
46.3811 107.0
46.391 107.0
46.4008 102.0
46.4107 103.0
46.4205 108.0
46.4304 121.0
46.4402 109.0
46.4501 107.0
46.4599 87.0
46.4698 105.0
46.4796 98.0
46.4895 117.0
46.4993 107.0
46.5092 94.0
46.519 111.0
46.5289 109.0
46.5387 103.0
46.5486 92.0
46.5584 113.0
46.5682 114.0
46.5781 115.0
46.5879 83.0
46.5978 99.0
46.6076 104.0
46.6175 124.0
46.6273 94.0
46.6372 87.0
46.647 116.0
46.6569 114.0
46.6667 111.0
46.6766 108.0
46.6864 130.0
46.6963 116.0
46.7061 121.0
46.716 113.0
46.7258 100.0
46.7357 130.0
46.7455 138.0
46.7554 122.0
46.7652 122.0
46.7751 135.0
46.7849 104.0
46.7947 114.0
46.8046 132.0
46.8144 115.0
46.8243 119.0
46.8341 102.0
46.844 108.0
46.8538 127.0
46.8637 134.0
46.8735 132.0
46.8834 120.0
46.8932 115.0
46.9031 115.0
46.9129 125.0
46.9228 119.0
46.9326 136.0
46.9425 134.0
46.9523 119.0
46.9622 131.0
46.972 113.0
46.9819 137.0
46.9917 154.0
47.0015 139.0
47.0114 168.0
47.0212 191.0
47.0311 195.0
47.0409 256.0
47.0508 333.0
47.0606 494.0
47.0705 728.0
47.0803 991.0
47.0902 1383.0
47.1 1719.0
47.1099 1910.0
47.1197 1838.0
47.1296 1671.0
47.1394 1415.0
47.1493 1037.0
47.1591 700.0
47.169 509.0
47.1788 428.0
47.1887 350.0
47.1985 271.0
47.2083 263.0
47.2182 208.0
47.228 180.0
47.2379 183.0
47.2477 167.0
47.2576 163.0
47.2674 153.0
47.2773 140.0
47.2871 156.0
47.297 136.0
47.3068 144.0
47.3167 131.0
47.3265 124.0
47.3364 127.0
47.3462 135.0
47.3561 116.0
47.3659 145.0
47.3758 135.0
47.3856 125.0
47.3955 134.0
47.4053 121.0
47.4152 121.0
47.425 121.0
47.4348 117.0
47.4447 104.0
47.4545 124.0
47.4644 101.0
47.4742 106.0
47.4841 135.0
47.4939 133.0
47.5038 118.0
47.5136 147.0
47.5235 107.0
47.5333 130.0
47.5432 131.0
47.553 129.0
47.5629 137.0
47.5727 121.0
47.5826 127.0
47.5924 127.0
47.6023 126.0
47.6121 134.0
47.622 130.0
47.6318 116.0
47.6416 111.0
47.6515 138.0
47.6613 104.0
47.6712 142.0
47.681 131.0
47.6909 113.0
47.7007 133.0
47.7106 112.0
47.7204 119.0
47.7303 134.0
47.7401 121.0
47.75 123.0
47.7598 140.0
47.7697 127.0
47.7795 122.0
47.7894 107.0
47.7992 120.0
47.8091 107.0
47.8189 133.0
47.8288 143.0
47.8386 106.0
47.8485 138.0
47.8583 125.0
47.8681 107.0
47.878 133.0
47.8878 125.0
47.8977 112.0
47.9075 112.0
47.9174 117.0
47.9272 114.0
47.9371 113.0
47.9469 128.0
47.9568 114.0
47.9666 121.0
47.9765 128.0
47.9863 112.0
47.9962 138.0
48.006 122.0
48.0159 124.0
48.0257 131.0
48.0356 124.0
48.0454 140.0
48.0553 114.0
48.0651 125.0
48.0749 124.0
48.0848 136.0
48.0946 132.0
48.1045 125.0
48.1143 127.0
48.1242 116.0
48.134 139.0
48.1439 126.0
48.1537 120.0
48.1636 141.0
48.1734 128.0
48.1833 125.0
48.1931 124.0
48.203 111.0
48.2128 130.0
48.2227 129.0
48.2325 140.0
48.2424 118.0
48.2522 120.0
48.2621 134.0
48.2719 129.0
48.2818 131.0
48.2916 127.0
48.3014 117.0
48.3113 122.0
48.3211 122.0
48.331 132.0
48.3408 144.0
48.3507 116.0
48.3605 125.0
48.3704 136.0
48.3802 139.0
48.3901 130.0
48.3999 121.0
48.4098 131.0
48.4196 146.0
48.4295 119.0
48.4393 125.0
48.4492 126.0
48.459 139.0
48.4689 154.0
48.4787 149.0
48.4886 127.0
48.4984 147.0
48.5082 138.0
48.5181 133.0
48.5279 129.0
48.5378 125.0
48.5476 143.0
48.5575 129.0
48.5673 126.0
48.5772 147.0
48.587 95.0
48.5969 121.0
48.6067 125.0
48.6166 158.0
48.6264 137.0
48.6363 153.0
48.6461 117.0
48.656 147.0
48.6658 147.0
48.6757 131.0
48.6855 132.0
48.6954 130.0
48.7052 109.0
48.715 116.0
48.7249 134.0
48.7347 144.0
48.7446 138.0
48.7544 132.0
48.7643 146.0
48.7741 157.0
48.784 165.0
48.7938 145.0
48.8037 135.0
48.8135 124.0
48.8234 135.0
48.8332 113.0
48.8431 151.0
48.8529 132.0
48.8628 145.0
48.8726 150.0
48.8825 170.0
48.8923 129.0
48.9022 165.0
48.912 147.0
48.9219 158.0
48.9317 146.0
48.9415 147.0
48.9514 161.0
48.9612 152.0
48.9711 161.0
48.9809 141.0
48.9908 182.0
49.0006 160.0
49.0105 151.0
49.0203 151.0
49.0302 168.0
49.04 178.0
49.0499 155.0
49.0597 170.0
49.0696 160.0
49.0794 165.0
49.0893 189.0
49.0991 148.0
49.109 163.0
49.1188 181.0
49.1287 194.0
49.1385 156.0
49.1483 185.0
49.1582 188.0
49.168 195.0
49.1779 186.0
49.1877 207.0
49.1976 185.0
49.2074 158.0
49.2173 176.0
49.2271 189.0
49.237 172.0
49.2468 209.0
49.2567 210.0
49.2665 208.0
49.2764 184.0
49.2862 215.0
49.2961 210.0
49.3059 216.0
49.3158 227.0
49.3256 208.0
49.3355 215.0
49.3453 217.0
49.3552 243.0
49.365 220.0
49.3748 244.0
49.3847 213.0
49.3945 212.0
49.4044 244.0
49.4142 236.0
49.4241 265.0
49.4339 235.0
49.4438 268.0
49.4536 270.0
49.4635 277.0
49.4733 269.0
49.4832 290.0
49.493 315.0
49.5029 279.0
49.5127 324.0
49.5226 338.0
49.5324 294.0
49.5423 326.0
49.5521 330.0
49.562 362.0
49.5718 390.0
49.5816 394.0
49.5915 384.0
49.6013 409.0
49.6112 402.0
49.621 475.0
49.6309 506.0
49.6407 442.0
49.6506 501.0
49.6604 514.0
49.6703 507.0
49.6801 579.0
49.69 571.0
49.6998 566.0
49.7097 591.0
49.7195 660.0
49.7294 722.0
49.7392 705.0
49.7491 761.0
49.7589 763.0
49.7688 850.0
49.7786 900.0
49.7884 972.0
49.7983 915.0
49.8081 1006.0
49.818 1099.0
49.8278 1126.0
49.8377 1246.0
49.8475 1317.0
49.8574 1447.0
49.8672 1463.0
49.8771 1637.0
49.8869 1720.0
49.8968 1820.0
49.9066 1980.0
49.9165 2057.0
49.9263 2173.0
49.9362 2176.0
49.946 2441.0
49.9559 2488.0
49.9657 2616.0
49.9756 2690.0
49.9854 2685.0
49.9953 2862.0
50.0051 2831.0
50.0149 2997.0
50.0248 2897.0
50.0346 2937.0
50.0445 2927.0
50.0543 2956.0
50.0642 2897.0
50.074 2879.0
50.0839 2880.0
50.0937 2807.0
50.1036 2713.0
50.1134 2663.0
50.1233 2587.0
50.1331 2628.0
50.143 2425.0
50.1528 2366.0
50.1627 2203.0
50.1725 2067.0
50.1824 1996.0
50.1922 1858.0
50.2021 1892.0
50.2119 1751.0
50.2217 1672.0
50.2316 1548.0
50.2414 1424.0
50.2513 1422.0
50.2611 1267.0
50.271 1291.0
50.2808 1162.0
50.2907 1053.0
50.3005 1067.0
50.3104 953.0
50.3202 977.0
50.3301 872.0
50.3399 835.0
50.3498 841.0
50.3596 755.0
50.3695 685.0
50.3793 722.0
50.3892 616.0
50.399 630.0
50.4089 588.0
50.4187 576.0
50.4286 540.0
50.4384 485.0
50.4482 458.0
50.4581 470.0
50.4679 479.0
50.4778 442.0
50.4876 461.0
50.4975 436.0
50.5073 400.0
50.5172 402.0
50.527 428.0
50.5369 395.0
50.5467 392.0
50.5566 365.0
50.5664 357.0
50.5763 363.0
50.5861 350.0
50.596 363.0
50.6058 354.0
50.6157 342.0
50.6255 332.0
50.6354 302.0
50.6452 291.0
50.655 306.0
50.6649 318.0
50.6747 302.0
50.6846 320.0
50.6944 321.0
50.7043 297.0
50.7141 313.0
50.724 333.0
50.7338 282.0
50.7437 288.0
50.7535 299.0
50.7634 291.0
50.7732 260.0
50.7831 301.0
50.7929 227.0
50.8028 286.0
50.8126 270.0
50.8225 297.0
50.8323 258.0
50.8422 273.0
50.852 295.0
50.8619 313.0
50.8717 284.0
50.8815 311.0
50.8914 302.0
50.9012 325.0
50.9111 269.0
50.9209 300.0
50.9308 295.0
50.9406 292.0
50.9505 298.0
50.9603 297.0
50.9702 284.0
50.98 326.0
50.9899 309.0
50.9997 301.0
51.0096 307.0
51.0194 325.0
51.0293 338.0
51.0391 324.0
51.049 327.0
51.0588 340.0
51.0687 312.0
51.0785 302.0
51.0883 315.0
51.0982 328.0
51.108 371.0
51.1179 302.0
51.1277 352.0
51.1376 353.0
51.1474 346.0
51.1573 374.0
51.1671 360.0
51.177 369.0
51.1868 377.0
51.1967 354.0
51.2065 399.0
51.2164 378.0
51.2262 392.0
51.2361 396.0
51.2459 365.0
51.2558 390.0
51.2656 418.0
51.2755 388.0
51.2853 386.0
51.2951 421.0
51.305 416.0
51.3148 413.0
51.3247 428.0
51.3345 429.0
51.3444 443.0
51.3542 442.0
51.3641 459.0
51.3739 483.0
51.3838 508.0
51.3936 448.0
51.4035 471.0
51.4133 451.0
51.4232 454.0
51.433 494.0
51.4429 503.0
51.4527 481.0
51.4626 443.0
51.4724 533.0
51.4823 466.0
51.4921 501.0
51.502 516.0
51.5118 501.0
51.5216 535.0
51.5315 532.0
51.5413 532.0
51.5512 572.0
51.561 552.0
51.5709 557.0
51.5807 618.0
51.5906 624.0
51.6004 596.0
51.6103 607.0
51.6201 577.0
51.63 595.0
51.6398 618.0
51.6497 577.0
51.6595 618.0
51.6694 609.0
51.6792 666.0
51.6891 682.0
51.6989 671.0
51.7088 706.0
51.7186 646.0
51.7284 664.0
51.7383 681.0
51.7481 686.0
51.758 677.0
51.7678 710.0
51.7777 703.0
51.7875 737.0
51.7974 788.0
51.8072 729.0
51.8171 759.0
51.8269 710.0
51.8368 856.0
51.8466 779.0
51.8565 855.0
51.8663 817.0
51.8762 858.0
51.886 829.0
51.8959 833.0
51.9057 933.0
51.9156 918.0
51.9254 934.0
51.9353 898.0
51.9451 953.0
51.9549 1008.0
51.9648 1011.0
51.9746 1004.0
51.9845 1040.0
51.9943 1035.0
52.0042 1062.0
52.014 1094.0
52.0239 1138.0
52.0337 1161.0
52.0436 1126.0
52.0534 1246.0
52.0633 1182.0
52.0731 1262.0
52.083 1263.0
52.0928 1443.0
52.1027 1473.0
52.1125 1493.0
52.1224 1570.0
52.1322 1669.0
52.1421 1706.0
52.1519 1809.0
52.1617 1899.0
52.1716 2106.0
52.1814 2316.0
52.1913 2448.0
52.2011 2904.0
52.211 3332.0
52.2208 3655.0
52.2307 4172.0
52.2405 4764.0
52.2504 5099.0
52.2602 5419.0
52.2701 5427.0
52.2799 5744.0
52.2898 5642.0
52.2996 5518.0
52.3095 5585.0
52.3193 5598.0
52.3292 5457.0
52.339 5725.0
52.3489 6070.0
52.3587 6623.0
52.3686 7073.0
52.3784 8334.0
52.3882 9385.0
52.3981 11138.0
52.4079 13485.0
52.4178 16790.0
52.4276 21761.0
52.4375 29770.0
52.4473 43935.0
52.4572 74524.0
52.467 149203.0
52.4769 293278.0
52.4867 407346.0
52.4966 456654.0
52.5064 475322.0
52.5163 462512.0
52.5261 397633.0
52.536 248271.0
52.5458 129941.0
52.5557 74260.0
52.5655 48908.0
52.5754 38881.0
52.5852 38306.0
52.595 46732.0
52.6049 74338.0
52.6147 132118.0
52.6246 191985.0
52.6344 225800.0
52.6443 236378.0
52.6541 231898.0
52.664 206160.0
52.6738 147027.0
52.6837 84054.0
52.6935 46007.0
52.7034 28435.0
52.7132 18990.0
52.7231 14378.0
52.7329 11097.0
52.7428 9253.0
52.7526 7892.0
52.7625 6886.0
52.7723 6116.0
52.7822 5393.0
52.792 4884.0
52.8018 4353.0
52.8117 3939.0
52.8215 3735.0
52.8314 3372.0
52.8412 3213.0
52.8511 3032.0
52.8609 2738.0
52.8708 2533.0
52.8806 2344.0
52.8905 2352.0
52.9003 2114.0
52.9102 2094.0
52.92 1959.0
52.9299 1824.0
52.9397 1680.0
52.9496 1670.0
52.9594 1614.0
52.9693 1531.0
52.9791 1507.0
52.989 1414.0
52.9988 1406.0
53.0087 1301.0
53.0185 1267.0
53.0283 1126.0
53.0382 1224.0
53.048 1153.0
53.0579 1124.0
53.0677 1088.0
53.0776 1075.0
53.0874 1008.0
53.0973 1050.0
53.1071 964.0
53.117 986.0
53.1268 964.0
53.1367 946.0
53.1465 913.0
53.1564 847.0
53.1662 772.0
53.1761 764.0
53.1859 839.0
53.1958 792.0
53.2056 778.0
53.2155 699.0
53.2253 724.0
53.2351 710.0
53.245 731.0
53.2548 682.0
53.2647 633.0
53.2745 648.0
53.2844 647.0
53.2942 661.0
53.3041 571.0
53.3139 622.0
53.3238 561.0
53.3336 573.0
53.3435 554.0
53.3533 549.0
53.3632 526.0
53.373 560.0
53.3829 507.0
53.3927 495.0
53.4026 473.0
53.4124 491.0
53.4223 483.0
53.4321 497.0
53.442 454.0
53.4518 429.0
53.4616 435.0
53.4715 450.0
53.4813 420.0
53.4912 417.0
53.501 419.0
53.5109 381.0
53.5207 391.0
53.5306 408.0
53.5404 409.0
53.5503 380.0
53.5601 362.0
53.57 367.0
53.5798 365.0
53.5897 330.0
53.5995 304.0
53.6094 307.0
53.6192 330.0
53.6291 329.0
53.6389 298.0
53.6488 309.0
53.6586 318.0
53.6684 288.0
53.6783 283.0
53.6881 324.0
53.698 284.0
53.7078 267.0
53.7177 276.0
53.7275 265.0
53.7374 292.0
53.7472 256.0
53.7571 274.0
53.7669 265.0
53.7768 274.0
53.7866 226.0
53.7965 227.0
53.8063 272.0
53.8162 191.0
53.826 262.0
53.8359 212.0
53.8457 220.0
53.8556 212.0
53.8654 208.0
53.8753 256.0
53.8851 257.0
53.8949 199.0
53.9048 217.0
53.9146 255.0
53.9245 185.0
53.9343 194.0
53.9442 212.0
53.954 217.0
53.9639 182.0
53.9737 213.0
53.9836 217.0
53.9934 206.0
54.0033 199.0
54.0131 215.0
54.023 193.0
54.0328 178.0
54.0427 183.0
54.0525 175.0
54.0624 214.0
54.0722 201.0
54.0821 175.0
54.0919 190.0
54.1017 179.0
54.1116 189.0
54.1214 171.0
54.1313 164.0
54.1411 174.0
54.151 181.0
54.1608 172.0
54.1707 168.0
54.1805 146.0
54.1904 177.0
54.2002 158.0
54.2101 174.0
54.2199 182.0
54.2298 187.0
54.2396 162.0
54.2495 157.0
54.2593 164.0
54.2692 164.0
54.279 176.0
54.2889 168.0
54.2987 157.0
54.3085 159.0
54.3184 169.0
54.3282 161.0
54.3381 184.0
54.3479 167.0
54.3578 158.0
54.3676 180.0
54.3775 155.0
54.3873 165.0
54.3972 175.0
54.407 170.0
54.4169 184.0
54.4267 166.0
54.4366 162.0
54.4464 152.0
54.4563 145.0
54.4661 164.0
54.476 158.0
54.4858 145.0
54.4957 152.0
54.5055 159.0
54.5154 161.0
54.5252 173.0
54.535 145.0
54.5449 138.0
54.5547 140.0
54.5646 169.0
54.5744 157.0
54.5843 131.0
54.5941 153.0
54.604 147.0
54.6138 140.0
54.6237 149.0
54.6335 156.0
54.6434 145.0
54.6532 138.0
54.6631 148.0
54.6729 124.0
54.6828 134.0
54.6926 144.0
54.7025 147.0
54.7123 157.0
54.7222 147.0
54.732 146.0
54.7418 140.0
54.7517 164.0
54.7615 147.0
54.7714 155.0
54.7812 142.0
54.7911 152.0
54.8009 132.0
54.8108 146.0
54.8206 131.0
54.8305 144.0
54.8403 135.0
54.8502 154.0
54.86 144.0
54.8699 158.0
54.8797 157.0
54.8896 134.0
54.8994 139.0
54.9093 141.0
54.9191 148.0
54.929 132.0
54.9388 146.0
54.9487 155.0
54.9585 133.0
54.9683 141.0
54.9782 136.0
54.988 133.0
54.9979 134.0