File: data/W6817c/XRD_2ThetaOmega/W6817c_absolute_2th-om_10-130deg_PIXscan_17min_10.xy
10.0035 18.0
10.0872 26.0
10.1709 26.0
10.2546 27.0
10.3383 21.0
10.422 20.0
10.5057 24.0
10.5894 28.0
10.6731 11.0
10.7568 25.0
10.8405 28.0
10.9242 21.0
11.0079 23.0
11.0916 25.0
11.1753 19.0
11.259 21.0
11.3428 16.0
11.4265 28.0
11.5102 18.0
11.5939 15.0
11.6776 30.0
11.7613 20.0
11.845 21.0
11.9287 16.0
12.0124 18.0
12.0961 12.0
12.1798 17.0
12.2635 23.0
12.3472 24.0
12.4309 13.0
12.5146 20.0
12.5983 18.0
12.682 15.0
12.7657 26.0
12.8495 19.0
12.9332 16.0
13.0169 26.0
13.1006 25.0
13.1843 11.0
13.268 20.0
13.3517 22.0
13.4354 22.0
13.5191 18.0
13.6028 17.0
13.6865 26.0
13.7702 19.0
13.8539 14.0
13.9376 17.0
14.0213 20.0
14.105 15.0
14.1887 19.0
14.2724 14.0
14.3562 13.0
14.4399 17.0
14.5236 17.0
14.6073 13.0
14.691 18.0
14.7747 15.0
14.8584 17.0
14.9421 18.0
15.0258 13.0
15.1095 12.0
15.1932 15.0
15.2769 16.0
15.3606 12.0
15.4443 14.0
15.528 11.0
15.6117 10.0
15.6954 28.0
15.7791 17.0
15.8629 17.0
15.9466 11.0
16.0303 22.0
16.114 15.0
16.1977 14.0
16.2814 25.0
16.3651 16.0
16.4488 8.0
16.5325 22.0
16.6162 15.0
16.6999 21.0
16.7836 14.0
16.8673 21.0
16.951 16.0
17.0347 16.0
17.1184 16.0
17.2021 11.0
17.2858 21.0
17.3696 18.0
17.4533 13.0
17.537 20.0
17.6207 14.0
17.7044 12.0
17.7881 24.0
17.8718 24.0
17.9555 18.0
18.0392 17.0
18.1229 11.0
18.2066 16.0
18.2903 13.0
18.374 13.0
18.4577 19.0
18.5414 17.0
18.6251 15.0
18.7088 19.0
18.7925 25.0
18.8763 11.0
18.96 20.0
19.0437 16.0
19.1274 22.0
19.2111 11.0
19.2948 23.0
19.3785 20.0
19.4622 15.0
19.5459 21.0
19.6296 13.0
19.7133 13.0
19.797 17.0
19.8807 24.0
19.9644 11.0
20.0481 12.0
20.1318 16.0
20.2155 17.0
20.2992 19.0
20.383 14.0
20.4667 15.0
20.5504 12.0
20.6341 13.0
20.7178 21.0
20.8015 14.0
20.8852 21.0
20.9689 10.0
21.0526 14.0
21.1363 20.0
21.22 18.0
21.3037 10.0
21.3874 8.0
21.4711 16.0
21.5548 18.0
21.6385 17.0
21.7222 11.0
21.8059 18.0
21.8897 16.0
21.9734 4.0
22.0571 12.0
22.1408 15.0
22.2245 15.0
22.3082 11.0
22.3919 12.0
22.4756 10.0
22.5593 12.0
22.643 15.0
22.7267 17.0
22.8104 13.0
22.8941 10.0
22.9778 17.0
23.0615 17.0
23.1452 12.0
23.2289 13.0
23.3126 14.0
23.3964 10.0
23.4801 9.0
23.5638 15.0
23.6475 11.0
23.7312 14.0
23.8149 5.0
23.8986 15.0
23.9823 18.0
24.066 13.0
24.1497 18.0
24.2334 10.0
24.3171 15.0
24.4008 13.0
24.4845 5.0
24.5682 12.0
24.6519 16.0
24.7356 12.0
24.8193 22.0
24.9031 14.0
24.9868 14.0
25.0705 14.0
25.1542 12.0
25.2379 12.0
25.3216 14.0
25.4053 7.0
25.489 8.0
25.5727 14.0
25.6564 7.0
25.7401 9.0
25.8238 7.0
25.9075 13.0
25.9912 13.0
26.0749 11.0
26.1586 8.0
26.2423 18.0
26.326 15.0
26.4098 8.0
26.4935 11.0
26.5772 7.0
26.6609 12.0
26.7446 16.0
26.8283 8.0
26.912 9.0
26.9957 17.0
27.0794 13.0
27.1631 14.0
27.2468 11.0
27.3305 15.0
27.4142 6.0
27.4979 12.0
27.5816 7.0
27.6653 9.0
27.749 15.0
27.8327 16.0
27.9165 21.0
28.0002 16.0
28.0839 12.0
28.1676 9.0
28.2513 9.0
28.335 17.0
28.4187 15.0
28.5024 13.0
28.5861 14.0
28.6698 5.0
28.7535 20.0
28.8372 8.0
28.9209 7.0
29.0046 13.0
29.0883 10.0
29.172 15.0
29.2557 17.0
29.3394 12.0
29.4232 11.0
29.5069 13.0
29.5906 15.0
29.6743 10.0
29.758 10.0
29.8417 15.0
29.9254 16.0
30.0091 7.0
30.0928 11.0
30.1765 17.0
30.2602 11.0
30.3439 12.0
30.4276 14.0
30.5113 15.0
30.595 12.0
30.6787 13.0
30.7624 12.0
30.8461 7.0
30.9298 6.0
31.0136 12.0
31.0973 10.0
31.181 16.0
31.2647 8.0
31.3484 3.0
31.4321 12.0
31.5158 12.0
31.5995 12.0
31.6832 13.0
31.7669 10.0
31.8506 15.0
31.9343 11.0
32.018 11.0
32.1017 11.0
32.1854 11.0
32.2691 2.0
32.3528 16.0
32.4365 11.0
32.5203 13.0
32.604 7.0
32.6877 11.0
32.7714 17.0
32.8551 12.0
32.9388 11.0
33.0225 9.0
33.1062 8.0
33.1899 14.0
33.2736 9.0
33.3573 11.0
33.441 13.0
33.5247 8.0
33.6084 12.0
33.6921 12.0
33.7758 8.0
33.8595 14.0
33.9432 18.0
34.027 12.0
34.1107 14.0
34.1944 10.0
34.2781 7.0
34.3618 4.0
34.4455 13.0
34.5292 10.0
34.6129 18.0
34.6966 13.0
34.7803 13.0
34.864 12.0
34.9477 14.0
35.0314 12.0
35.1151 10.0
35.1988 13.0
35.2825 16.0
35.3662 18.0
35.4499 10.0
35.5337 16.0
35.6174 9.0
35.7011 5.0
35.7848 11.0
35.8685 17.0
35.9522 13.0
36.0359 12.0
36.1196 15.0
36.2033 10.0
36.287 17.0
36.3707 10.0
36.4544 11.0
36.5381 12.0
36.6218 15.0
36.7055 17.0
36.7892 12.0
36.8729 8.0
36.9566 12.0
37.0404 6.0
37.1241 13.0
37.2078 15.0
37.2915 17.0
37.3752 11.0
37.4589 17.0
37.5426 16.0
37.6263 12.0
37.71 9.0
37.7937 9.0
37.8774 22.0
37.9611 21.0
38.0448 23.0
38.1285 23.0
38.2122 20.0
38.2959 35.0
38.3796 28.0
38.4633 28.0
38.5471 39.0
38.6308 48.0
38.7145 77.0
38.7982 85.0
38.8819 106.0
38.9656 166.0
39.0493 208.0
39.133 177.0
39.2167 89.0
39.3004 66.0
39.3841 40.0
39.4678 23.0
39.5515 25.0
39.6352 18.0
39.7189 24.0
39.8026 42.0
39.8863 19.0
39.97 14.0
40.0538 14.0
40.1375 19.0
40.2212 15.0
40.3049 11.0
40.3886 7.0
40.4723 19.0
40.556 9.0
40.6397 15.0
40.7234 11.0
40.8071 7.0
40.8908 12.0
40.9745 18.0
41.0582 12.0
41.1419 23.0
41.2256 21.0
41.3093 25.0
41.393 47.0
41.4767 92.0
41.5605 485.0
41.6442 2807.0
41.7279 3292.0
41.8116 127.0
41.8953 53.0
41.979 38.0
42.0627 28.0
42.1464 18.0
42.2301 28.0
42.3138 22.0
42.3975 16.0
42.4812 12.0
42.5649 13.0
42.6486 16.0
42.7323 10.0
42.816 20.0
42.8997 20.0
42.9834 14.0
43.0672 12.0
43.1509 14.0
43.2346 10.0
43.3183 12.0
43.402 12.0
43.4857 13.0
43.5694 19.0
43.6531 14.0
43.7368 11.0
43.8205 14.0
43.9042 15.0
43.9879 19.0
44.0716 19.0
44.1553 13.0
44.239 24.0
44.3227 39.0
44.4064 28.0
44.4901 21.0
44.5739 20.0
44.6576 19.0
44.7413 13.0
44.825 16.0
44.9087 10.0
44.9924 10.0
45.0761 13.0
45.1598 15.0
45.2435 15.0
45.3272 11.0
45.4109 8.0
45.4946 12.0
45.5783 12.0
45.662 8.0
45.7457 13.0
45.8294 13.0
45.9131 14.0
45.9968 17.0
46.0806 10.0
46.1643 12.0
46.248 11.0
46.3317 12.0
46.4154 10.0
46.4991 14.0
46.5828 10.0
46.6665 9.0
46.7502 11.0
46.8339 16.0
46.9176 19.0
47.0013 12.0
47.085 10.0
47.1687 9.0
47.2524 13.0
47.3361 13.0
47.4198 17.0
47.5035 16.0
47.5873 9.0
47.671 17.0
47.7547 11.0
47.8384 11.0
47.9221 12.0
48.0058 9.0
48.0895 9.0
48.1732 10.0
48.2569 13.0
48.3406 10.0
48.4243 14.0
48.508 13.0
48.5917 6.0
48.6754 10.0
48.7591 12.0
48.8428 10.0
48.9265 8.0
49.0102 13.0
49.094 10.0
49.1777 15.0
49.2614 15.0
49.3451 9.0
49.4288 11.0
49.5125 19.0
49.5962 15.0
49.6799 13.0
49.7636 12.0
49.8473 11.0
49.931 13.0
50.0147 11.0
50.0984 18.0
50.1821 9.0
50.2658 10.0
50.3495 23.0
50.4332 16.0
50.5169 15.0
50.6007 10.0
50.6844 6.0
50.7681 23.0
50.8518 13.0
50.9355 16.0
51.0192 13.0
51.1029 7.0
51.1866 11.0
51.2703 13.0
51.354 13.0
51.4377 9.0
51.5214 18.0
51.6051 12.0
51.6888 13.0
51.7725 11.0
51.8562 15.0
51.9399 12.0
52.0236 10.0
52.1074 12.0
52.1911 14.0
52.2748 17.0
52.3585 9.0
52.4422 6.0
52.5259 17.0
52.6096 14.0
52.6933 12.0
52.777 6.0
52.8607 11.0
52.9444 12.0
53.0281 14.0
53.1118 14.0
53.1955 8.0
53.2792 7.0
53.3629 14.0
53.4466 13.0
53.5303 12.0
53.6141 15.0
53.6978 12.0
53.7815 11.0
53.8652 18.0
53.9489 9.0
54.0326 11.0
54.1163 9.0
54.2 19.0
54.2837 19.0
54.3674 11.0
54.4511 13.0
54.5348 12.0
54.6185 14.0
54.7022 11.0
54.7859 9.0
54.8696 18.0
54.9533 11.0
55.037 7.0
55.1208 14.0
55.2045 13.0
55.2882 13.0
55.3719 17.0
55.4556 13.0
55.5393 10.0
55.623 11.0
55.7067 13.0
55.7904 10.0
55.8741 12.0
55.9578 15.0
56.0415 10.0
56.1252 18.0
56.2089 6.0
56.2926 7.0
56.3763 8.0
56.46 10.0
56.5437 16.0
56.6275 10.0
56.7112 21.0
56.7949 17.0
56.8786 13.0
56.9623 12.0
57.046 12.0
57.1297 12.0
57.2134 15.0
57.2971 10.0
57.3808 13.0
57.4645 18.0
57.5482 16.0
57.6319 12.0
57.7156 14.0
57.7993 12.0
57.883 10.0
57.9667 6.0
58.0504 10.0
58.1342 26.0
58.2179 8.0
58.3016 5.0
58.3853 8.0
58.469 17.0
58.5527 10.0
58.6364 17.0
58.7201 6.0
58.8038 14.0
58.8875 13.0
58.9712 15.0
59.0549 15.0
59.1386 15.0
59.2223 5.0
59.306 13.0
59.3897 11.0
59.4734 15.0
59.5571 15.0
59.6409 13.0
59.7246 9.0
59.8083 9.0
59.892 19.0
59.9757 12.0
60.0594 12.0
60.1431 8.0
60.2268 14.0
60.3105 10.0
60.3942 16.0
60.4779 13.0
60.5616 20.0
60.6453 16.0
60.729 11.0
60.8127 18.0
60.8964 11.0
60.9801 15.0
61.0638 10.0
61.1476 11.0
61.2313 16.0
61.315 17.0
61.3987 17.0
61.4824 14.0
61.5661 16.0
61.6498 11.0
61.7335 15.0
61.8172 13.0
61.9009 13.0
61.9846 17.0
62.0683 11.0
62.152 20.0
62.2357 10.0
62.3194 15.0
62.4031 16.0
62.4868 8.0
62.5705 12.0
62.6543 11.0
62.738 23.0
62.8217 7.0
62.9054 10.0
62.9891 11.0
63.0728 18.0
63.1565 10.0
63.2402 14.0
63.3239 19.0
63.4076 7.0
63.4913 16.0
63.575 11.0
63.6587 13.0
63.7424 8.0
63.8261 6.0
63.9098 18.0
63.9935 15.0
64.0772 21.0
64.161 8.0
64.2447 17.0
64.3284 14.0
64.4121 14.0
64.4958 13.0
64.5795 11.0
64.6632 11.0
64.7469 9.0
64.8306 18.0
64.9143 11.0
64.998 11.0
65.0817 16.0
65.1654 9.0
65.2491 12.0
65.3328 9.0
65.4165 13.0
65.5002 17.0
65.5839 16.0
65.6677 11.0
65.7514 9.0
65.8351 14.0
65.9188 14.0
66.0025 12.0
66.0862 14.0
66.1699 6.0
66.2536 12.0
66.3373 7.0
66.421 10.0
66.5047 17.0
66.5884 11.0
66.6721 20.0
66.7558 14.0
66.8395 10.0
66.9232 13.0
67.0069 15.0
67.0906 13.0
67.1744 13.0
67.2581 16.0
67.3418 10.0
67.4255 12.0
67.5092 19.0
67.5929 9.0
67.6766 6.0
67.7603 10.0
67.844 16.0
67.9277 17.0
68.0114 9.0
68.0951 11.0
68.1788 17.0
68.2625 11.0
68.3462 15.0
68.4299 9.0
68.5136 15.0
68.5973 7.0
68.6811 15.0
68.7648 17.0
68.8485 14.0
68.9322 13.0
69.0159 18.0
69.0996 16.0
69.1833 11.0
69.267 15.0
69.3507 12.0
69.4344 13.0
69.5181 12.0
69.6018 15.0
69.6855 17.0
69.7692 7.0
69.8529 10.0
69.9366 14.0
70.0203 15.0
70.104 21.0
70.1878 12.0
70.2715 13.0
70.3552 11.0
70.4389 11.0
70.5226 7.0
70.6063 17.0
70.69 17.0
70.7737 14.0
70.8574 11.0
70.9411 13.0
71.0248 11.0
71.1085 11.0
71.1922 13.0
71.2759 10.0
71.3596 8.0
71.4433 16.0
71.527 18.0
71.6107 21.0
71.6945 16.0
71.7782 17.0
71.8619 13.0
71.9456 17.0
72.0293 12.0
72.113 9.0
72.1967 13.0
72.2804 23.0
72.3641 13.0
72.4478 14.0
72.5315 18.0
72.6152 13.0
72.6989 11.0
72.7826 16.0
72.8663 16.0
72.95 20.0
73.0337 12.0
73.1174 22.0
73.2012 25.0
73.2849 19.0
73.3686 22.0
73.4523 18.0
73.536 9.0
73.6197 22.0
73.7034 17.0
73.7871 14.0
73.8708 9.0
73.9545 10.0
74.0382 13.0
74.1219 13.0
74.2056 12.0
74.2893 14.0
74.373 12.0
74.4567 5.0
74.5404 18.0
74.6241 10.0
74.7079 9.0
74.7916 13.0
74.8753 15.0
74.959 14.0
75.0427 10.0
75.1264 8.0
75.2101 15.0
75.2938 13.0
75.3775 17.0
75.4612 9.0
75.5449 16.0
75.6286 13.0
75.7123 10.0
75.796 8.0
75.8797 11.0
75.9634 17.0
76.0471 15.0
76.1308 13.0
76.2146 15.0
76.2983 6.0
76.382 11.0
76.4657 19.0
76.5494 12.0
76.6331 16.0
76.7168 8.0
76.8005 22.0
76.8842 14.0
76.9679 8.0
77.0516 11.0
77.1353 11.0
77.219 7.0
77.3027 14.0
77.3864 11.0
77.4701 9.0
77.5538 13.0
77.6375 9.0
77.7213 8.0
77.805 9.0
77.8887 13.0
77.9724 4.0
78.0561 18.0
78.1398 12.0
78.2235 14.0
78.3072 13.0
78.3909 12.0
78.4746 12.0
78.5583 15.0
78.642 10.0
78.7257 12.0
78.8094 18.0
78.8931 11.0
78.9768 13.0
79.0605 11.0
79.1442 16.0
79.228 12.0
79.3117 19.0
79.3954 20.0
79.4791 17.0
79.5628 13.0
79.6465 14.0
79.7302 20.0
79.8139 15.0
79.8976 12.0
79.9813 27.0
80.065 22.0
80.1487 11.0
80.2324 11.0
80.3161 17.0
80.3998 11.0
80.4835 14.0
80.5672 12.0
80.6509 13.0
80.7347 8.0
80.8184 19.0
80.9021 20.0
80.9858 9.0
81.0695 12.0
81.1532 13.0
81.2369 9.0
81.3206 16.0
81.4043 11.0
81.488 16.0
81.5717 13.0
81.6554 12.0
81.7391 13.0
81.8228 23.0
81.9065 14.0
81.9902 22.0
82.0739 17.0
82.1576 15.0
82.2414 24.0
82.3251 19.0
82.4088 16.0
82.4925 28.0
82.5762 16.0
82.6599 12.0
82.7436 14.0
82.8273 15.0
82.911 15.0
82.9947 17.0
83.0784 19.0
83.1621 19.0
83.2458 21.0
83.3295 20.0
83.4132 25.0
83.4969 30.0
83.5806 24.0
83.6643 27.0
83.7481 30.0
83.8318 27.0
83.9155 46.0
83.9992 36.0
84.0829 50.0
84.1666 50.0
84.2503 51.0
84.334 37.0
84.4177 27.0
84.5014 41.0
84.5851 17.0
84.6688 23.0
84.7525 21.0
84.8362 13.0
84.9199 19.0
85.0036 16.0
85.0873 16.0
85.171 13.0
85.2548 12.0
85.3385 17.0
85.4222 11.0
85.5059 10.0
85.5896 23.0
85.6733 14.0
85.757 17.0
85.8407 12.0
85.9244 55.0
86.0081 23.0
86.0918 20.0
86.1755 19.0
86.2592 8.0
86.3429 11.0
86.4266 19.0
86.5103 16.0
86.594 12.0
86.6777 16.0
86.7615 21.0
86.8452 5.0
86.9289 9.0
87.0126 20.0
87.0963 21.0
87.18 14.0
87.2637 19.0
87.3474 10.0
87.4311 21.0
87.5148 21.0
87.5985 20.0
87.6822 14.0
87.7659 15.0
87.8496 15.0
87.9333 8.0
88.017 13.0
88.1007 21.0
88.1844 18.0
88.2682 21.0
88.3519 9.0
88.4356 16.0
88.5193 17.0
88.603 12.0
88.6867 13.0
88.7704 13.0
88.8541 13.0
88.9378 15.0
89.0215 18.0
89.1052 14.0
89.1889 15.0
89.2726 22.0
89.3563 16.0
89.44 23.0
89.5237 22.0
89.6074 19.0
89.6911 19.0
89.7749 26.0
89.8586 15.0
89.9423 32.0
90.026 27.0
90.1097 61.0
90.1934 61.0
90.2771 72.0
90.3608 62.0
90.4445 77.0
90.5282 185.0
90.6119 1099.0
90.6956 6036.0
90.7793 519.0
90.863 357.0
90.9467 3242.0
91.0304 764.0
91.1141 136.0
91.1978 88.0
91.2816 56.0
91.3653 53.0
91.449 45.0
91.5327 34.0
91.6164 31.0
91.7001 30.0
91.7838 33.0
91.8675 28.0
91.9512 22.0
92.0349 19.0
92.1186 21.0
92.2023 16.0
92.286 17.0
92.3697 21.0
92.4534 22.0
92.5371 15.0
92.6208 24.0
92.7045 23.0
92.7883 13.0
92.872 18.0
92.9557 21.0
93.0394 20.0
93.1231 20.0
93.2068 26.0
93.2905 21.0
93.3742 19.0
93.4579 20.0
93.5416 19.0
93.6253 23.0
93.709 10.0
93.7927 20.0
93.8764 13.0
93.9601 13.0
94.0438 16.0
94.1275 20.0
94.2112 18.0
94.295 11.0
94.3787 16.0
94.4624 16.0
94.5461 18.0
94.6298 19.0
94.7135 17.0
94.7972 9.0
94.8809 21.0
94.9646 14.0
95.0483 14.0
95.132 19.0
95.2157 6.0
95.2994 20.0
95.3831 12.0
95.4668 14.0
95.5505 10.0
95.6342 9.0
95.7179 20.0
95.8017 13.0
95.8854 13.0
95.9691 17.0
96.0528 13.0
96.1365 17.0
96.2202 9.0
96.3039 20.0
96.3876 7.0
96.4713 16.0
96.555 10.0
96.6387 17.0
96.7224 12.0
96.8061 21.0
96.8898 13.0
96.9735 19.0
97.0572 17.0
97.1409 9.0
97.2246 11.0
97.3084 12.0
97.3921 10.0
97.4758 10.0
97.5595 10.0
97.6432 13.0
97.7269 16.0
97.8106 17.0
97.8943 11.0
97.978 9.0
98.0617 8.0
98.1454 14.0
98.2291 9.0
98.3128 11.0
98.3965 18.0
98.4802 17.0
98.5639 12.0
98.6476 17.0
98.7313 19.0
98.8151 13.0
98.8988 11.0
98.9825 10.0
99.0662 9.0
99.1499 9.0
99.2336 10.0
99.3173 22.0
99.401 18.0
99.4847 15.0
99.5684 9.0
99.6521 20.0
99.7358 13.0
99.8195 16.0
99.9032 10.0
99.9869 14.0
100.071 12.0
100.154 14.0
100.238 15.0
100.322 23.0
100.405 10.0
100.489 14.0
100.573 18.0
100.657 10.0
100.74 6.0
100.824 13.0
100.908 14.0
100.991 21.0
101.075 9.0
101.159 13.0
101.243 14.0
101.326 13.0
101.41 14.0
101.494 10.0
101.577 19.0
101.661 12.0
101.745 18.0
101.828 7.0
101.912 8.0
101.996 21.0
102.08 13.0
102.163 12.0
102.247 14.0
102.331 6.0
102.414 9.0
102.498 9.0
102.582 18.0
102.666 15.0
102.749 16.0
102.833 10.0
102.917 15.0
103 8.0
103.084 14.0
103.168 10.0
103.251 16.0
103.335 14.0
103.419 10.0
103.503 13.0
103.586 10.0
103.67 16.0
103.754 12.0
103.837 15.0
103.921 20.0
104.005 8.0
104.089 13.0
104.172 18.0
104.256 20.0
104.34 19.0
104.423 11.0
104.507 11.0
104.591 14.0
104.674 8.0
104.758 15.0
104.842 12.0
104.926 14.0
105.009 7.0
105.093 15.0
105.177 7.0
105.26 8.0
105.344 16.0
105.428 10.0
105.511 17.0
105.595 11.0
105.679 8.0
105.763 8.0
105.846 11.0
105.93 19.0
106.014 15.0
106.097 15.0
106.181 16.0
106.265 19.0
106.349 23.0
106.432 20.0
106.516 9.0
106.6 12.0
106.683 11.0
106.767 15.0
106.851 15.0
106.934 6.0
107.018 14.0
107.102 18.0
107.186 15.0
107.269 13.0
107.353 17.0
107.437 11.0
107.52 10.0
107.604 20.0
107.688 22.0
107.772 20.0
107.855 12.0
107.939 18.0
108.023 8.0
108.106 15.0
108.19 18.0
108.274 15.0
108.357 19.0
108.441 15.0
108.525 11.0
108.609 11.0
108.692 16.0
108.776 17.0
108.86 10.0
108.943 19.0
109.027 12.0
109.111 21.0
109.195 12.0
109.278 17.0
109.362 14.0
109.446 7.0
109.529 16.0
109.613 15.0
109.697 10.0
109.78 13.0
109.864 10.0
109.948 14.0
110.032 17.0
110.115 12.0
110.199 16.0
110.283 11.0
110.366 15.0
110.45 18.0
110.534 16.0
110.618 13.0
110.701 5.0
110.785 12.0
110.869 13.0
110.952 15.0
111.036 16.0
111.12 16.0
111.203 13.0
111.287 14.0
111.371 13.0
111.455 12.0
111.538 11.0
111.622 14.0
111.706 8.0
111.789 11.0
111.873 16.0
111.957 19.0
112.041 15.0
112.124 11.0
112.208 10.0
112.292 14.0
112.375 10.0
112.459 7.0
112.543 14.0
112.626 7.0
112.71 8.0
112.794 19.0
112.878 19.0
112.961 14.0
113.045 16.0
113.129 16.0
113.212 17.0
113.296 17.0
113.38 10.0
113.464 10.0
113.547 15.0
113.631 13.0
113.715 14.0
113.798 15.0
113.882 11.0
113.966 13.0
114.049 12.0
114.133 11.0
114.217 17.0
114.301 17.0
114.384 14.0
114.468 13.0
114.552 17.0
114.635 11.0
114.719 21.0
114.803 11.0
114.887 15.0
114.97 10.0
115.054 17.0
115.138 8.0
115.221 19.0
115.305 16.0
115.389 13.0
115.472 9.0
115.556 15.0
115.64 14.0
115.724 12.0
115.807 12.0
115.891 7.0
115.975 14.0
116.058 5.0
116.142 13.0
116.226 24.0
116.31 5.0
116.393 13.0
116.477 12.0
116.561 15.0
116.644 19.0
116.728 18.0
116.812 14.0
116.895 11.0
116.979 7.0
117.063 7.0
117.147 12.0
117.23 11.0
117.314 19.0
117.398 8.0
117.481 18.0
117.565 20.0
117.649 11.0
117.733 14.0
117.816 12.0
117.9 14.0
117.984 7.0
118.067 10.0
118.151 15.0
118.235 19.0
118.318 11.0
118.402 19.0
118.486 10.0
118.57 18.0
118.653 17.0
118.737 16.0
118.821 18.0
118.904 12.0
118.988 18.0
119.072 14.0
119.156 17.0
119.239 13.0
119.323 22.0
119.407 16.0
119.49 15.0
119.574 14.0
119.658 10.0
119.741 16.0
119.825 13.0
119.909 9.0
119.993 13.0
120.076 9.0
120.16 17.0
120.244 12.0
120.327 11.0
120.411 12.0
120.495 17.0
120.578 10.0
120.662 16.0
120.746 15.0
120.83 19.0
120.913 21.0
120.997 5.0
121.081 11.0
121.164 10.0
121.248 18.0
121.332 8.0
121.416 13.0
121.499 9.0
121.583 16.0
121.667 16.0
121.75 15.0
121.834 14.0
121.918 14.0
122.001 14.0
122.085 11.0
122.169 17.0
122.253 8.0
122.336 10.0
122.42 14.0
122.504 12.0
122.587 11.0
122.671 12.0
122.755 9.0
122.839 18.0
122.922 17.0
123.006 7.0
123.09 10.0
123.173 10.0
123.257 17.0
123.341 10.0
123.424 9.0
123.508 18.0
123.592 13.0
123.676 8.0
123.759 11.0
123.843 18.0
123.927 9.0
124.01 5.0
124.094 19.0
124.178 12.0
124.262 9.0
124.345 16.0
124.429 15.0
124.513 8.0
124.596 19.0
124.68 8.0
124.764 17.0
124.847 12.0
124.931 13.0
125.015 11.0
125.099 14.0
125.182 16.0
125.266 19.0
125.35 17.0
125.433 10.0
125.517 18.0
125.601 14.0
125.685 11.0
125.768 13.0
125.852 22.0
125.936 12.0
126.019 10.0
126.103 17.0
126.187 19.0
126.27 16.0
126.354 13.0
126.438 15.0
126.522 12.0
126.605 11.0
126.689 10.0
126.773 15.0
126.856 11.0
126.94 15.0
127.024 14.0
127.108 13.0
127.191 18.0
127.275 17.0
127.359 17.0
127.442 20.0
127.526 29.0
127.61 13.0
127.693 6.0
127.777 12.0
127.861 10.0
127.945 19.0
128.028 13.0
128.112 18.0
128.196 16.0
128.279 12.0
128.363 16.0
128.447 16.0
128.531 12.0
128.614 15.0
128.698 11.0
128.782 19.0
128.865 14.0
128.949 18.0
129.033 16.0
129.116 13.0
129.2 11.0
129.284 11.0
129.368 17.0
129.451 20.0
129.535 17.0
129.619 15.0
129.702 8.0
129.786 12.0
129.87 11.0
129.954 9.0
129.998 23.0