File: data/W6776r/XRD_Omega/scan_omega_4deg_step_0.005deg0_2.xy
22.75560 43.0
22.76060 42.0
22.76560 40.0
22.77060 49.0
22.77560 38.0
22.78060 51.0
22.78560 45.0
22.79060 50.0
22.79560 47.0
22.80060 55.0
22.80560 48.0
22.81060 54.0
22.81560 39.0
22.82060 55.0
22.82560 44.0
22.83060 41.0
22.83560 53.0
22.84060 41.0
22.84560 44.0
22.85060 36.0
22.85560 50.0
22.86060 47.0
22.86560 47.0
22.87060 53.0
22.87560 55.0
22.88060 46.0
22.88560 45.0
22.89060 44.0
22.89560 40.0
22.90060 53.0
22.90560 55.0
22.91060 42.0
22.91560 47.0
22.92060 40.0
22.92560 43.0
22.93060 55.0
22.93560 58.0
22.94060 41.0
22.94560 46.0
22.95060 57.0
22.95560 52.0
22.96060 52.0
22.96560 53.0
22.97060 34.0
22.97560 44.0
22.98060 42.0
22.98560 50.0
22.99060 49.0
22.99560 53.0
23.00060 50.0
23.00560 45.0
23.01060 52.0
23.01560 44.0
23.02060 61.0
23.02560 40.0
23.03060 71.0
23.03560 37.0
23.04060 48.0
23.04560 51.0
23.05060 55.0
23.05560 72.0
23.06060 61.0
23.06560 61.0
23.07060 56.0
23.07560 57.0
23.08060 56.0
23.08560 56.0
23.09060 58.0
23.09560 63.0
23.10060 60.0
23.10560 59.0
23.11060 63.0
23.11560 52.0
23.12060 57.0
23.12560 60.0
23.13060 52.0
23.13560 52.0
23.14060 50.0
23.14560 55.0
23.15060 53.0
23.15560 61.0
23.16060 64.0
23.16560 67.0
23.17060 68.0
23.17560 68.0
23.18060 63.0
23.18560 59.0
23.19060 63.0
23.19560 58.0
23.20060 71.0
23.20560 75.0
23.21060 79.0
23.21560 70.0
23.22060 68.0
23.22560 81.0
23.23060 84.0
23.23560 79.0
23.24060 59.0
23.24560 65.0
23.25060 75.0
23.25560 73.0
23.26060 78.0
23.26560 77.0
23.27060 73.0
23.27560 80.0
23.28060 73.0
23.28560 72.0
23.29060 68.0
23.29560 83.0
23.30060 71.0
23.30560 95.0
23.31060 80.0
23.31560 90.0
23.32060 72.0
23.32560 89.0
23.33060 83.0
23.33560 73.0
23.34060 79.0
23.34560 88.0
23.35060 85.0
23.35560 83.0
23.36060 78.0
23.36560 86.0
23.37060 74.0
23.37560 66.0
23.38060 62.0
23.38560 78.0
23.39060 93.0
23.39560 81.0
23.40060 85.0
23.40560 96.0
23.41060 112.0
23.41560 93.0
23.42060 81.0
23.42560 107.0
23.43060 100.0
23.43560 87.0
23.44060 77.0
23.44560 95.0
23.45060 102.0
23.45560 105.0
23.46060 95.0
23.46560 114.0
23.47060 96.0
23.47560 95.0
23.48060 94.0
23.48560 92.0
23.49060 103.0
23.49560 121.0
23.50060 98.0
23.50560 106.0
23.51060 107.0
23.51560 101.0
23.52060 100.0
23.52560 91.0
23.53060 128.0
23.53560 109.0
23.54060 138.0
23.54560 124.0
23.55060 122.0
23.55560 113.0
23.56060 105.0
23.56560 135.0
23.57060 123.0
23.57560 132.0
23.58060 123.0
23.58560 133.0
23.59060 120.0
23.59560 136.0
23.60060 123.0
23.60560 132.0
23.61060 146.0
23.61560 164.0
23.62060 141.0
23.62560 138.0
23.63060 163.0
23.63560 142.0
23.64060 148.0
23.64560 141.0
23.65060 148.0
23.65560 164.0
23.66060 145.0
23.66560 159.0
23.67060 152.0
23.67560 154.0
23.68060 155.0
23.68560 165.0
23.69060 151.0
23.69560 167.0
23.70060 188.0
23.70560 145.0
23.71060 169.0
23.71560 175.0
23.72060 190.0
23.72560 167.0
23.73060 164.0
23.73560 180.0
23.74060 188.0
23.74560 176.0
23.75060 180.0
23.75560 205.0
23.76060 207.0
23.76560 196.0
23.77060 182.0
23.77560 212.0
23.78060 195.0
23.78560 206.0
23.79060 191.0
23.79560 200.0
23.80060 232.0
23.80560 235.0
23.81060 208.0
23.81560 229.0
23.82060 240.0
23.82560 250.0
23.83060 219.0
23.83560 220.0
23.84060 200.0
23.84560 230.0
23.85060 242.0
23.85560 244.0
23.86060 247.0
23.86560 241.0
23.87060 245.0
23.87560 244.0
23.88060 278.0
23.88560 280.0
23.89060 269.0
23.89560 277.0
23.90060 262.0
23.90560 305.0
23.91060 288.0
23.91560 290.0
23.92060 322.0
23.92560 288.0
23.93060 317.0
23.93560 307.0
23.94060 336.0
23.94560 320.0
23.95060 322.0
23.95560 342.0
23.96060 353.0
23.96560 338.0
23.97060 338.0
23.97560 353.0
23.98060 389.0
23.98560 375.0
23.99060 389.0
23.99560 390.0
24.00060 355.0
24.00560 408.0
24.01060 404.0
24.01560 372.0
24.02060 430.0
24.02560 400.0
24.03060 437.0
24.03560 422.0
24.04060 439.0
24.04560 452.0
24.05060 465.0
24.05560 470.0
24.06060 463.0
24.06560 462.0
24.07060 479.0
24.07560 467.0
24.08060 488.0
24.08560 510.0
24.09060 500.0
24.09560 525.0
24.10060 508.0
24.10560 571.0
24.11060 542.0
24.11560 534.0
24.12060 530.0
24.12560 602.0
24.13060 575.0
24.13560 616.0
24.14060 621.0
24.14560 617.0
24.15060 649.0
24.15560 664.0
24.16060 642.0
24.16560 711.0
24.17060 656.0
24.17560 659.0
24.18060 708.0
24.18560 672.0
24.19060 765.0
24.19560 817.0
24.20060 739.0
24.20560 794.0
24.21060 777.0
24.21560 822.0
24.22060 826.0
24.22560 836.0
24.23060 920.0
24.23560 852.0
24.24060 896.0
24.24560 827.0
24.25060 881.0
24.25560 876.0
24.26060 971.0
24.26560 949.0
24.27060 1004.0
24.27560 964.0
24.28060 1036.0
24.28560 953.0
24.29060 1033.0
24.29560 1049.0
24.30060 1081.0
24.30560 1121.0
24.31060 1163.0
24.31560 1129.0
24.32060 1146.0
24.32560 1157.0
24.33060 1187.0
24.33560 1160.0
24.34060 1209.0
24.34560 1299.0
24.35060 1299.0
24.35560 1345.0
24.36060 1313.0
24.36560 1357.0
24.37060 1356.0
24.37560 1465.0
24.38060 1429.0
24.38560 1451.0
24.39060 1494.0
24.39560 1517.0
24.40060 1578.0
24.40560 1553.0
24.41060 1632.0
24.41560 1630.0
24.42060 1646.0
24.42560 1634.0
24.43060 1683.0
24.43560 1785.0
24.44060 1722.0
24.44560 1757.0
24.45060 1751.0
24.45560 1836.0
24.46060 1883.0
24.46560 1938.0
24.47060 1952.0
24.47560 1990.0
24.48060 1899.0
24.48560 2042.0
24.49060 2027.0
24.49560 2035.0
24.50060 2097.0
24.50560 2093.0
24.51060 2125.0
24.51560 2253.0
24.52060 2290.0
24.52560 2319.0
24.53060 2237.0
24.53560 2366.0
24.54060 2432.0
24.54560 2468.0
24.55060 2422.0
24.55560 2486.0
24.56060 2460.0
24.56560 2419.0
24.57060 2546.0
24.57560 2593.0
24.58060 2560.0
24.58560 2583.0
24.59060 2693.0
24.59560 2668.0
24.60060 2739.0
24.60560 2718.0
24.61060 2665.0
24.61560 2763.0
24.62060 2723.0
24.62560 2702.0
24.63060 2888.0
24.63560 2789.0
24.64060 2829.0
24.64560 2813.0
24.65060 2859.0
24.65560 2882.0
24.66060 2942.0
24.66560 3006.0
24.67060 2945.0
24.67560 2979.0
24.68060 2958.0
24.68560 2960.0
24.69060 2965.0
24.69560 3038.0
24.70060 3049.0
24.70560 3097.0
24.71060 3064.0
24.71560 3002.0
24.72060 3076.0
24.72560 3064.0
24.73060 3171.0
24.73560 3151.0
24.74060 3037.0
24.74560 3165.0
24.75060 3062.0
24.75560 3171.0
24.76060 3093.0
24.76560 3143.0
24.77060 3103.0
24.77560 3078.0
24.78060 3246.0
24.78560 3008.0
24.79060 2962.0
24.79560 3053.0
24.80060 3016.0
24.80560 2985.0
24.81060 2993.0
24.81560 3082.0
24.82060 3001.0
24.82560 2937.0
24.83060 2965.0
24.83560 2932.0
24.84060 2861.0
24.84560 2841.0
24.85060 2869.0
24.85560 2798.0
24.86060 2891.0
24.86560 2868.0
24.87060 2778.0
24.87560 2718.0
24.88060 2675.0
24.88560 2605.0
24.89060 2554.0
24.89560 2573.0
24.90060 2617.0
24.90560 2509.0
24.91060 2517.0
24.91560 2498.0
24.92060 2299.0
24.92560 2365.0
24.93060 2335.0
24.93560 2309.0
24.94060 2277.0
24.94560 2158.0
24.95060 2175.0
24.95560 2181.0
24.96060 2079.0
24.96560 1974.0
24.97060 2004.0
24.97560 1976.0
24.98060 1952.0
24.98560 1942.0
24.99060 1928.0
24.99560 1882.0
25.00060 1846.0
25.00560 1766.0
25.01060 1706.0
25.01560 1735.0
25.02060 1722.0
25.02560 1639.0
25.03060 1640.0
25.03560 1564.0
25.04060 1561.0
25.04560 1609.0
25.05060 1499.0
25.05560 1550.0
25.06060 1512.0
25.06560 1430.0
25.07060 1384.0
25.07560 1374.0
25.08060 1360.0
25.08560 1289.0
25.09060 1273.0
25.09560 1197.0
25.10060 1237.0
25.10560 1110.0
25.11060 1142.0
25.11560 1097.0
25.12060 1032.0
25.12560 1020.0
25.13060 1005.0
25.13560 968.0
25.14060 919.0
25.14560 914.0
25.15060 899.0
25.15560 899.0
25.16060 815.0
25.16560 809.0
25.17060 808.0
25.17560 761.0
25.18060 776.0
25.18560 779.0
25.19060 781.0
25.19560 734.0
25.20060 707.0
25.20560 665.0
25.21060 700.0
25.21560 652.0
25.22060 649.0
25.22560 637.0
25.23060 585.0
25.23560 553.0
25.24060 606.0
25.24560 583.0
25.25060 541.0
25.25560 554.0
25.26060 546.0
25.26560 476.0
25.27060 481.0
25.27560 463.0
25.28060 443.0
25.28560 458.0
25.29060 424.0
25.29560 409.0
25.30060 400.0
25.30560 448.0
25.31060 393.0
25.31560 402.0
25.32060 359.0
25.32560 358.0
25.33060 364.0
25.33560 359.0
25.34060 354.0
25.34560 354.0
25.35060 313.0
25.35560 329.0
25.36060 304.0
25.36560 322.0
25.37060 300.0
25.37560 307.0
25.38060 284.0
25.38560 280.0
25.39060 314.0
25.39560 281.0
25.40060 249.0
25.40560 291.0
25.41060 283.0
25.41560 255.0
25.42060 265.0
25.42560 249.0
25.43060 237.0
25.43560 219.0
25.44060 199.0
25.44560 231.0
25.45060 205.0
25.45560 209.0
25.46060 210.0
25.46560 222.0
25.47060 210.0
25.47560 194.0
25.48060 205.0
25.48560 196.0
25.49060 180.0
25.49560 173.0
25.50060 186.0
25.50560 163.0
25.51060 171.0
25.51560 169.0
25.52060 158.0
25.52560 146.0
25.53060 165.0
25.53560 154.0
25.54060 148.0
25.54560 172.0
25.55060 138.0
25.55560 143.0
25.56060 135.0
25.56560 132.0
25.57060 134.0
25.57560 122.0
25.58060 121.0
25.58560 133.0
25.59060 145.0
25.59560 142.0
25.60060 148.0
25.60560 132.0
25.61060 124.0
25.61560 135.0
25.62060 109.0
25.62560 95.0
25.63060 111.0
25.63560 111.0
25.64060 101.0
25.64560 99.0
25.65060 95.0
25.65560 119.0
25.66060 101.0
25.66560 95.0
25.67060 89.0
25.67560 92.0
25.68060 76.0
25.68560 104.0
25.69060 93.0
25.69560 85.0
25.70060 90.0
25.70560 85.0
25.71060 94.0
25.71560 104.0
25.72060 92.0
25.72560 85.0
25.73060 91.0
25.73560 79.0
25.74060 83.0
25.74560 81.0
25.75060 82.0
25.75560 79.0
25.76060 75.0
25.76560 60.0
25.77060 87.0
25.77560 90.0
25.78060 75.0
25.78560 71.0
25.79060 75.0
25.79560 74.0
25.80060 68.0
25.80560 79.0
25.81060 70.0
25.81560 67.0
25.82060 51.0
25.82560 73.0
25.83060 66.0
25.83560 57.0
25.84060 65.0
25.84560 53.0
25.85060 48.0
25.85560 51.0
25.86060 64.0
25.86560 62.0
25.87060 57.0
25.87560 55.0
25.88060 65.0
25.88560 66.0
25.89060 59.0
25.89560 58.0
25.90060 62.0
25.90560 73.0
25.91060 51.0
25.91560 59.0
25.92060 54.0
25.92560 48.0
25.93060 52.0
25.93560 55.0
25.94060 43.0
25.94560 51.0
25.95060 52.0
25.95560 51.0
25.96060 53.0
25.96560 55.0
25.97060 47.0
25.97560 61.0
25.98060 46.0
25.98560 41.0
25.99060 39.0
25.99560 50.0
26.00060 40.0
26.00560 46.0
26.01060 45.0
26.01560 43.0
26.02060 59.0
26.02560 42.0
26.03060 53.0
26.03560 51.0
26.04060 42.0
26.04560 39.0
26.05060 42.0
26.05560 42.0
26.06060 33.0
26.06560 41.0
26.07060 39.0
26.07560 38.0
26.08060 35.0
26.08560 39.0
26.09060 53.0
26.09560 47.0
26.10060 57.0
26.10560 39.0
26.11060 42.0
26.11560 43.0
26.12060 38.0
26.12560 40.0
26.13060 29.0
26.13560 47.0
26.14060 31.0
26.14560 38.0
26.15060 43.0
26.15560 42.0
26.16060 37.0
26.16560 38.0
26.17060 37.0
26.17560 37.0
26.18060 41.0
26.18560 37.0
26.19060 31.0
26.19560 31.0
26.20060 42.0
26.20560 35.0
26.21060 43.0
26.21560 41.0
26.22060 46.0
26.22560 43.0
26.23060 40.0
26.23560 43.0
26.24060 43.0
26.24560 37.0
26.25060 29.0
26.25560 35.0
26.26060 33.0
26.26560 44.0
26.27060 34.0
26.27560 35.0
26.28060 39.0
26.28560 41.0
26.29060 42.0
26.29560 40.0
26.30060 38.0
26.30560 41.0
26.31060 30.0
26.31560 30.0
26.32060 41.0
26.32560 32.0
26.33060 35.0
26.33560 26.0
26.34060 44.0
26.34560 39.0
26.35060 42.0
26.35560 37.0
26.36060 32.0
26.36560 34.0
26.37060 34.0
26.37560 20.0
26.38060 38.0
26.38560 30.0
26.39060 36.0
26.39560 50.0
26.40060 25.0
26.40560 43.0
26.41060 40.0
26.41560 33.0
26.42060 28.0
26.42560 28.0
26.43060 30.0
26.43560 27.0
26.44060 34.0
26.44560 28.0
26.45060 32.0
26.45560 42.0
26.46060 34.0
26.46560 31.0
26.47060 21.0
26.47560 30.0
26.48060 29.0
26.48560 40.0
26.49060 24.0
26.49560 26.0
26.50060 37.0
26.50560 36.0
26.51060 36.0
26.51560 24.0
26.52060 20.0
26.52560 26.0
26.53060 28.0
26.53560 32.0
26.54060 35.0
26.54560 37.0
26.55060 19.0
26.55560 25.0
26.56060 31.0
26.56560 30.0
26.57060 36.0
26.57560 28.0
26.58060 38.0
26.58560 29.0
26.59060 34.0
26.59560 27.0
26.60060 20.0
26.60560 33.0
26.61060 26.0
26.61560 26.0
26.62060 31.0
26.62560 36.0
26.63060 21.0
26.63560 20.0
26.64060 28.0
26.64560 27.0
26.65060 29.0
26.65560 28.0
26.66060 28.0
26.66560 29.0
26.67060 34.0
26.67560 34.0
26.68060 36.0
26.68560 41.0
26.69060 32.0
26.69560 35.0
26.70060 36.0
26.70560 31.0
26.71060 22.0
26.71560 35.0