File: data/W6715/XRD_Omega/W6715_Cr2O3_scan_omega_2deg_step_0.002deg0_1.xy
31.95590 2132.0
31.95790 2143.0
31.95990 2111.0
31.96190 2270.0
31.96390 2234.0
31.96590 2273.0
31.96790 2189.0
31.96990 2180.0
31.97190 2192.0
31.97390 2156.0
31.97590 2335.0
31.97790 2235.0
31.97990 2249.0
31.98190 2278.0
31.98390 2231.0
31.98590 2274.0
31.98790 2372.0
31.98990 2315.0
31.99190 2366.0
31.99390 2369.0
31.99590 2340.0
31.99790 2340.0
31.99990 2428.0
32.00190 2433.0
32.00390 2333.0
32.00590 2378.0
32.00790 2452.0
32.00990 2498.0
32.01190 2445.0
32.01390 2428.0
32.01590 2544.0
32.01790 2391.0
32.01990 2551.0
32.02190 2501.0
32.02390 2621.0
32.02590 2521.0
32.02790 2612.0
32.02990 2624.0
32.03190 2640.0
32.03390 2642.0
32.03590 2644.0
32.03790 2692.0
32.03990 2624.0
32.04190 2684.0
32.04390 2748.0
32.04590 2656.0
32.04790 2700.0
32.04990 2673.0
32.05190 2808.0
32.05390 2748.0
32.05590 2868.0
32.05790 2755.0
32.05990 2749.0
32.06190 2855.0
32.06390 2784.0
32.06590 2845.0
32.06790 2859.0
32.06990 2862.0
32.07190 2840.0
32.07390 2959.0
32.07590 2967.0
32.07790 2866.0
32.07990 2911.0
32.08190 2928.0
32.08390 2950.0
32.08590 3013.0
32.08790 3074.0
32.08990 3077.0
32.09190 3128.0
32.09390 3097.0
32.09590 3055.0
32.09790 3119.0
32.09990 3147.0
32.10190 3073.0
32.10390 3148.0
32.10590 3070.0
32.10790 3159.0
32.10990 3116.0
32.11190 3309.0
32.11390 3153.0
32.11590 3386.0
32.11790 3372.0
32.11990 3311.0
32.12190 3347.0
32.12390 3246.0
32.12590 3286.0
32.12790 3423.0
32.12990 3392.0
32.13190 3366.0
32.13390 3333.0
32.13590 3442.0
32.13790 3372.0
32.13990 3598.0
32.14190 3454.0
32.14390 3664.0
32.14590 3672.0
32.14790 3547.0
32.14990 3611.0
32.15190 3693.0
32.15390 3588.0
32.15590 3656.0
32.15790 3633.0
32.15990 3708.0
32.16190 3754.0
32.16390 3776.0
32.16590 3729.0
32.16790 3708.0
32.16990 3865.0
32.17190 3829.0
32.17390 3749.0
32.17590 3812.0
32.17790 3723.0
32.17990 3933.0
32.18190 3945.0
32.18390 3942.0
32.18590 3814.0
32.18790 3927.0
32.18990 4086.0
32.19190 4018.0
32.19390 4115.0
32.19590 4051.0
32.19790 4020.0
32.19990 4018.0
32.20190 4080.0
32.20390 4253.0
32.20590 4125.0
32.20790 4195.0
32.20990 4260.0
32.21190 4299.0
32.21390 4319.0
32.21590 4307.0
32.21790 4388.0
32.21990 4269.0
32.22190 4290.0
32.22390 4355.0
32.22590 4471.0
32.22790 4242.0
32.22990 4312.0
32.23190 4467.0
32.23390 4364.0
32.23590 4424.0
32.23790 4481.0
32.23990 4533.0
32.24190 4635.0
32.24390 4568.0
32.24590 4599.0
32.24790 4592.0
32.24990 4700.0
32.25190 4747.0
32.25390 4842.0
32.25590 4769.0
32.25790 4801.0
32.25990 4700.0
32.26190 4874.0
32.26390 4669.0
32.26590 4759.0
32.26790 4908.0
32.26990 4872.0
32.27190 4890.0
32.27390 4935.0
32.27590 4965.0
32.27790 5026.0
32.27990 4911.0
32.28190 5019.0
32.28390 4985.0
32.28590 5062.0
32.28790 5144.0
32.28990 5046.0
32.29190 5084.0
32.29390 5140.0
32.29590 5159.0
32.29790 5123.0
32.29990 5266.0
32.30190 5235.0
32.30390 5405.0
32.30590 5386.0
32.30790 5327.0
32.30990 5515.0
32.31190 5342.0
32.31390 5486.0
32.31590 5455.0
32.31790 5617.0
32.31990 5628.0
32.32190 5537.0
32.32390 5566.0
32.32590 5687.0
32.32790 5607.0
32.32990 5730.0
32.33190 5645.0
32.33390 5691.0
32.33590 5843.0
32.33790 5671.0
32.33990 5733.0
32.34190 5803.0
32.34390 5883.0
32.34590 5908.0
32.34790 5945.0
32.34990 5885.0
32.35190 5922.0
32.35390 5963.0
32.35590 6011.0
32.35790 6106.0
32.35990 6045.0
32.36190 6051.0
32.36390 6094.0
32.36590 6050.0
32.36790 6139.0
32.36990 6201.0
32.37190 6231.0
32.37390 6296.0
32.37590 6362.0
32.37790 6182.0
32.37990 6501.0
32.38190 6391.0
32.38390 6382.0
32.38590 6570.0
32.38790 6696.0
32.38990 6615.0
32.39190 6560.0
32.39390 6554.0
32.39590 6561.0
32.39790 6646.0
32.39990 6561.0
32.40190 6729.0
32.40390 6702.0
32.40590 6721.0
32.40790 6783.0
32.40990 6810.0
32.41190 6835.0
32.41390 6730.0
32.41590 6902.0
32.41790 6990.0
32.41990 6957.0
32.42190 7084.0
32.42390 7104.0
32.42590 6933.0
32.42790 7054.0
32.42990 7113.0
32.43190 7159.0
32.43390 7149.0
32.43590 7151.0
32.43790 7242.0
32.43990 7366.0
32.44190 7311.0
32.44390 7361.0
32.44590 7281.0
32.44790 7394.0
32.44990 7316.0
32.45190 7477.0
32.45390 7538.0
32.45590 7300.0
32.45790 7523.0
32.45990 7467.0
32.46190 7770.0
32.46390 7665.0
32.46590 7552.0
32.46790 7661.0
32.46990 7720.0
32.47190 7601.0
32.47390 7830.0
32.47590 7873.0
32.47790 7895.0
32.47990 7925.0
32.48190 8019.0
32.48390 7937.0
32.48590 7902.0
32.48790 8024.0
32.48990 8009.0
32.49190 8290.0
32.49390 8124.0
32.49590 8106.0
32.49790 8229.0
32.49990 8156.0
32.50190 8186.0
32.50390 8496.0
32.50590 8316.0
32.50790 8374.0
32.50990 8525.0
32.51190 8400.0
32.51390 8344.0
32.51590 8544.0
32.51790 8651.0
32.51990 8534.0
32.52190 8672.0
32.52390 8756.0
32.52590 8707.0
32.52790 8560.0
32.52990 8727.0
32.53190 8713.0
32.53390 8862.0
32.53590 8930.0
32.53790 8866.0
32.53990 8829.0
32.54190 9049.0
32.54390 8834.0
32.54590 9237.0
32.54790 9182.0
32.54990 9036.0
32.55190 9087.0
32.55390 9161.0
32.55590 9241.0
32.55790 9134.0
32.55990 9210.0
32.56190 9329.0
32.56390 9356.0
32.56590 9393.0
32.56790 9327.0
32.56990 9590.0
32.57190 9490.0
32.57390 9462.0
32.57590 9596.0
32.57790 9489.0
32.57990 9559.0
32.58190 9622.0
32.58390 9634.0
32.58590 9557.0
32.58790 9742.0
32.58990 9597.0
32.59190 9713.0
32.59390 9834.0
32.59590 9648.0
32.59790 9713.0
32.59990 9896.0
32.60190 9873.0
32.60390 9971.0
32.60590 9807.0
32.60790 10007.0
32.60990 9941.0
32.61190 9990.0
32.61390 9877.0
32.61590 9972.0
32.61790 10074.0
32.61990 10094.0
32.62190 10242.0
32.62390 10031.0
32.62590 10103.0
32.62790 10374.0
32.62990 10245.0
32.63190 10396.0
32.63390 10296.0
32.63590 10319.0
32.63790 10233.0
32.63990 10458.0
32.64190 10533.0
32.64390 10540.0
32.64590 10744.0
32.64790 10692.0
32.64990 11032.0
32.65190 10722.0
32.65390 10673.0
32.65590 10648.0
32.65790 10733.0
32.65990 10455.0
32.66190 10589.0
32.66390 10726.0
32.66590 10746.0
32.66790 10868.0
32.66990 10843.0
32.67190 10864.0
32.67390 11091.0
32.67590 11059.0
32.67790 10954.0
32.67990 11109.0
32.68190 11131.0
32.68390 11298.0
32.68590 11059.0
32.68790 11262.0
32.68990 11073.0
32.69190 11312.0
32.69390 11189.0
32.69590 11383.0
32.69790 11107.0
32.69990 11213.0
32.70190 11193.0
32.70390 11190.0
32.70590 11256.0
32.70790 11547.0
32.70990 11565.0
32.71190 11663.0
32.71390 11413.0
32.71590 11571.0
32.71790 11401.0
32.71990 11432.0
32.72190 11726.0
32.72390 11820.0
32.72590 11606.0
32.72790 11689.0
32.72990 11645.0
32.73190 11808.0
32.73390 11735.0
32.73590 11917.0
32.73790 11924.0
32.73990 11900.0
32.74190 11772.0
32.74390 11823.0
32.74590 11898.0
32.74790 11961.0
32.74990 11987.0
32.75190 11945.0
32.75390 11941.0
32.75590 12157.0
32.75790 11913.0
32.75990 12026.0
32.76190 12281.0
32.76390 12081.0
32.76590 11900.0
32.76790 12057.0
32.76990 12228.0
32.77190 12210.0
32.77390 12324.0
32.77590 12334.0
32.77790 12438.0
32.77990 12471.0
32.78190 12507.0
32.78390 12340.0
32.78590 12339.0
32.78790 12469.0
32.78990 12545.0
32.79190 12475.0
32.79390 12560.0
32.79590 12187.0
32.79790 12514.0
32.79990 12714.0
32.80190 12425.0
32.80390 12461.0
32.80590 12631.0
32.80790 12739.0
32.80990 12652.0
32.81190 12781.0
32.81390 12779.0
32.81590 12870.0
32.81790 12838.0
32.81990 12509.0
32.82190 12739.0
32.82390 12750.0
32.82590 12688.0
32.82790 12674.0
32.82990 12767.0
32.83190 12852.0
32.83390 12947.0
32.83590 12944.0
32.83790 12937.0
32.83990 13066.0
32.84190 12863.0
32.84390 12683.0
32.84590 12880.0
32.84790 13124.0
32.84990 13137.0
32.85190 13198.0
32.85390 13205.0
32.85590 13069.0
32.85790 13297.0
32.85990 13140.0
32.86190 12933.0
32.86390 13246.0
32.86590 13317.0
32.86790 13086.0
32.86990 13126.0
32.87190 13219.0
32.87390 13111.0
32.87590 13239.0
32.87790 13224.0
32.87990 13262.0
32.88190 13259.0
32.88390 13163.0
32.88590 13031.0
32.88790 12971.0
32.88990 13390.0
32.89190 13334.0
32.89390 13168.0
32.89590 13256.0
32.89790 13224.0
32.89990 13271.0
32.90190 13149.0
32.90390 13224.0
32.90590 13331.0
32.90790 13288.0
32.90990 13470.0
32.91190 13381.0
32.91390 13235.0
32.91590 13268.0
32.91790 13097.0
32.91990 13272.0
32.92190 13385.0
32.92390 13076.0
32.92590 13361.0
32.92790 12922.0
32.92990 13293.0
32.93190 13179.0
32.93390 13326.0
32.93590 13236.0
32.93790 13157.0
32.93990 13343.0
32.94190 13712.0
32.94390 13375.0
32.94590 13260.0
32.94790 13164.0
32.94990 13318.0
32.95190 13171.0
32.95390 13234.0
32.95590 13186.0
32.95790 13272.0
32.95990 13366.0
32.96190 13518.0
32.96390 13387.0
32.96590 13299.0
32.96790 13365.0
32.96990 13373.0
32.97190 13312.0
32.97390 13218.0
32.97590 13391.0
32.97790 13323.0
32.97990 13167.0
32.98190 13112.0
32.98390 13280.0
32.98590 12957.0
32.98790 13343.0
32.98990 13505.0
32.99190 13390.0
32.99390 13414.0
32.99590 13533.0
32.99790 13356.0
32.99990 13322.0
33.00190 13436.0
33.00390 13327.0
33.00590 13255.0
33.00790 13108.0
33.00990 13256.0
33.01190 13238.0
33.01390 13200.0
33.01590 13257.0
33.01790 13083.0
33.01990 13191.0
33.02190 13304.0
33.02390 13108.0
33.02590 13159.0
33.02790 13327.0
33.02990 13221.0
33.03190 13262.0
33.03390 13116.0
33.03590 13269.0
33.03790 13040.0
33.03990 13125.0
33.04190 13108.0
33.04390 13244.0
33.04590 13303.0
33.04790 13130.0
33.04990 13094.0
33.05190 13040.0
33.05390 13143.0
33.05590 13087.0
33.05790 13014.0
33.05990 13241.0
33.06190 13007.0
33.06390 12877.0
33.06590 13095.0
33.06790 12662.0
33.06990 12754.0
33.07190 12755.0
33.07390 12909.0
33.07590 12883.0
33.07790 12755.0
33.07990 12508.0
33.08190 12659.0
33.08390 12581.0
33.08590 12454.0
33.08790 12438.0
33.08990 12604.0
33.09190 12111.0
33.09390 12335.0
33.09590 12366.0
33.09790 12397.0
33.09990 12297.0
33.10190 12160.0
33.10390 12010.0
33.10590 12130.0
33.10790 12127.0
33.10990 12290.0
33.11190 12147.0
33.11390 12203.0
33.11590 11966.0
33.11790 11934.0
33.11990 11874.0
33.12190 11951.0
33.12390 11984.0
33.12590 11942.0
33.12790 11830.0
33.12990 11686.0
33.13190 11911.0
33.13390 11824.0
33.13590 11769.0
33.13790 12016.0
33.13990 11867.0
33.14190 11742.0
33.14390 11759.0
33.14590 11584.0
33.14790 11752.0
33.14990 11394.0
33.15190 11430.0
33.15390 11518.0
33.15590 11612.0
33.15790 11566.0
33.15990 11626.0
33.16190 11456.0
33.16390 11285.0
33.16590 11310.0
33.16790 11349.0
33.16990 11317.0
33.17190 11189.0
33.17390 11480.0
33.17590 11047.0
33.17790 10977.0
33.17990 11233.0
33.18190 11057.0
33.18390 11155.0
33.18590 10946.0
33.18790 10835.0
33.18990 10844.0
33.19190 10881.0
33.19390 10792.0
33.19590 11029.0
33.19790 10484.0
33.19990 10588.0
33.20190 10675.0
33.20390 10702.0
33.20590 10588.0
33.20790 10612.0
33.20990 10424.0
33.21190 10648.0
33.21390 10377.0
33.21590 10482.0
33.21790 10371.0
33.21990 10473.0
33.22190 10278.0
33.22390 10276.0
33.22590 10156.0
33.22790 10084.0
33.22990 10125.0
33.23190 9967.0
33.23390 10100.0
33.23590 10255.0
33.23790 9932.0
33.23990 10052.0
33.24190 9695.0
33.24390 9780.0
33.24590 9674.0
33.24790 9785.0
33.24990 9615.0
33.25190 9981.0
33.25390 9638.0
33.25590 9787.0
33.25790 9485.0
33.25990 9406.0
33.26190 9511.0
33.26390 9603.0
33.26590 9458.0
33.26790 9337.0
33.26990 9212.0
33.27190 9357.0
33.27390 9422.0
33.27590 9121.0
33.27790 8980.0
33.27990 8986.0
33.28190 9222.0
33.28390 9086.0
33.28590 8968.0
33.28790 9020.0
33.28990 9004.0
33.29190 8913.0
33.29390 8951.0
33.29590 8787.0
33.29790 8580.0
33.29990 8489.0
33.30190 8525.0
33.30390 8593.0
33.30590 8551.0
33.30790 8531.0
33.30990 8463.0
33.31190 8534.0
33.31390 8309.0
33.31590 8431.0
33.31790 8352.0
33.31990 8199.0
33.32190 8335.0
33.32390 7939.0
33.32590 8378.0
33.32790 8217.0
33.32990 7983.0
33.33190 7979.0
33.33390 7902.0
33.33590 7836.0
33.33790 7863.0
33.33990 7896.0
33.34190 7910.0
33.34390 7871.0
33.34590 7726.0
33.34790 7686.0
33.34990 7600.0
33.35190 7575.0
33.35390 7477.0
33.35590 7544.0
33.35790 7510.0
33.35990 7569.0
33.36190 7325.0
33.36390 7124.0
33.36590 7410.0
33.36790 7316.0
33.36990 7167.0
33.37190 7193.0
33.37390 7058.0
33.37590 7010.0
33.37790 7046.0
33.37990 7132.0
33.38190 6948.0
33.38390 7016.0
33.38590 6986.0
33.38790 6937.0
33.38990 6702.0
33.39190 6656.0
33.39390 6849.0
33.39590 6736.0
33.39790 6694.0
33.39990 6490.0
33.40190 6516.0
33.40390 6507.0
33.40590 6641.0
33.40790 6480.0
33.40990 6446.0
33.41190 6452.0
33.41390 6506.0
33.41590 6256.0
33.41790 6383.0
33.41990 6239.0
33.42190 6235.0
33.42390 6159.0
33.42590 6167.0
33.42790 6051.0
33.42990 6088.0
33.43190 5972.0
33.43390 5958.0
33.43590 5948.0
33.43790 5948.0
33.43990 5899.0
33.44190 5841.0
33.44390 5770.0
33.44590 5853.0
33.44790 5848.0
33.44990 5768.0
33.45190 5686.0
33.45390 5632.0
33.45590 5607.0
33.45790 5650.0
33.45990 5587.0
33.46190 5512.0
33.46390 5377.0
33.46590 5390.0
33.46790 5404.0
33.46990 5277.0
33.47190 5146.0
33.47390 5484.0
33.47590 5391.0
33.47790 5347.0
33.47990 5245.0
33.48190 5246.0
33.48390 5223.0
33.48590 5211.0
33.48790 5130.0
33.48990 5039.0
33.49190 5125.0
33.49390 5037.0
33.49590 4935.0
33.49790 4944.0
33.49990 4998.0
33.50190 4941.0
33.50390 4837.0
33.50590 4950.0
33.50790 4956.0
33.50990 4801.0
33.51190 4804.0
33.51390 4738.0
33.51590 4706.0
33.51790 4642.0
33.51990 4560.0
33.52190 4687.0
33.52390 4584.0
33.52590 4589.0
33.52790 4600.0
33.52990 4468.0
33.53190 4554.0
33.53390 4506.0
33.53590 4530.0
33.53790 4471.0
33.53990 4463.0
33.54190 4277.0
33.54390 4357.0
33.54590 4363.0
33.54790 4271.0
33.54990 4301.0
33.55190 4196.0
33.55390 4267.0
33.55590 4169.0
33.55790 4221.0
33.55990 4060.0
33.56190 4137.0
33.56390 4076.0
33.56590 3983.0
33.56790 4055.0
33.56990 3972.0
33.57190 4061.0
33.57390 3942.0
33.57590 4010.0
33.57790 3842.0
33.57990 3994.0
33.58190 3982.0
33.58390 3889.0
33.58590 3732.0
33.58790 3846.0
33.58990 3803.0
33.59190 3764.0
33.59390 3773.0
33.59590 3697.0
33.59790 3681.0
33.59990 3758.0
33.60190 3634.0
33.60390 3709.0
33.60590 3625.0
33.60790 3558.0
33.60990 3570.0
33.61190 3492.0
33.61390 3514.0
33.61590 3546.0
33.61790 3444.0
33.61990 3440.0
33.62190 3496.0
33.62390 3441.0
33.62590 3496.0
33.62790 3324.0
33.62990 3357.0
33.63190 3341.0
33.63390 3352.0
33.63590 3361.0
33.63790 3341.0
33.63990 3266.0
33.64190 3219.0
33.64390 3138.0
33.64590 3210.0
33.64790 3277.0
33.64990 3125.0
33.65190 3140.0
33.65390 3181.0
33.65590 3085.0
33.65790 3136.0
33.65990 3151.0
33.66190 3041.0
33.66390 3077.0
33.66590 3088.0
33.66790 2995.0
33.66990 3064.0
33.67190 2987.0
33.67390 2884.0
33.67590 3025.0
33.67790 2861.0
33.67990 2873.0
33.68190 2886.0
33.68390 2979.0
33.68590 2959.0
33.68790 2917.0
33.68990 2927.0
33.69190 2883.0
33.69390 2713.0
33.69590 2846.0
33.69790 2748.0
33.69990 2911.0
33.70190 2743.0
33.70390 2788.0
33.70590 2623.0
33.70790 2706.0
33.70990 2752.0
33.71190 2715.0
33.71390 2683.0
33.71590 2715.0
33.71790 2670.0
33.71990 2705.0
33.72190 2584.0
33.72390 2595.0
33.72590 2625.0
33.72790 2587.0
33.72990 2635.0
33.73190 2567.0
33.73390 2552.0
33.73590 2474.0
33.73790 2500.0
33.73990 2563.0
33.74190 2470.0
33.74390 2516.0
33.74590 2421.0
33.74790 2506.0
33.74990 2465.0
33.75190 2461.0
33.75390 2411.0
33.75590 2379.0
33.75790 2370.0
33.75990 2394.0
33.76190 2392.0
33.76390 2408.0
33.76590 2357.0
33.76790 2366.0
33.76990 2401.0
33.77190 2267.0
33.77390 2286.0
33.77590 2335.0
33.77790 2280.0
33.77990 2205.0
33.78190 2231.0
33.78390 2312.0
33.78590 2258.0
33.78790 2196.0
33.78990 2123.0
33.79190 2233.0
33.79390 2115.0
33.79590 2140.0
33.79790 2136.0
33.79990 2157.0
33.80190 2094.0
33.80390 2037.0
33.80590 2115.0
33.80790 2057.0
33.80990 1982.0
33.81190 2069.0
33.81390 2052.0
33.81590 2063.0
33.81790 2056.0
33.81990 2102.0
33.82190 2014.0
33.82390 2004.0
33.82590 2065.0
33.82790 1923.0
33.82990 1994.0
33.83190 1929.0
33.83390 1964.0
33.83590 2005.0
33.83790 1962.0
33.83990 1937.0
33.84190 1948.0
33.84390 1905.0
33.84590 1907.0
33.84790 1915.0
33.84990 1942.0
33.85190 1893.0
33.85390 1909.0
33.85590 1816.0
33.85790 1780.0
33.85990 1831.0
33.86190 1895.0
33.86390 1838.0
33.86590 1789.0
33.86790 1761.0
33.86990 1734.0
33.87190 1692.0
33.87390 1719.0
33.87590 1824.0
33.87790 1724.0
33.87990 1737.0
33.88190 1754.0
33.88390 1657.0
33.88590 1714.0
33.88790 1671.0
33.88990 1717.0
33.89190 1705.0
33.89390 1696.0
33.89590 1718.0
33.89790 1694.0
33.89990 1728.0
33.90190 1682.0
33.90390 1625.0
33.90590 1573.0
33.90790 1626.0
33.90990 1623.0
33.91190 1564.0
33.91390 1592.0
33.91590 1579.0
33.91790 1545.0
33.91990 1574.0
33.92190 1609.0
33.92390 1530.0
33.92590 1478.0
33.92790 1537.0
33.92990 1472.0
33.93190 1514.0
33.93390 1503.0
33.93590 1514.0
33.93790 1563.0
33.93990 1475.0