File: data/W6900c/XRD_2ThetaOmega/scan_2th-om_c_Cr2O3_35-45deg_PIXscan_4min_C1.xy
35.0021 166.0
35.0119 149.0
35.0218 169.0
35.0316 182.0
35.0415 160.0
35.0513 171.0
35.0611 183.0
35.071 153.0
35.0808 163.0
35.0907 165.0
35.1005 171.0
35.1104 187.0
35.1202 173.0
35.1301 189.0
35.1399 179.0
35.1498 149.0
35.1596 182.0
35.1695 146.0
35.1793 182.0
35.1892 165.0
35.199 162.0
35.2089 162.0
35.2187 185.0
35.2286 179.0
35.2384 164.0
35.2483 170.0
35.2581 172.0
35.268 152.0
35.2778 162.0
35.2876 158.0
35.2975 157.0
35.3073 159.0
35.3172 175.0
35.327 179.0
35.3369 180.0
35.3467 169.0
35.3566 172.0
35.3664 171.0
35.3763 166.0
35.3861 154.0
35.396 177.0
35.4058 162.0
35.4157 158.0
35.4255 176.0
35.4354 172.0
35.4452 146.0
35.4551 166.0
35.4649 150.0
35.4748 153.0
35.4846 153.0
35.4944 178.0
35.5043 155.0
35.5141 160.0
35.524 181.0
35.5338 155.0
35.5437 175.0
35.5535 162.0
35.5634 151.0
35.5732 165.0
35.5831 167.0
35.5929 180.0
35.6028 145.0
35.6126 151.0
35.6225 160.0
35.6323 171.0
35.6422 183.0
35.652 163.0
35.6619 160.0
35.6717 151.0
35.6816 179.0
35.6914 152.0
35.7012 187.0
35.7111 161.0
35.7209 151.0
35.7308 164.0
35.7406 161.0
35.7505 152.0
35.7603 169.0
35.7702 164.0
35.78 176.0
35.7899 162.0
35.7997 180.0
35.8096 183.0
35.8194 159.0
35.8293 152.0
35.8391 148.0
35.849 157.0
35.8588 166.0
35.8687 159.0
35.8785 148.0
35.8884 164.0
35.8982 170.0
35.9081 170.0
35.9179 162.0
35.9277 149.0
35.9376 157.0
35.9474 166.0
35.9573 157.0
35.9671 161.0
35.977 182.0
35.9868 168.0
35.9967 184.0
36.0065 167.0
36.0164 165.0
36.0262 163.0
36.0361 159.0
36.0459 173.0
36.0558 171.0
36.0656 167.0
36.0755 182.0
36.0853 171.0
36.0952 168.0
36.105 163.0
36.1149 166.0
36.1247 162.0
36.1345 160.0
36.1444 164.0
36.1542 161.0
36.1641 173.0
36.1739 171.0
36.1838 185.0
36.1936 162.0
36.2035 150.0
36.2133 158.0
36.2232 180.0
36.233 165.0
36.2429 170.0
36.2527 173.0
36.2626 137.0
36.2724 164.0
36.2823 168.0
36.2921 155.0
36.302 167.0
36.3118 166.0
36.3217 168.0
36.3315 172.0
36.3414 152.0
36.3512 185.0
36.361 148.0
36.3709 150.0
36.3807 169.0
36.3906 151.0
36.4004 154.0
36.4103 164.0
36.4201 169.0
36.43 152.0
36.4398 160.0
36.4497 162.0
36.4595 178.0
36.4694 182.0
36.4792 184.0
36.4891 161.0
36.4989 170.0
36.5088 187.0
36.5186 155.0
36.5285 151.0
36.5383 160.0
36.5482 158.0
36.558 152.0
36.5678 176.0
36.5777 163.0
36.5875 146.0
36.5974 155.0
36.6072 159.0
36.6171 152.0
36.6269 153.0
36.6368 144.0
36.6466 150.0
36.6565 175.0
36.6663 184.0
36.6762 152.0
36.686 157.0
36.6959 160.0
36.7057 174.0
36.7156 159.0
36.7254 159.0
36.7353 156.0
36.7451 150.0
36.755 147.0
36.7648 153.0
36.7747 170.0
36.7845 186.0
36.7943 167.0
36.8042 166.0
36.814 152.0
36.8239 155.0
36.8337 163.0
36.8436 180.0
36.8534 167.0
36.8633 149.0
36.8731 188.0
36.883 179.0
36.8928 167.0
36.9027 142.0
36.9125 186.0
36.9224 165.0
36.9322 163.0
36.9421 151.0
36.9519 156.0
36.9618 140.0
36.9716 164.0
36.9815 172.0
36.9913 152.0
37.0011 176.0
37.011 160.0
37.0208 140.0
37.0307 171.0
37.0405 190.0
37.0504 166.0
37.0602 179.0
37.0701 172.0
37.0799 180.0
37.0898 186.0
37.0996 170.0
37.1095 153.0
37.1193 174.0
37.1292 167.0
37.139 180.0
37.1489 157.0
37.1587 170.0
37.1686 181.0
37.1784 150.0
37.1883 159.0
37.1981 170.0
37.2079 169.0
37.2178 179.0
37.2276 160.0
37.2375 146.0
37.2473 155.0
37.2572 152.0
37.267 188.0
37.2769 168.0
37.2867 147.0
37.2966 127.0
37.3064 178.0
37.3163 166.0
37.3261 141.0
37.336 164.0
37.3458 178.0
37.3557 170.0
37.3655 181.0
37.3754 193.0
37.3852 199.0
37.3951 182.0
37.4049 263.0
37.4148 318.0
37.4246 348.0
37.4344 366.0
37.4443 372.0
37.4541 377.0
37.464 325.0
37.4738 290.0
37.4837 217.0
37.4935 181.0
37.5034 184.0
37.5132 172.0
37.5231 154.0
37.5329 177.0
37.5428 186.0
37.5526 170.0
37.5625 174.0
37.5723 169.0
37.5822 184.0
37.592 166.0
37.6019 189.0
37.6117 188.0
37.6216 165.0
37.6314 191.0
37.6412 154.0
37.6511 179.0
37.6609 180.0
37.6708 171.0
37.6806 173.0
37.6905 161.0
37.7003 186.0
37.7102 192.0
37.72 158.0
37.7299 162.0
37.7397 170.0
37.7496 178.0
37.7594 174.0
37.7693 191.0
37.7791 166.0
37.789 178.0
37.7988 153.0
37.8087 185.0
37.8185 165.0
37.8284 170.0
37.8382 181.0
37.8481 159.0
37.8579 169.0
37.8677 190.0
37.8776 211.0
37.8874 164.0
37.8973 168.0
37.9071 187.0
37.917 168.0
37.9268 195.0
37.9367 186.0
37.9465 185.0
37.9564 177.0
37.9662 185.0
37.9761 188.0
37.9859 174.0
37.9958 186.0
38.0056 180.0
38.0155 198.0
38.0253 196.0
38.0352 197.0
38.045 190.0
38.0549 214.0
38.0647 192.0
38.0745 203.0
38.0844 191.0
38.0942 197.0
38.1041 195.0
38.1139 220.0
38.1238 215.0
38.1336 215.0
38.1435 232.0
38.1533 244.0
38.1632 236.0
38.173 214.0
38.1829 208.0
38.1927 224.0
38.2026 222.0
38.2124 212.0
38.2223 242.0
38.2321 240.0
38.242 225.0
38.2518 248.0
38.2617 226.0
38.2715 269.0
38.2814 237.0
38.2912 285.0
38.301 269.0
38.3109 245.0
38.3207 268.0
38.3306 260.0
38.3404 246.0
38.3503 273.0
38.3601 260.0
38.37 280.0
38.3798 281.0
38.3897 287.0
38.3995 275.0
38.4094 250.0
38.4192 270.0
38.4291 296.0
38.4389 277.0
38.4488 302.0
38.4586 284.0
38.4685 314.0
38.4783 285.0
38.4882 319.0
38.498 327.0
38.5078 281.0
38.5177 338.0
38.5275 298.0
38.5374 332.0
38.5472 325.0
38.5571 362.0
38.5669 347.0
38.5768 334.0
38.5866 331.0
38.5965 356.0
38.6063 315.0
38.6162 325.0
38.626 352.0
38.6359 337.0
38.6457 358.0
38.6556 399.0
38.6654 358.0
38.6753 374.0
38.6851 393.0
38.695 379.0
38.7048 353.0
38.7146 395.0
38.7245 378.0
38.7343 380.0
38.7442 389.0
38.754 376.0
38.7639 366.0
38.7737 411.0
38.7836 433.0
38.7934 413.0
38.8033 414.0
38.8131 417.0
38.823 398.0
38.8328 429.0
38.8427 440.0
38.8525 412.0
38.8624 399.0
38.8722 436.0
38.8821 415.0
38.8919 402.0
38.9018 433.0
38.9116 405.0
38.9215 424.0
38.9313 470.0
38.9411 435.0
38.951 415.0
38.9608 450.0
38.9707 412.0
38.9805 458.0
38.9904 449.0
39.0002 399.0
39.0101 425.0
39.0199 414.0
39.0298 409.0
39.0396 406.0
39.0495 420.0
39.0593 412.0
39.0692 425.0
39.079 435.0
39.0889 374.0
39.0987 383.0
39.1086 394.0
39.1184 406.0
39.1283 396.0
39.1381 410.0
39.1479 374.0
39.1578 371.0
39.1676 365.0
39.1775 368.0
39.1873 400.0
39.1972 352.0
39.207 369.0
39.2169 371.0
39.2267 390.0
39.2366 333.0
39.2464 334.0
39.2563 333.0
39.2661 304.0
39.276 306.0
39.2858 296.0
39.2957 293.0
39.3055 326.0
39.3154 333.0
39.3252 318.0
39.3351 282.0
39.3449 283.0
39.3548 283.0
39.3646 287.0
39.3744 322.0
39.3843 301.0
39.3941 272.0
39.404 260.0
39.4138 293.0
39.4237 284.0
39.4335 269.0
39.4434 248.0
39.4532 270.0
39.4631 239.0
39.4729 238.0
39.4828 229.0
39.4926 212.0
39.5025 219.0
39.5123 233.0
39.5222 239.0
39.532 233.0
39.5419 232.0
39.5517 227.0
39.5616 212.0
39.5714 216.0
39.5812 198.0
39.5911 224.0
39.6009 207.0
39.6108 193.0
39.6206 207.0
39.6305 231.0
39.6403 198.0
39.6502 202.0
39.66 197.0
39.6699 190.0
39.6797 195.0
39.6896 220.0
39.6994 220.0
39.7093 174.0
39.7191 203.0
39.729 213.0
39.7388 177.0
39.7487 192.0
39.7585 181.0
39.7684 177.0
39.7782 187.0
39.788 192.0
39.7979 200.0
39.8077 167.0
39.8176 182.0
39.8274 187.0
39.8373 178.0
39.8471 218.0
39.857 193.0
39.8668 165.0
39.8767 176.0
39.8865 175.0
39.8964 176.0
39.9062 188.0
39.9161 192.0
39.9259 158.0
39.9358 168.0
39.9456 180.0
39.9555 203.0
39.9653 166.0
39.9752 172.0
39.985 197.0
39.9949 190.0
40.0047 160.0
40.0145 183.0
40.0244 169.0
40.0342 191.0
40.0441 165.0
40.0539 171.0
40.0638 183.0
40.0736 183.0
40.0835 157.0
40.0933 195.0
40.1032 182.0
40.113 199.0
40.1229 186.0
40.1327 180.0
40.1426 171.0
40.1524 175.0
40.1623 169.0
40.1721 167.0
40.182 179.0
40.1918 160.0
40.2017 189.0
40.2115 195.0
40.2213 187.0
40.2312 151.0
40.241 155.0
40.2509 187.0
40.2607 188.0
40.2706 162.0
40.2804 179.0
40.2903 168.0
40.3001 176.0
40.31 172.0
40.3198 160.0
40.3297 168.0
40.3395 168.0
40.3494 168.0
40.3592 191.0
40.3691 202.0
40.3789 164.0
40.3888 164.0
40.3986 182.0
40.4085 195.0
40.4183 188.0
40.4282 185.0
40.438 185.0
40.4478 183.0
40.4577 198.0
40.4675 206.0
40.4774 167.0
40.4872 146.0
40.4971 187.0
40.5069 193.0
40.5168 183.0
40.5266 160.0
40.5365 166.0
40.5463 172.0
40.5562 190.0
40.566 170.0
40.5759 185.0
40.5857 170.0
40.5956 201.0
40.6054 192.0
40.6153 186.0
40.6251 192.0
40.635 207.0
40.6448 168.0
40.6546 169.0
40.6645 171.0
40.6743 201.0
40.6842 201.0
40.694 159.0
40.7039 168.0
40.7137 205.0
40.7236 190.0
40.7334 216.0
40.7433 209.0
40.7531 217.0
40.763 196.0
40.7728 201.0
40.7827 214.0
40.7925 181.0
40.8024 181.0
40.8122 198.0
40.8221 205.0
40.8319 192.0
40.8418 216.0
40.8516 219.0
40.8615 199.0
40.8713 234.0
40.8811 212.0
40.891 213.0
40.9008 271.0
40.9107 201.0
40.9205 202.0
40.9304 235.0
40.9402 200.0
40.9501 211.0
40.9599 224.0
40.9698 263.0
40.9796 202.0
40.9895 228.0
40.9993 215.0
41.0092 237.0
41.019 210.0
41.0289 266.0
41.0387 223.0
41.0486 296.0
41.0584 265.0
41.0683 287.0
41.0781 227.0
41.0879 227.0
41.0978 225.0
41.1076 265.0
41.1175 282.0
41.1273 283.0
41.1372 264.0
41.147 271.0
41.1569 266.0
41.1667 273.0
41.1766 307.0
41.1864 303.0
41.1963 319.0
41.2061 294.0
41.216 296.0
41.2258 335.0
41.2357 315.0
41.2455 320.0
41.2554 329.0
41.2652 311.0
41.2751 319.0
41.2849 354.0
41.2947 348.0
41.3046 379.0
41.3144 380.0
41.3243 380.0
41.3341 400.0
41.344 452.0
41.3538 491.0
41.3637 503.0
41.3735 544.0
41.3834 587.0
41.3932 707.0
41.4031 804.0
41.4129 891.0
41.4228 932.0
41.4326 1003.0
41.4425 1008.0
41.4523 1038.0
41.4622 959.0
41.472 901.0
41.4819 1069.0
41.4917 1102.0
41.5016 1162.0
41.5114 1391.0
41.5212 1720.0
41.5311 2124.0
41.5409 2767.0
41.5508 4141.0
41.5606 7287.0
41.5705 14041.0
41.5803 27573.0
41.5902 44474.0
41.6 57736.0
41.6099 64740.0
41.6197 65665.0
41.6296 60036.0
41.6394 40615.0
41.6493 19958.0
41.6591 10601.0
41.669 8041.0
41.6788 9894.0
41.6887 15754.0
41.6985 23647.0
41.7084 29495.0
41.7182 32342.0
41.728 32497.0
41.7379 29046.0
41.7477 19898.0
41.7576 10522.0
41.7674 5186.0
41.7773 3050.0
41.7871 2023.0
41.797 1679.0
41.8068 1320.0
41.8167 1086.0
41.8265 1006.0
41.8364 864.0
41.8462 851.0
41.8561 713.0
41.8659 681.0
41.8758 636.0
41.8856 586.0
41.8955 516.0
41.9053 515.0
41.9152 464.0
41.925 460.0
41.9349 463.0
41.9447 435.0
41.9545 386.0
41.9644 413.0
41.9742 387.0
41.9841 385.0
41.9939 394.0
42.0038 331.0
42.0136 355.0
42.0235 309.0
42.0333 332.0
42.0432 330.0
42.053 316.0
42.0629 297.0
42.0727 308.0
42.0826 305.0
42.0924 328.0
42.1023 304.0
42.1121 282.0
42.122 269.0
42.1318 267.0
42.1417 305.0
42.1515 232.0
42.1613 261.0
42.1712 224.0
42.181 276.0
42.1909 229.0
42.2007 223.0
42.2106 256.0
42.2204 240.0
42.2303 255.0
42.2401 191.0
42.25 227.0
42.2598 207.0
42.2697 232.0
42.2795 225.0
42.2894 210.0
42.2992 200.0
42.3091 207.0
42.3189 207.0
42.3288 179.0
42.3386 214.0
42.3485 206.0
42.3583 211.0
42.3682 202.0
42.378 174.0
42.3878 207.0
42.3977 189.0
42.4075 211.0
42.4174 181.0
42.4272 188.0
42.4371 191.0
42.4469 169.0
42.4568 180.0
42.4666 186.0
42.4765 181.0
42.4863 186.0
42.4962 185.0
42.506 189.0
42.5159 188.0
42.5257 195.0
42.5356 178.0
42.5454 185.0
42.5553 188.0
42.5651 189.0
42.575 157.0
42.5848 185.0
42.5946 169.0
42.6045 168.0
42.6143 163.0
42.6242 183.0
42.634 180.0
42.6439 169.0
42.6537 171.0
42.6636 200.0
42.6734 193.0
42.6833 144.0
42.6931 192.0
42.703 168.0
42.7128 188.0
42.7227 146.0
42.7325 168.0
42.7424 191.0
42.7522 175.0
42.7621 159.0
42.7719 192.0
42.7818 160.0
42.7916 169.0
42.8014 191.0
42.8113 163.0
42.8211 145.0
42.831 189.0
42.8408 159.0
42.8507 152.0
42.8605 183.0
42.8704 161.0
42.8802 155.0
42.8901 185.0
42.8999 155.0
42.9098 176.0
42.9196 176.0
42.9295 165.0
42.9393 167.0
42.9492 180.0
42.959 179.0
42.9689 174.0
42.9787 155.0
42.9886 163.0
42.9984 150.0
43.0083 151.0
43.0181 172.0
43.0279 182.0
43.0378 167.0
43.0476 158.0
43.0575 136.0
43.0673 161.0
43.0772 177.0
43.087 143.0
43.0969 166.0
43.1067 180.0
43.1166 169.0
43.1264 163.0
43.1363 171.0
43.1461 173.0
43.156 169.0
43.1658 157.0
43.1757 153.0
43.1855 171.0
43.1954 164.0
43.2052 176.0
43.2151 173.0
43.2249 181.0
43.2347 175.0
43.2446 150.0
43.2544 167.0
43.2643 157.0
43.2741 171.0
43.284 166.0
43.2938 160.0
43.3037 156.0
43.3135 147.0
43.3234 174.0
43.3332 156.0
43.3431 165.0
43.3529 138.0
43.3628 173.0
43.3726 156.0
43.3825 170.0
43.3923 169.0
43.4022 170.0
43.412 163.0
43.4219 165.0
43.4317 156.0
43.4416 165.0
43.4514 158.0
43.4612 153.0
43.4711 178.0
43.4809 177.0
43.4908 168.0
43.5006 176.0
43.5105 171.0
43.5203 144.0
43.5302 159.0
43.54 168.0
43.5499 154.0
43.5597 167.0
43.5696 169.0
43.5794 170.0
43.5893 136.0
43.5991 171.0
43.609 163.0
43.6188 167.0
43.6287 175.0
43.6385 153.0
43.6484 172.0
43.6582 166.0
43.668 164.0
43.6779 151.0
43.6877 174.0
43.6976 168.0
43.7074 170.0
43.7173 161.0
43.7271 189.0
43.737 157.0
43.7468 159.0
43.7567 157.0
43.7665 161.0
43.7764 182.0
43.7862 173.0
43.7961 192.0
43.8059 177.0
43.8158 163.0
43.8256 166.0
43.8355 165.0
43.8453 175.0
43.8552 169.0
43.865 161.0
43.8749 179.0
43.8847 166.0
43.8945 211.0
43.9044 175.0
43.9142 181.0
43.9241 185.0
43.9339 196.0
43.9438 196.0
43.9536 186.0
43.9635 188.0
43.9733 199.0
43.9832 179.0
43.993 195.0
44.0029 171.0
44.0127 179.0
44.0226 182.0
44.0324 181.0
44.0423 198.0
44.0521 181.0
44.062 191.0
44.0718 185.0
44.0817 208.0
44.0915 199.0
44.1013 210.0
44.1112 175.0
44.121 186.0
44.1309 216.0
44.1407 221.0
44.1506 235.0
44.1604 221.0
44.1703 213.0
44.1801 223.0
44.19 210.0
44.1998 219.0
44.2097 265.0
44.2195 247.0
44.2294 216.0
44.2392 215.0
44.2491 260.0
44.2589 287.0
44.2688 284.0
44.2786 262.0
44.2885 277.0
44.2983 281.0
44.3081 311.0
44.318 296.0
44.3278 339.0
44.3377 336.0
44.3475 342.0
44.3574 397.0
44.3672 388.0
44.3771 392.0
44.3869 367.0
44.3968 363.0
44.4066 392.0
44.4165 374.0
44.4263 360.0
44.4362 377.0
44.446 349.0
44.4559 385.0
44.4657 380.0
44.4756 343.0
44.4854 343.0
44.4953 364.0
44.5051 332.0
44.515 329.0
44.5248 294.0
44.5346 302.0
44.5445 317.0
44.5543 298.0
44.5642 255.0
44.574 234.0
44.5839 277.0
44.5937 268.0
44.6036 269.0
44.6134 257.0
44.6233 235.0
44.6331 232.0
44.643 227.0
44.6528 214.0
44.6627 233.0
44.6725 210.0
44.6824 224.0
44.6922 217.0
44.7021 189.0
44.7119 207.0
44.7218 176.0
44.7316 181.0
44.7414 177.0
44.7513 163.0
44.7611 196.0
44.771 167.0
44.7808 191.0
44.7907 165.0
44.8005 202.0
44.8104 167.0
44.8202 183.0
44.8301 163.0
44.8399 173.0
44.8498 166.0
44.8596 171.0
44.8695 171.0
44.8793 181.0
44.8892 182.0
44.899 185.0
44.9089 187.0
44.9187 158.0
44.9286 167.0
44.9384 184.0
44.9483 182.0
44.9581 162.0
44.9679 179.0
44.9778 178.0
44.9876 177.0
44.9975 155.0