File: data/W6788m/XRD_Omega/W6788m_Cr2O3_scan_omega_2deg_step_0.002deg0_15.xy
31.98690 1289.0
31.98890 1365.0
31.99090 1347.0
31.99290 1356.0
31.99490 1356.0
31.99690 1389.0
31.99890 1291.0
32.00090 1356.0
32.00290 1448.0
32.00490 1283.0
32.00690 1385.0
32.00890 1385.0
32.01090 1381.0
32.01290 1383.0
32.01490 1429.0
32.01690 1378.0
32.01890 1406.0
32.02090 1386.0
32.02290 1437.0
32.02490 1516.0
32.02690 1467.0
32.02890 1440.0
32.03090 1421.0
32.03290 1355.0
32.03490 1491.0
32.03690 1431.0
32.03890 1413.0
32.04090 1461.0
32.04290 1436.0
32.04490 1441.0
32.04690 1553.0
32.04890 1497.0
32.05090 1497.0
32.05290 1517.0
32.05490 1519.0
32.05690 1553.0
32.05890 1586.0
32.06090 1517.0
32.06290 1652.0
32.06490 1625.0
32.06690 1574.0
32.06890 1587.0
32.07090 1610.0
32.07290 1606.0
32.07490 1598.0
32.07690 1569.0
32.07890 1604.0
32.08090 1565.0
32.08290 1654.0
32.08490 1632.0
32.08690 1669.0
32.08890 1572.0
32.09090 1652.0
32.09290 1692.0
32.09490 1719.0
32.09690 1737.0
32.09890 1771.0
32.10090 1695.0
32.10290 1672.0
32.10490 1692.0
32.10690 1680.0
32.10890 1696.0
32.11090 1749.0
32.11290 1753.0
32.11490 1635.0
32.11690 1744.0
32.11890 1706.0
32.12090 1737.0
32.12290 1701.0
32.12490 1679.0
32.12690 1789.0
32.12890 1761.0
32.13090 1738.0
32.13290 1769.0
32.13490 1781.0
32.13690 1818.0
32.13890 1845.0
32.14090 1794.0
32.14290 1853.0
32.14490 1778.0
32.14690 1801.0
32.14890 1812.0
32.15090 1761.0
32.15290 1886.0
32.15490 1876.0
32.15690 1905.0
32.15890 1955.0
32.16090 1914.0
32.16290 1787.0
32.16490 1799.0
32.16690 1848.0
32.16890 1892.0
32.17090 1988.0
32.17290 1996.0
32.17490 1949.0
32.17690 1941.0
32.17890 1986.0
32.18090 1943.0
32.18290 2003.0
32.18490 2024.0
32.18690 2002.0
32.18890 2082.0
32.19090 2011.0
32.19290 2043.0
32.19490 2066.0
32.19690 2008.0
32.19890 2094.0
32.20090 2181.0
32.20290 2106.0
32.20490 2064.0
32.20690 2188.0
32.20890 2146.0
32.21090 2183.0
32.21290 2047.0
32.21490 2077.0
32.21690 2264.0
32.21890 2212.0
32.22090 2203.0
32.22290 2222.0
32.22490 2155.0
32.22690 2137.0
32.22890 2236.0
32.23090 2227.0
32.23290 2220.0
32.23490 2244.0
32.23690 2125.0
32.23890 2236.0
32.24090 2304.0
32.24290 2305.0
32.24490 2349.0
32.24690 2408.0
32.24890 2291.0
32.25090 2329.0
32.25290 2366.0
32.25490 2370.0
32.25690 2447.0
32.25890 2461.0
32.26090 2423.0
32.26290 2412.0
32.26490 2341.0
32.26690 2381.0
32.26890 2387.0
32.27090 2501.0
32.27290 2570.0
32.27490 2477.0
32.27690 2495.0
32.27890 2434.0
32.28090 2548.0
32.28290 2520.0
32.28490 2538.0
32.28690 2578.0
32.28890 2561.0
32.29090 2620.0
32.29290 2585.0
32.29490 2658.0
32.29690 2598.0
32.29890 2668.0
32.30090 2716.0
32.30290 2743.0
32.30490 2661.0
32.30690 2693.0
32.30890 2743.0
32.31090 2734.0
32.31290 2767.0
32.31490 2761.0
32.31690 2777.0
32.31890 2825.0
32.32090 2799.0
32.32290 2826.0
32.32490 2788.0
32.32690 2706.0
32.32890 2885.0
32.33090 2921.0
32.33290 2871.0
32.33490 2951.0
32.33690 2903.0
32.33890 2975.0
32.34090 2970.0
32.34290 2940.0
32.34490 2977.0
32.34690 3067.0
32.34890 2918.0
32.35090 3035.0
32.35290 2915.0
32.35490 3016.0
32.35690 2959.0
32.35890 3155.0
32.36090 3154.0
32.36290 3043.0
32.36490 3120.0
32.36690 3179.0
32.36890 3280.0
32.37090 3311.0
32.37290 3222.0
32.37490 3223.0
32.37690 3223.0
32.37890 3294.0
32.38090 3250.0
32.38290 3333.0
32.38490 3377.0
32.38690 3344.0
32.38890 3310.0
32.39090 3479.0
32.39290 3359.0
32.39490 3461.0
32.39690 3453.0
32.39890 3464.0
32.40090 3408.0
32.40290 3484.0
32.40490 3481.0
32.40690 3514.0
32.40890 3562.0
32.41090 3613.0
32.41290 3605.0
32.41490 3550.0
32.41690 3670.0
32.41890 3611.0
32.42090 3694.0
32.42290 3699.0
32.42490 3754.0
32.42690 3793.0
32.42890 3648.0
32.43090 3792.0
32.43290 3704.0
32.43490 3750.0
32.43690 3868.0
32.43890 3775.0
32.44090 3940.0
32.44290 3849.0
32.44490 4035.0
32.44690 3914.0
32.44890 3983.0
32.45090 3895.0
32.45290 3978.0
32.45490 3976.0
32.45690 3983.0
32.45890 4064.0
32.46090 4146.0
32.46290 4076.0
32.46490 4145.0
32.46690 4119.0
32.46890 4111.0
32.47090 4199.0
32.47290 4209.0
32.47490 4145.0
32.47690 4132.0
32.47890 4380.0
32.48090 4338.0
32.48290 4203.0
32.48490 4343.0
32.48690 4348.0
32.48890 4460.0
32.49090 4402.0
32.49290 4414.0
32.49490 4564.0
32.49690 4561.0
32.49890 4533.0
32.50090 4610.0
32.50290 4550.0
32.50490 4594.0
32.50690 4747.0
32.50890 4720.0
32.51090 4628.0
32.51290 4816.0
32.51490 4715.0
32.51690 4640.0
32.51890 4800.0
32.52090 4802.0
32.52290 4837.0
32.52490 4812.0
32.52690 5006.0
32.52890 4889.0
32.53090 4920.0
32.53290 4954.0
32.53490 5064.0
32.53690 4953.0
32.53890 5117.0
32.54090 5112.0
32.54290 5102.0
32.54490 5102.0
32.54690 5250.0
32.54890 5167.0
32.55090 5333.0
32.55290 5226.0
32.55490 5148.0
32.55690 5351.0
32.55890 5467.0
32.56090 5394.0
32.56290 5409.0
32.56490 5536.0
32.56690 5431.0
32.56890 5422.0
32.57090 5474.0
32.57290 5639.0
32.57490 5619.0
32.57690 5664.0
32.57890 5680.0
32.58090 5804.0
32.58290 5721.0
32.58490 5839.0
32.58690 5882.0
32.58890 5805.0
32.59090 5864.0
32.59290 5818.0
32.59490 5997.0
32.59690 6005.0
32.59890 5929.0
32.60090 6093.0
32.60290 5848.0
32.60490 6183.0
32.60690 6033.0
32.60890 6169.0
32.61090 6101.0
32.61290 6169.0
32.61490 6184.0
32.61690 6276.0
32.61890 6148.0
32.62090 6200.0
32.62290 6314.0
32.62490 6569.0
32.62690 6541.0
32.62890 6498.0
32.63090 6564.0
32.63290 6474.0
32.63490 6540.0
32.63690 6592.0
32.63890 6684.0
32.64090 6711.0
32.64290 6862.0
32.64490 6707.0
32.64690 6777.0
32.64890 6799.0
32.65090 6780.0
32.65290 6821.0
32.65490 7084.0
32.65690 6858.0
32.65890 6862.0
32.66090 7018.0
32.66290 6994.0
32.66490 6905.0
32.66690 6998.0
32.66890 7195.0
32.67090 7151.0
32.67290 7116.0
32.67490 7287.0
32.67690 7182.0
32.67890 7215.0
32.68090 7225.0
32.68290 7436.0
32.68490 7472.0
32.68690 7355.0
32.68890 7261.0
32.69090 7301.0
32.69290 7301.0
32.69490 7337.0
32.69690 7554.0
32.69890 7530.0
32.70090 7583.0
32.70290 7741.0
32.70490 7665.0
32.70690 7545.0
32.70890 7703.0
32.71090 7658.0
32.71290 7780.0
32.71490 7831.0
32.71690 7877.0
32.71890 7851.0
32.72090 7901.0
32.72290 7920.0
32.72490 8035.0
32.72690 8097.0
32.72890 7956.0
32.73090 8074.0
32.73290 8097.0
32.73490 8112.0
32.73690 8164.0
32.73890 8472.0
32.74090 8406.0
32.74290 8245.0
32.74490 8256.0
32.74690 8325.0
32.74890 8346.0
32.75090 8421.0
32.75290 8506.0
32.75490 8520.0
32.75690 8557.0
32.75890 8584.0
32.76090 8766.0
32.76290 8928.0
32.76490 8863.0
32.76690 8873.0
32.76890 8787.0
32.77090 8833.0
32.77290 8719.0
32.77490 8868.0
32.77690 8984.0
32.77890 9093.0
32.78090 8985.0
32.78290 8986.0
32.78490 8851.0
32.78690 8984.0
32.78890 8997.0
32.79090 9070.0
32.79290 9236.0
32.79490 9256.0
32.79690 9079.0
32.79890 9287.0
32.80090 9141.0
32.80290 9410.0
32.80490 9279.0
32.80690 9440.0
32.80890 9434.0
32.81090 9317.0
32.81290 9657.0
32.81490 9603.0
32.81690 9440.0
32.81890 9545.0
32.82090 9746.0
32.82290 9600.0
32.82490 9756.0
32.82690 9768.0
32.82890 9628.0
32.83090 9679.0
32.83290 9784.0
32.83490 10000.0
32.83690 9921.0
32.83890 9747.0
32.84090 9869.0
32.84290 9881.0
32.84490 9882.0
32.84690 10057.0
32.84890 9972.0
32.85090 10044.0
32.85290 10020.0
32.85490 10286.0
32.85690 10102.0
32.85890 10124.0
32.86090 10112.0
32.86290 10261.0
32.86490 10135.0
32.86690 9990.0
32.86890 10201.0
32.87090 10142.0
32.87290 10239.0
32.87490 10379.0
32.87690 10209.0
32.87890 10286.0
32.88090 10235.0
32.88290 10477.0
32.88490 10318.0
32.88690 10501.0
32.88890 10491.0
32.89090 10565.0
32.89290 10594.0
32.89490 10496.0
32.89690 10328.0
32.89890 10492.0
32.90090 10711.0
32.90290 10751.0
32.90490 10507.0
32.90690 10774.0
32.90890 10864.0
32.91090 10758.0
32.91290 10745.0
32.91490 10626.0
32.91690 10702.0
32.91890 10833.0
32.92090 10757.0
32.92290 10754.0
32.92490 10928.0
32.92690 10786.0
32.92890 10658.0
32.93090 10895.0
32.93290 10660.0
32.93490 10681.0
32.93690 10750.0
32.93890 10932.0
32.94090 10917.0
32.94290 11024.0
32.94490 10953.0
32.94690 11026.0
32.94890 10987.0
32.95090 10838.0
32.95290 11132.0
32.95490 11254.0
32.95690 10794.0
32.95890 11046.0
32.96090 11096.0
32.96290 11036.0
32.96490 10925.0
32.96690 11120.0
32.96890 11215.0
32.97090 11134.0
32.97290 11072.0
32.97490 10915.0
32.97690 11080.0
32.97890 11075.0
32.98090 11158.0
32.98290 11075.0
32.98490 11318.0
32.98690 11058.0
32.98890 11116.0
32.99090 11197.0
32.99290 11071.0
32.99490 11180.0
32.99690 11127.0
32.99890 10902.0
33.00090 11270.0
33.00290 10993.0
33.00490 11012.0
33.00690 11025.0
33.00890 10935.0
33.01090 11124.0
33.01290 11111.0
33.01490 11100.0
33.01690 11042.0
33.01890 11050.0
33.02090 10905.0
33.02290 11070.0
33.02490 10832.0
33.02690 11153.0
33.02890 10759.0
33.03090 10850.0
33.03290 10984.0
33.03490 10812.0
33.03690 11078.0
33.03890 10991.0
33.04090 10913.0
33.04290 10549.0
33.04490 10960.0
33.04690 10764.0
33.04890 10834.0
33.05090 10599.0
33.05290 10849.0
33.05490 10629.0
33.05690 10706.0
33.05890 10539.0
33.06090 10462.0
33.06290 10594.0
33.06490 10416.0
33.06690 10439.0
33.06890 10301.0
33.07090 10224.0
33.07290 10460.0
33.07490 10224.0
33.07690 10343.0
33.07890 10532.0
33.08090 10191.0
33.08290 10261.0
33.08490 10358.0
33.08690 10241.0
33.08890 10200.0
33.09090 10341.0
33.09290 9960.0
33.09490 10178.0
33.09690 10028.0
33.09890 10089.0
33.10090 10035.0
33.10290 9920.0
33.10490 9877.0
33.10690 9875.0
33.10890 9582.0
33.11090 9777.0
33.11290 9817.0
33.11490 9591.0
33.11690 9636.0
33.11890 9626.0
33.12090 9484.0
33.12290 9696.0
33.12490 9451.0
33.12690 9480.0
33.12890 9251.0
33.13090 9278.0
33.13290 9391.0
33.13490 9249.0
33.13690 9197.0
33.13890 9313.0
33.14090 9119.0
33.14290 9227.0
33.14490 9033.0
33.14690 9192.0
33.14890 9174.0
33.15090 8976.0
33.15290 8792.0
33.15490 8872.0
33.15690 8816.0
33.15890 8611.0
33.16090 8609.0
33.16290 8732.0
33.16490 8717.0
33.16690 8867.0
33.16890 8692.0
33.17090 8579.0
33.17290 8742.0
33.17490 8541.0
33.17690 8475.0
33.17890 8392.0
33.18090 8258.0
33.18290 8154.0
33.18490 8162.0
33.18690 8081.0
33.18890 8138.0
33.19090 8147.0
33.19290 7922.0
33.19490 8094.0
33.19690 7875.0
33.19890 7971.0
33.20090 7879.0
33.20290 7732.0
33.20490 7761.0
33.20690 7637.0
33.20890 7645.0
33.21090 7641.0
33.21290 7541.0
33.21490 7445.0
33.21690 7482.0
33.21890 7508.0
33.22090 7599.0
33.22290 7631.0
33.22490 7526.0
33.22690 7502.0
33.22890 7372.0
33.23090 7149.0
33.23290 7276.0
33.23490 7208.0
33.23690 7232.0
33.23890 6994.0
33.24090 7100.0
33.24290 6950.0
33.24490 6998.0
33.24690 6943.0
33.24890 6826.0
33.25090 6886.0
33.25290 6840.0
33.25490 6725.0
33.25690 6805.0
33.25890 6684.0
33.26090 6636.0
33.26290 6695.0
33.26490 6697.0
33.26690 6607.0
33.26890 6578.0
33.27090 6606.0
33.27290 6557.0
33.27490 6434.0
33.27690 6272.0
33.27890 6287.0
33.28090 6339.0
33.28290 6292.0
33.28490 6246.0
33.28690 6220.0
33.28890 6047.0
33.29090 6179.0
33.29290 5969.0
33.29490 5955.0
33.29690 5854.0
33.29890 5825.0
33.30090 5786.0
33.30290 5646.0
33.30490 5540.0
33.30690 5589.0
33.30890 5435.0
33.31090 5451.0
33.31290 5577.0
33.31490 5462.0
33.31690 5344.0
33.31890 5412.0
33.32090 5509.0
33.32290 5352.0
33.32490 5029.0
33.32690 5193.0
33.32890 5133.0
33.33090 5119.0
33.33290 5198.0
33.33490 5050.0
33.33690 5052.0
33.33890 5042.0
33.34090 5022.0
33.34290 4967.0
33.34490 5070.0
33.34690 4835.0
33.34890 4984.0
33.35090 4859.0
33.35290 4707.0
33.35490 4810.0
33.35690 4664.0
33.35890 4757.0
33.36090 4744.0
33.36290 4725.0
33.36490 4597.0
33.36690 4580.0
33.36890 4529.0
33.37090 4551.0
33.37290 4575.0
33.37490 4480.0
33.37690 4472.0
33.37890 4347.0
33.38090 4477.0
33.38290 4280.0
33.38490 4310.0
33.38690 4253.0
33.38890 4144.0
33.39090 4123.0
33.39290 4199.0
33.39490 4229.0
33.39690 4227.0
33.39890 4118.0
33.40090 4094.0
33.40290 4012.0
33.40490 4066.0
33.40690 4029.0
33.40890 3983.0
33.41090 4045.0
33.41290 3959.0
33.41490 3909.0
33.41690 3876.0
33.41890 3893.0
33.42090 3849.0
33.42290 3857.0
33.42490 3834.0
33.42690 3740.0
33.42890 3718.0
33.43090 3741.0
33.43290 3683.0
33.43490 3661.0
33.43690 3631.0
33.43890 3557.0
33.44090 3606.0
33.44290 3508.0
33.44490 3627.0
33.44690 3552.0
33.44890 3558.0
33.45090 3436.0
33.45290 3430.0
33.45490 3445.0
33.45690 3433.0
33.45890 3419.0
33.46090 3344.0
33.46290 3317.0
33.46490 3316.0
33.46690 3137.0
33.46890 3177.0
33.47090 3259.0
33.47290 3256.0
33.47490 3144.0
33.47690 3168.0
33.47890 3130.0
33.48090 3045.0
33.48290 3096.0
33.48490 3080.0
33.48690 3003.0
33.48890 3062.0
33.49090 2974.0
33.49290 3006.0
33.49490 3065.0
33.49690 2985.0
33.49890 2930.0
33.50090 2913.0
33.50290 2970.0
33.50490 2852.0
33.50690 2854.0
33.50890 2882.0
33.51090 2931.0
33.51290 2784.0
33.51490 2712.0
33.51690 2697.0
33.51890 2665.0
33.52090 2784.0
33.52290 2591.0
33.52490 2657.0
33.52690 2773.0
33.52890 2735.0
33.53090 2643.0
33.53290 2595.0
33.53490 2608.0
33.53690 2525.0
33.53890 2577.0
33.54090 2514.0
33.54290 2685.0
33.54490 2536.0
33.54690 2595.0
33.54890 2484.0
33.55090 2527.0
33.55290 2528.0
33.55490 2419.0
33.55690 2503.0
33.55890 2470.0
33.56090 2505.0
33.56290 2361.0
33.56490 2439.0
33.56690 2406.0
33.56890 2392.0
33.57090 2435.0
33.57290 2361.0
33.57490 2361.0
33.57690 2300.0
33.57890 2354.0
33.58090 2277.0
33.58290 2358.0
33.58490 2231.0
33.58690 2256.0
33.58890 2291.0
33.59090 2190.0
33.59290 2260.0
33.59490 2240.0
33.59690 2089.0
33.59890 2155.0
33.60090 2207.0
33.60290 2163.0
33.60490 2104.0
33.60690 2133.0
33.60890 2106.0
33.61090 2106.0
33.61290 2108.0
33.61490 2127.0
33.61690 2043.0
33.61890 2014.0
33.62090 2079.0
33.62290 2038.0
33.62490 2042.0
33.62690 2099.0
33.62890 1989.0
33.63090 1966.0
33.63290 1983.0
33.63490 1986.0
33.63690 2030.0
33.63890 1874.0
33.64090 1906.0
33.64290 1874.0
33.64490 1831.0
33.64690 1944.0
33.64890 1844.0
33.65090 1995.0
33.65290 1828.0
33.65490 1817.0
33.65690 1781.0
33.65890 1848.0
33.66090 1760.0
33.66290 1774.0
33.66490 1764.0
33.66690 1778.0
33.66890 1760.0
33.67090 1846.0
33.67290 1797.0
33.67490 1833.0
33.67690 1805.0
33.67890 1706.0
33.68090 1694.0
33.68290 1730.0
33.68490 1676.0
33.68690 1705.0
33.68890 1749.0
33.69090 1734.0
33.69290 1717.0
33.69490 1643.0
33.69690 1664.0
33.69890 1663.0
33.70090 1663.0
33.70290 1620.0
33.70490 1646.0
33.70690 1608.0
33.70890 1583.0
33.71090 1638.0
33.71290 1702.0
33.71490 1596.0
33.71690 1536.0
33.71890 1587.0
33.72090 1662.0
33.72290 1542.0
33.72490 1590.0
33.72690 1556.0
33.72890 1508.0
33.73090 1589.0
33.73290 1549.0
33.73490 1569.0
33.73690 1436.0
33.73890 1550.0
33.74090 1400.0
33.74290 1495.0
33.74490 1496.0
33.74690 1469.0
33.74890 1413.0
33.75090 1490.0
33.75290 1505.0
33.75490 1447.0
33.75690 1404.0
33.75890 1458.0
33.76090 1432.0
33.76290 1459.0
33.76490 1453.0
33.76690 1350.0
33.76890 1442.0
33.77090 1420.0
33.77290 1383.0
33.77490 1456.0
33.77690 1387.0
33.77890 1344.0
33.78090 1356.0
33.78290 1278.0
33.78490 1390.0
33.78690 1407.0
33.78890 1292.0
33.79090 1333.0
33.79290 1315.0
33.79490 1303.0
33.79690 1275.0
33.79890 1367.0
33.80090 1326.0
33.80290 1381.0
33.80490 1226.0
33.80690 1371.0
33.80890 1272.0
33.81090 1228.0
33.81290 1310.0
33.81490 1282.0
33.81690 1205.0
33.81890 1272.0
33.82090 1341.0
33.82290 1223.0
33.82490 1252.0
33.82690 1277.0
33.82890 1239.0
33.83090 1228.0
33.83290 1233.0
33.83490 1192.0
33.83690 1194.0
33.83890 1174.0
33.84090 1148.0
33.84290 1207.0
33.84490 1155.0
33.84690 1205.0
33.84890 1217.0
33.85090 1231.0
33.85290 1163.0
33.85490 1117.0
33.85690 1156.0
33.85890 1217.0
33.86090 1123.0
33.86290 1144.0
33.86490 1204.0
33.86690 1152.0
33.86890 1161.0
33.87090 1118.0
33.87290 1157.0
33.87490 1179.0
33.87690 1099.0
33.87890 1127.0
33.88090 1103.0
33.88290 1105.0
33.88490 1093.0
33.88690 1117.0
33.88890 1035.0
33.89090 1135.0
33.89290 1061.0
33.89490 1031.0
33.89690 1140.0
33.89890 1031.0
33.90090 1093.0
33.90290 1059.0
33.90490 1066.0
33.90690 1079.0
33.90890 1058.0
33.91090 1073.0
33.91290 1051.0
33.91490 1069.0
33.91690 1033.0
33.91890 1056.0
33.92090 1046.0
33.92290 1042.0
33.92490 1049.0
33.92690 1046.0
33.92890 1012.0
33.93090 1047.0
33.93290 1007.0
33.93490 1028.0
33.93690 1018.0
33.93890 948.0
33.94090 934.0
33.94290 993.0
33.94490 918.0
33.94690 996.0
33.94890 927.0
33.95090 979.0
33.95290 974.0
33.95490 973.0
33.95690 913.0
33.95890 959.0
33.96090 918.0
33.96290 943.0
33.96490 883.0
33.96690 965.0
33.96890 892.0
33.97090 920.0