File: data/a-Al2O3/XRD_Omega/film_a_scan_omega_4deg_step_0.005deg0.xy
16.00000 24.0
16.00500 27.0
16.01000 31.0
16.01500 26.0
16.02000 18.0
16.02500 27.0
16.03000 35.0
16.03500 28.0
16.04000 32.0
16.04500 27.0
16.05000 26.0
16.05500 24.0
16.06000 24.0
16.06500 33.0
16.07000 39.0
16.07500 31.0
16.08000 25.0
16.08500 26.0
16.09000 45.0
16.09500 28.0
16.10000 26.0
16.10500 26.0
16.11000 29.0
16.11500 33.0
16.12000 31.0
16.12500 30.0
16.13000 33.0
16.13500 37.0
16.14000 39.0
16.14500 37.0
16.15000 29.0
16.15500 24.0
16.16000 41.0
16.16500 22.0
16.17000 34.0
16.17500 26.0
16.18000 27.0
16.18500 29.0
16.19000 23.0
16.19500 28.0
16.20000 30.0
16.20500 27.0
16.21000 29.0
16.21500 33.0
16.22000 37.0
16.22500 27.0
16.23000 29.0
16.23500 26.0
16.24000 28.0
16.24500 35.0
16.25000 16.0
16.25500 25.0
16.26000 33.0
16.26500 30.0
16.27000 23.0
16.27500 23.0
16.28000 35.0
16.28500 35.0
16.29000 26.0
16.29500 32.0
16.30000 20.0
16.30500 30.0
16.31000 28.0
16.31500 26.0
16.32000 32.0
16.32500 32.0
16.33000 33.0
16.33500 29.0
16.34000 24.0
16.34500 30.0
16.35000 35.0
16.35500 23.0
16.36000 36.0
16.36500 22.0
16.37000 20.0
16.37500 30.0
16.38000 36.0
16.38500 25.0
16.39000 25.0
16.39500 28.0
16.40000 26.0
16.40500 37.0
16.41000 27.0
16.41500 30.0
16.42000 31.0
16.42500 25.0
16.43000 31.0
16.43500 36.0
16.44000 26.0
16.44500 29.0
16.45000 38.0
16.45500 27.0
16.46000 32.0
16.46500 24.0
16.47000 24.0
16.47500 26.0
16.48000 34.0
16.48500 28.0
16.49000 30.0
16.49500 29.0
16.50000 33.0
16.50500 36.0
16.51000 30.0
16.51500 36.0
16.52000 29.0
16.52500 33.0
16.53000 32.0
16.53500 26.0
16.54000 30.0
16.54500 27.0
16.55000 29.0
16.55500 29.0
16.56000 22.0
16.56500 28.0
16.57000 19.0
16.57500 29.0
16.58000 33.0
16.58500 39.0
16.59000 28.0
16.59500 28.0
16.60000 39.0
16.60500 23.0
16.61000 26.0
16.61500 32.0
16.62000 23.0
16.62500 28.0
16.63000 26.0
16.63500 25.0
16.64000 32.0
16.64500 32.0
16.65000 37.0
16.65500 28.0
16.66000 29.0
16.66500 32.0
16.67000 26.0
16.67500 39.0
16.68000 25.0
16.68500 31.0
16.69000 18.0
16.69500 22.0
16.70000 32.0
16.70500 26.0
16.71000 22.0
16.71500 32.0
16.72000 26.0
16.72500 35.0
16.73000 32.0
16.73500 31.0
16.74000 29.0
16.74500 38.0
16.75000 20.0
16.75500 38.0
16.76000 34.0
16.76500 30.0
16.77000 34.0
16.77500 36.0
16.78000 28.0
16.78500 19.0
16.79000 30.0
16.79500 33.0
16.80000 24.0
16.80500 35.0
16.81000 45.0
16.81500 31.0
16.82000 27.0
16.82500 30.0
16.83000 31.0
16.83500 24.0
16.84000 24.0
16.84500 40.0
16.85000 49.0
16.85500 30.0
16.86000 31.0
16.86500 20.0
16.87000 36.0
16.87500 32.0
16.88000 21.0
16.88500 21.0
16.89000 30.0
16.89500 21.0
16.90000 32.0
16.90500 26.0
16.91000 25.0
16.91500 31.0
16.92000 27.0
16.92500 34.0
16.93000 23.0
16.93500 36.0
16.94000 29.0
16.94500 21.0
16.95000 33.0
16.95500 24.0
16.96000 16.0
16.96500 22.0
16.97000 26.0
16.97500 33.0
16.98000 29.0
16.98500 39.0
16.99000 27.0
16.99500 32.0
17.00000 33.0
17.00500 27.0
17.01000 28.0
17.01500 20.0
17.02000 36.0
17.02500 21.0
17.03000 30.0
17.03500 43.0
17.04000 25.0
17.04500 36.0
17.05000 31.0
17.05500 27.0
17.06000 37.0
17.06500 36.0
17.07000 33.0
17.07500 27.0
17.08000 23.0
17.08500 27.0
17.09000 25.0
17.09500 42.0
17.10000 25.0
17.10500 20.0
17.11000 39.0
17.11500 33.0
17.12000 29.0
17.12500 26.0
17.13000 23.0
17.13500 34.0
17.14000 24.0
17.14500 35.0
17.15000 31.0
17.15500 32.0
17.16000 29.0
17.16500 31.0
17.17000 39.0
17.17500 17.0
17.18000 35.0
17.18500 26.0
17.19000 24.0
17.19500 31.0
17.20000 22.0
17.20500 22.0
17.21000 29.0
17.21500 31.0
17.22000 32.0
17.22500 33.0
17.23000 32.0
17.23500 25.0
17.24000 25.0
17.24500 29.0
17.25000 23.0
17.25500 40.0
17.26000 29.0
17.26500 28.0
17.27000 32.0
17.27500 32.0
17.28000 24.0
17.28500 30.0
17.29000 35.0
17.29500 32.0
17.30000 26.0
17.30500 35.0
17.31000 33.0
17.31500 31.0
17.32000 31.0
17.32500 33.0
17.33000 35.0
17.33500 28.0
17.34000 32.0
17.34500 31.0
17.35000 27.0
17.35500 27.0
17.36000 26.0
17.36500 25.0
17.37000 26.0
17.37500 26.0
17.38000 32.0
17.38500 32.0
17.39000 32.0
17.39500 30.0
17.40000 31.0
17.40500 31.0
17.41000 22.0
17.41500 34.0
17.42000 26.0
17.42500 24.0
17.43000 26.0
17.43500 34.0
17.44000 24.0
17.44500 35.0
17.45000 15.0
17.45500 32.0
17.46000 35.0
17.46500 27.0
17.47000 21.0
17.47500 32.0
17.48000 29.0
17.48500 39.0
17.49000 27.0
17.49500 28.0
17.50000 32.0
17.50500 39.0
17.51000 21.0
17.51500 20.0
17.52000 33.0
17.52500 29.0
17.53000 34.0
17.53500 23.0
17.54000 29.0
17.54500 23.0
17.55000 25.0
17.55500 29.0
17.56000 33.0
17.56500 39.0
17.57000 30.0
17.57500 27.0
17.58000 29.0
17.58500 25.0
17.59000 35.0
17.59500 26.0
17.60000 29.0
17.60500 28.0
17.61000 26.0
17.61500 35.0
17.62000 27.0
17.62500 25.0
17.63000 28.0
17.63500 30.0
17.64000 23.0
17.64500 22.0
17.65000 33.0
17.65500 35.0
17.66000 36.0
17.66500 27.0
17.67000 30.0
17.67500 30.0
17.68000 24.0
17.68500 28.0
17.69000 26.0
17.69500 32.0
17.70000 26.0
17.70500 35.0
17.71000 32.0
17.71500 33.0
17.72000 22.0
17.72500 27.0
17.73000 40.0
17.73500 25.0
17.74000 28.0
17.74500 30.0
17.75000 32.0
17.75500 30.0
17.76000 25.0
17.76500 17.0
17.77000 18.0
17.77500 23.0
17.78000 24.0
17.78500 46.0
17.79000 34.0
17.79500 29.0
17.80000 32.0
17.80500 28.0
17.81000 24.0
17.81500 31.0
17.82000 32.0
17.82500 26.0
17.83000 30.0
17.83500 33.0
17.84000 20.0
17.84500 32.0
17.85000 21.0
17.85500 32.0
17.86000 33.0
17.86500 22.0
17.87000 27.0
17.87500 32.0
17.88000 26.0
17.88500 30.0
17.89000 27.0
17.89500 35.0
17.90000 39.0
17.90500 26.0
17.91000 30.0
17.91500 28.0
17.92000 36.0
17.92500 35.0
17.93000 28.0
17.93500 38.0
17.94000 24.0
17.94500 26.0
17.95000 27.0
17.95500 40.0
17.96000 28.0
17.96500 21.0
17.97000 15.0
17.97500 31.0
17.98000 24.0
17.98500 21.0
17.99000 26.0
17.99500 23.0
18.00000 25.0
18.00500 22.0
18.01000 35.0
18.01500 31.0
18.02000 25.0
18.02500 17.0
18.03000 26.0
18.03500 28.0
18.04000 24.0
18.04500 34.0
18.05000 25.0
18.05500 28.0
18.06000 24.0
18.06500 33.0
18.07000 34.0
18.07500 25.0
18.08000 33.0
18.08500 44.0
18.09000 23.0
18.09500 27.0
18.10000 33.0
18.10500 33.0
18.11000 28.0
18.11500 35.0
18.12000 33.0
18.12500 34.0
18.13000 31.0
18.13500 32.0
18.14000 31.0
18.14500 25.0
18.15000 27.0
18.15500 32.0
18.16000 27.0
18.16500 21.0
18.17000 22.0
18.17500 27.0
18.18000 46.0
18.18500 50.0
18.19000 58.0
18.19500 43.0
18.20000 44.0
18.20500 43.0
18.21000 50.0
18.21500 45.0
18.22000 40.0
18.22500 53.0
18.23000 39.0
18.23500 54.0
18.24000 62.0
18.24500 58.0
18.25000 40.0
18.25500 67.0
18.26000 56.0
18.26500 60.0
18.27000 57.0
18.27500 55.0
18.28000 49.0
18.28500 41.0
18.29000 61.0
18.29500 58.0
18.30000 59.0
18.30500 55.0
18.31000 48.0
18.31500 54.0
18.32000 54.0
18.32500 67.0
18.33000 72.0
18.33500 71.0
18.34000 67.0
18.34500 85.0
18.35000 91.0
18.35500 76.0
18.36000 78.0
18.36500 107.0
18.37000 124.0
18.37500 152.0
18.38000 137.0
18.38500 126.0
18.39000 143.0
18.39500 103.0
18.40000 85.0
18.40500 79.0
18.41000 83.0
18.41500 106.0
18.42000 88.0
18.42500 106.0
18.43000 85.0
18.43500 76.0
18.44000 81.0
18.44500 75.0
18.45000 67.0
18.45500 58.0
18.46000 49.0
18.46500 53.0
18.47000 44.0
18.47500 34.0
18.48000 49.0
18.48500 46.0
18.49000 30.0
18.49500 44.0
18.50000 35.0
18.50500 38.0
18.51000 33.0
18.51500 27.0
18.52000 36.0
18.52500 33.0
18.53000 38.0
18.53500 29.0
18.54000 25.0
18.54500 26.0
18.55000 28.0
18.55500 23.0
18.56000 40.0
18.56500 25.0
18.57000 32.0
18.57500 28.0
18.58000 22.0
18.58500 28.0
18.59000 33.0
18.59500 30.0
18.60000 26.0
18.60500 34.0
18.61000 26.0
18.61500 43.0
18.62000 27.0
18.62500 25.0
18.63000 35.0
18.63500 25.0
18.64000 24.0
18.64500 30.0
18.65000 34.0
18.65500 26.0
18.66000 26.0
18.66500 18.0
18.67000 33.0
18.67500 26.0
18.68000 28.0
18.68500 27.0
18.69000 20.0
18.69500 36.0
18.70000 25.0
18.70500 25.0
18.71000 21.0
18.71500 34.0
18.72000 30.0
18.72500 29.0
18.73000 23.0
18.73500 27.0
18.74000 21.0
18.74500 33.0
18.75000 32.0
18.75500 22.0
18.76000 23.0
18.76500 22.0
18.77000 30.0
18.77500 36.0
18.78000 29.0
18.78500 22.0
18.79000 26.0
18.79500 24.0
18.80000 28.0
18.80500 25.0
18.81000 27.0
18.81500 27.0
18.82000 27.0
18.82500 38.0
18.83000 28.0
18.83500 27.0
18.84000 26.0
18.84500 35.0
18.85000 25.0
18.85500 26.0
18.86000 37.0
18.86500 35.0
18.87000 23.0
18.87500 24.0
18.88000 22.0
18.88500 30.0
18.89000 36.0
18.89500 31.0
18.90000 23.0
18.90500 15.0
18.91000 35.0
18.91500 20.0
18.92000 32.0
18.92500 40.0
18.93000 29.0
18.93500 27.0
18.94000 25.0
18.94500 23.0
18.95000 23.0
18.95500 26.0
18.96000 16.0
18.96500 28.0
18.97000 39.0
18.97500 29.0
18.98000 31.0
18.98500 23.0
18.99000 29.0
18.99500 26.0
19.00000 33.0
19.00500 40.0
19.01000 35.0
19.01500 24.0
19.02000 25.0
19.02500 32.0
19.03000 27.0
19.03500 27.0
19.04000 27.0
19.04500 30.0
19.05000 28.0
19.05500 36.0
19.06000 30.0
19.06500 25.0
19.07000 28.0
19.07500 25.0
19.08000 39.0
19.08500 20.0
19.09000 31.0
19.09500 33.0
19.10000 36.0
19.10500 41.0
19.11000 33.0
19.11500 26.0
19.12000 27.0
19.12500 37.0
19.13000 36.0
19.13500 26.0
19.14000 34.0
19.14500 23.0
19.15000 30.0
19.15500 29.0
19.16000 31.0
19.16500 41.0
19.17000 25.0
19.17500 32.0
19.18000 25.0
19.18500 47.0
19.19000 32.0
19.19500 34.0
19.20000 34.0
19.20500 29.0
19.21000 27.0
19.21500 29.0
19.22000 28.0
19.22500 27.0
19.23000 36.0
19.23500 29.0
19.24000 17.0
19.24500 32.0
19.25000 41.0
19.25500 23.0
19.26000 34.0
19.26500 23.0
19.27000 29.0
19.27500 29.0
19.28000 23.0
19.28500 23.0
19.29000 19.0
19.29500 38.0
19.30000 29.0
19.30500 25.0
19.31000 25.0
19.31500 27.0
19.32000 19.0
19.32500 37.0
19.33000 38.0
19.33500 24.0
19.34000 30.0
19.34500 23.0
19.35000 25.0
19.35500 23.0
19.36000 26.0
19.36500 28.0
19.37000 30.0
19.37500 30.0
19.38000 22.0
19.38500 33.0
19.39000 31.0
19.39500 36.0
19.40000 23.0
19.40500 37.0
19.41000 28.0
19.41500 31.0
19.42000 30.0
19.42500 33.0
19.43000 25.0
19.43500 32.0
19.44000 18.0
19.44500 28.0
19.45000 21.0
19.45500 31.0
19.46000 38.0
19.46500 28.0
19.47000 27.0
19.47500 35.0
19.48000 27.0
19.48500 23.0
19.49000 35.0
19.49500 26.0
19.50000 32.0
19.50500 25.0
19.51000 28.0
19.51500 27.0
19.52000 30.0
19.52500 32.0
19.53000 26.0
19.53500 31.0
19.54000 20.0
19.54500 30.0
19.55000 41.0
19.55500 30.0
19.56000 25.0
19.56500 23.0
19.57000 34.0
19.57500 24.0
19.58000 24.0
19.58500 27.0
19.59000 28.0
19.59500 31.0
19.60000 26.0
19.60500 19.0
19.61000 18.0
19.61500 22.0
19.62000 27.0
19.62500 23.0
19.63000 21.0
19.63500 24.0
19.64000 19.0
19.64500 32.0
19.65000 30.0
19.65500 30.0
19.66000 25.0
19.66500 29.0
19.67000 35.0
19.67500 26.0
19.68000 31.0
19.68500 16.0
19.69000 33.0
19.69500 23.0
19.70000 30.0
19.70500 32.0
19.71000 35.0
19.71500 40.0
19.72000 24.0
19.72500 29.0
19.73000 30.0
19.73500 25.0
19.74000 31.0
19.74500 27.0
19.75000 32.0
19.75500 20.0
19.76000 27.0
19.76500 38.0
19.77000 32.0
19.77500 21.0
19.78000 32.0
19.78500 25.0
19.79000 24.0
19.79500 24.0
19.80000 24.0
19.80500 28.0
19.81000 32.0
19.81500 21.0
19.82000 37.0
19.82500 24.0
19.83000 22.0
19.83500 27.0
19.84000 29.0
19.84500 28.0
19.85000 30.0
19.85500 36.0
19.86000 25.0
19.86500 22.0
19.87000 37.0
19.87500 29.0
19.88000 23.0
19.88500 19.0
19.89000 23.0
19.89500 34.0
19.90000 43.0
19.90500 32.0
19.91000 23.0
19.91500 22.0
19.92000 32.0
19.92500 26.0
19.93000 26.0
19.93500 30.0
19.94000 29.0
19.94500 23.0
19.95000 21.0
19.95500 26.0
19.96000 23.0