File: data/W6933m/XRD_2ThetaOmega/m_scan_2th-om_10-130deg_PIXscan_17min.xy
10.0035 49.0
10.0872 69.0
10.1709 43.0
10.2546 45.0
10.3383 60.0
10.422 56.0
10.5057 62.0
10.5894 46.0
10.6731 38.0
10.7568 46.0
10.8405 37.0
10.9242 48.0
11.0079 56.0
11.0916 56.0
11.1753 43.0
11.259 51.0
11.3428 54.0
11.4265 50.0
11.5102 42.0
11.5939 58.0
11.6776 46.0
11.7613 55.0
11.845 40.0
11.9287 48.0
12.0124 46.0
12.0961 40.0
12.1798 43.0
12.2635 41.0
12.3472 41.0
12.4309 43.0
12.5146 40.0
12.5983 30.0
12.682 47.0
12.7657 49.0
12.8495 40.0
12.9332 45.0
13.0169 51.0
13.1006 44.0
13.1843 31.0
13.268 43.0
13.3517 48.0
13.4354 51.0
13.5191 30.0
13.6028 43.0
13.6865 43.0
13.7702 42.0
13.8539 27.0
13.9376 47.0
14.0213 33.0
14.105 30.0
14.1887 36.0
14.2724 40.0
14.3562 30.0
14.4399 33.0
14.5236 39.0
14.6073 26.0
14.691 38.0
14.7747 26.0
14.8584 29.0
14.9421 31.0
15.0258 37.0
15.1095 38.0
15.1932 39.0
15.2769 43.0
15.3606 30.0
15.4443 28.0
15.528 41.0
15.6117 47.0
15.6954 40.0
15.7791 43.0
15.8629 29.0
15.9466 40.0
16.0303 40.0
16.114 37.0
16.1977 38.0
16.2814 35.0
16.3651 36.0
16.4488 39.0
16.5325 31.0
16.6162 35.0
16.6999 33.0
16.7836 35.0
16.8673 23.0
16.951 32.0
17.0347 28.0
17.1184 26.0
17.2021 22.0
17.2858 29.0
17.3696 20.0
17.4533 26.0
17.537 33.0
17.6207 42.0
17.7044 31.0
17.7881 22.0
17.8718 21.0
17.9555 27.0
18.0392 32.0
18.1229 29.0
18.2066 29.0
18.2903 27.0
18.374 26.0
18.4577 27.0
18.5414 29.0
18.6251 40.0
18.7088 34.0
18.7925 29.0
18.8763 30.0
18.96 29.0
19.0437 36.0
19.1274 29.0
19.2111 27.0
19.2948 29.0
19.3785 37.0
19.4622 41.0
19.5459 21.0
19.6296 23.0
19.7133 28.0
19.797 35.0
19.8807 27.0
19.9644 30.0
20.0481 34.0
20.1318 19.0
20.2155 25.0
20.2992 32.0
20.383 29.0
20.4667 39.0
20.5504 35.0
20.6341 20.0
20.7178 25.0
20.8015 28.0
20.8852 20.0
20.9689 29.0
21.0526 34.0
21.1363 31.0
21.22 29.0
21.3037 27.0
21.3874 31.0
21.4711 31.0
21.5548 34.0
21.6385 30.0
21.7222 23.0
21.8059 21.0
21.8897 25.0
21.9734 25.0
22.0571 25.0
22.1408 21.0
22.2245 30.0
22.3082 25.0
22.3919 24.0
22.4756 29.0
22.5593 18.0
22.643 30.0
22.7267 19.0
22.8104 21.0
22.8941 30.0
22.9778 28.0
23.0615 25.0
23.1452 23.0
23.2289 34.0
23.3126 21.0
23.3964 31.0
23.4801 20.0
23.5638 25.0
23.6475 19.0
23.7312 22.0
23.8149 21.0
23.8986 26.0
23.9823 29.0
24.066 20.0
24.1497 23.0
24.2334 26.0
24.3171 28.0
24.4008 28.0
24.4845 28.0
24.5682 41.0
24.6519 18.0
24.7356 19.0
24.8193 21.0
24.9031 17.0
24.9868 38.0
25.0705 22.0
25.1542 22.0
25.2379 28.0
25.3216 21.0
25.4053 22.0
25.489 24.0
25.5727 18.0
25.6564 16.0
25.7401 26.0
25.8238 21.0
25.9075 28.0
25.9912 18.0
26.0749 25.0
26.1586 24.0
26.2423 23.0
26.326 23.0
26.4098 22.0
26.4935 22.0
26.5772 25.0
26.6609 19.0
26.7446 20.0
26.8283 21.0
26.912 25.0
26.9957 20.0
27.0794 20.0
27.1631 26.0
27.2468 25.0
27.3305 15.0
27.4142 18.0
27.4979 24.0
27.5816 17.0
27.6653 16.0
27.749 24.0
27.8327 21.0
27.9165 22.0
28.0002 23.0
28.0839 19.0
28.1676 26.0
28.2513 28.0
28.335 25.0
28.4187 15.0
28.5024 27.0
28.5861 22.0
28.6698 20.0
28.7535 23.0
28.8372 17.0
28.9209 18.0
29.0046 31.0
29.0883 26.0
29.172 28.0
29.2557 23.0
29.3394 17.0
29.4232 18.0
29.5069 16.0
29.5906 20.0
29.6743 19.0
29.758 17.0
29.8417 22.0
29.9254 17.0
30.0091 25.0
30.0928 20.0
30.1765 24.0
30.2602 18.0
30.3439 17.0
30.4276 23.0
30.5113 18.0
30.595 19.0
30.6787 22.0
30.7624 22.0
30.8461 20.0
30.9298 17.0
31.0136 19.0
31.0973 24.0
31.181 25.0
31.2647 19.0
31.3484 33.0
31.4321 17.0
31.5158 14.0
31.5995 23.0
31.6832 13.0
31.7669 21.0
31.8506 18.0
31.9343 18.0
32.018 22.0
32.1017 22.0
32.1854 19.0
32.2691 19.0
32.3528 11.0
32.4365 19.0
32.5203 26.0
32.604 17.0
32.6877 19.0
32.7714 10.0
32.8551 20.0
32.9388 19.0
33.0225 21.0
33.1062 17.0
33.1899 17.0
33.2736 22.0
33.3573 25.0
33.441 20.0
33.5247 22.0
33.6084 15.0
33.6921 26.0
33.7758 22.0
33.8595 14.0
33.9432 28.0
34.027 18.0
34.1107 19.0
34.1944 22.0
34.2781 21.0
34.3618 19.0
34.4455 20.0
34.5292 22.0
34.6129 13.0
34.6966 29.0
34.7803 18.0
34.864 22.0
34.9477 24.0
35.0314 11.0
35.1151 34.0
35.1988 24.0
35.2825 26.0
35.3662 17.0
35.4499 23.0
35.5337 10.0
35.6174 16.0
35.7011 24.0
35.7848 20.0
35.8685 26.0
35.9522 20.0
36.0359 22.0
36.1196 20.0
36.2033 15.0
36.287 17.0
36.3707 24.0
36.4544 29.0
36.5381 26.0
36.6218 25.0
36.7055 25.0
36.7892 21.0
36.8729 18.0
36.9566 19.0
37.0404 23.0
37.1241 23.0
37.2078 16.0
37.2915 28.0
37.3752 25.0
37.4589 18.0
37.5426 20.0
37.6263 11.0
37.71 15.0
37.7937 21.0
37.8774 24.0
37.9611 20.0
38.0448 21.0
38.1285 23.0
38.2122 14.0
38.2959 26.0
38.3796 21.0
38.4633 17.0
38.5471 20.0
38.6308 21.0
38.7145 23.0
38.7982 12.0
38.8819 18.0
38.9656 27.0
39.0493 19.0
39.133 23.0
39.2167 23.0
39.3004 32.0
39.3841 25.0
39.4678 23.0
39.5515 17.0
39.6352 27.0
39.7189 20.0
39.8026 22.0
39.8863 17.0
39.97 29.0
40.0538 30.0
40.1375 18.0
40.2212 17.0
40.3049 27.0
40.3886 22.0
40.4723 22.0
40.556 16.0
40.6397 19.0
40.7234 23.0
40.8071 21.0
40.8908 23.0
40.9745 17.0
41.0582 21.0
41.1419 28.0
41.2256 26.0
41.3093 22.0
41.393 26.0
41.4767 28.0
41.5605 24.0
41.6442 12.0
41.7279 25.0
41.8116 20.0
41.8953 22.0
41.979 27.0
42.0627 21.0
42.1464 19.0
42.2301 11.0
42.3138 29.0
42.3975 22.0
42.4812 19.0
42.5649 23.0
42.6486 17.0
42.7323 20.0
42.816 27.0
42.8997 16.0
42.9834 25.0
43.0672 23.0
43.1509 20.0
43.2346 19.0
43.3183 24.0
43.402 26.0
43.4857 21.0
43.5694 25.0
43.6531 17.0
43.7368 24.0
43.8205 22.0
43.9042 29.0
43.9879 28.0
44.0716 29.0
44.1553 26.0
44.239 32.0
44.3227 32.0
44.4064 46.0
44.4901 40.0
44.5739 27.0
44.6576 24.0
44.7413 18.0
44.825 27.0
44.9087 21.0
44.9924 13.0
45.0761 17.0
45.1598 23.0
45.2435 31.0
45.3272 10.0
45.4109 16.0
45.4946 25.0
45.5783 26.0
45.662 22.0
45.7457 12.0
45.8294 21.0
45.9131 22.0
45.9968 16.0
46.0806 23.0
46.1643 26.0
46.248 20.0
46.3317 22.0
46.4154 20.0
46.4991 22.0
46.5828 22.0
46.6665 24.0
46.7502 19.0
46.8339 26.0
46.9176 21.0
47.0013 19.0
47.085 18.0
47.1687 24.0
47.2524 25.0
47.3361 28.0
47.4198 18.0
47.5035 16.0
47.5873 19.0
47.671 19.0
47.7547 21.0
47.8384 18.0
47.9221 24.0
48.0058 21.0
48.0895 24.0
48.1732 17.0
48.2569 21.0
48.3406 11.0
48.4243 25.0
48.508 24.0
48.5917 26.0
48.6754 27.0
48.7591 22.0
48.8428 23.0
48.9265 37.0
49.0102 22.0
49.094 29.0
49.1777 11.0
49.2614 24.0
49.3451 23.0
49.4288 25.0
49.5125 17.0
49.5962 21.0
49.6799 14.0
49.7636 20.0
49.8473 27.0
49.931 31.0
50.0147 22.0
50.0984 13.0
50.1821 17.0
50.2658 15.0
50.3495 10.0
50.4332 17.0
50.5169 26.0
50.6007 13.0
50.6844 26.0
50.7681 19.0
50.8518 20.0
50.9355 29.0
51.0192 16.0
51.1029 21.0
51.1866 21.0
51.2703 21.0
51.354 30.0
51.4377 16.0
51.5214 20.0
51.6051 23.0
51.6888 22.0
51.7725 30.0
51.8562 20.0
51.9399 19.0
52.0236 19.0
52.1074 22.0
52.1911 16.0
52.2748 19.0
52.3585 23.0
52.4422 18.0
52.5259 26.0
52.6096 27.0
52.6933 21.0
52.777 14.0
52.8607 15.0
52.9444 19.0
53.0281 19.0
53.1118 24.0
53.1955 20.0
53.2792 16.0
53.3629 28.0
53.4466 15.0
53.5303 18.0
53.6141 14.0
53.6978 18.0
53.7815 18.0
53.8652 17.0
53.9489 17.0
54.0326 17.0
54.1163 25.0
54.2 27.0
54.2837 23.0
54.3674 20.0
54.4511 16.0
54.5348 30.0
54.6185 22.0
54.7022 12.0
54.7859 25.0
54.8696 32.0
54.9533 19.0
55.037 22.0
55.1208 20.0
55.2045 18.0
55.2882 30.0
55.3719 16.0
55.4556 30.0
55.5393 24.0
55.623 15.0
55.7067 24.0
55.7904 23.0
55.8741 21.0
55.9578 19.0
56.0415 30.0
56.1252 22.0
56.2089 23.0
56.2926 17.0
56.3763 20.0
56.46 13.0
56.5437 16.0
56.6275 23.0
56.7112 21.0
56.7949 27.0
56.8786 30.0
56.9623 23.0
57.046 23.0
57.1297 20.0
57.2134 27.0
57.2971 27.0
57.3808 24.0
57.4645 16.0
57.5482 25.0
57.6319 23.0
57.7156 21.0
57.7993 23.0
57.883 22.0
57.9667 37.0
58.0504 26.0
58.1342 28.0
58.2179 23.0
58.3016 19.0
58.3853 20.0
58.469 16.0
58.5527 23.0
58.6364 26.0
58.7201 25.0
58.8038 19.0
58.8875 29.0
58.9712 19.0
59.0549 25.0
59.1386 21.0
59.2223 22.0
59.306 22.0
59.3897 26.0
59.4734 17.0
59.5571 20.0
59.6409 20.0
59.7246 24.0
59.8083 24.0
59.892 28.0
59.9757 31.0
60.0594 29.0
60.1431 17.0
60.2268 18.0
60.3105 20.0
60.3942 17.0
60.4779 23.0
60.5616 41.0
60.6453 37.0
60.729 41.0
60.8127 151.0
60.8964 127.0
60.9801 42.0
61.0638 46.0
61.1476 32.0
61.2313 28.0
61.315 34.0
61.3987 27.0
61.4824 24.0
61.5661 22.0
61.6498 30.0
61.7335 36.0
61.8172 33.0
61.9009 32.0
61.9846 31.0
62.0683 22.0
62.152 29.0
62.2357 26.0
62.3194 38.0
62.4031 23.0
62.4868 26.0
62.5705 32.0
62.6543 29.0
62.738 20.0
62.8217 25.0
62.9054 36.0
62.9891 25.0
63.0728 30.0
63.1565 25.0
63.2402 36.0
63.3239 29.0
63.4076 27.0
63.4913 30.0
63.575 24.0
63.6587 34.0
63.7424 29.0
63.8261 40.0
63.9098 38.0
63.9935 35.0
64.0772 39.0
64.161 61.0
64.2447 51.0
64.3284 65.0
64.4121 78.0
64.4958 91.0
64.5795 162.0
64.6632 217.0
64.7469 490.0
64.8306 1007.0
64.9143 1580.0
64.998 1177.0
65.0817 934.0
65.1654 620.0
65.2491 263.0
65.3328 122.0
65.4165 92.0
65.5002 69.0
65.5839 51.0
65.6677 55.0
65.7514 45.0
65.8351 53.0
65.9188 40.0
66.0025 41.0
66.0862 40.0
66.1699 48.0
66.2536 48.0
66.3373 45.0
66.421 46.0
66.5047 64.0
66.5884 62.0
66.6721 58.0
66.7558 64.0
66.8395 50.0
66.9232 72.0
67.0069 65.0
67.0906 90.0
67.1744 99.0
67.2581 86.0
67.3418 98.0
67.4255 102.0
67.5092 105.0
67.5929 144.0
67.6766 190.0
67.7603 379.0
67.844 616.0
67.9277 661.0
68.0114 1223.0
68.0951 6383.0
68.1788 46519.0
68.2625 3384.0
68.3462 28848.0
68.4299 2534.0
68.5136 849.0
68.5973 564.0
68.6811 399.0
68.7648 305.0
68.8485 258.0
68.9322 182.0
69.0159 150.0
69.0996 117.0
69.1833 107.0
69.267 92.0
69.3507 70.0
69.4344 78.0
69.5181 73.0
69.6018 61.0
69.6855 63.0
69.7692 41.0
69.8529 52.0
69.9366 44.0
70.0203 38.0
70.104 47.0
70.1878 34.0
70.2715 41.0
70.3552 35.0
70.4389 37.0
70.5226 33.0
70.6063 38.0
70.69 40.0
70.7737 38.0
70.8574 35.0
70.9411 38.0
71.0248 36.0
71.1085 31.0
71.1922 41.0
71.2759 35.0
71.3596 30.0
71.4433 28.0
71.527 33.0
71.6107 30.0
71.6945 33.0
71.7782 28.0
71.8619 31.0
71.9456 35.0
72.0293 28.0
72.113 26.0
72.1967 27.0
72.2804 33.0
72.3641 29.0
72.4478 25.0
72.5315 25.0
72.6152 39.0
72.6989 27.0
72.7826 22.0
72.8663 28.0
72.95 35.0
73.0337 21.0
73.1174 26.0
73.2012 24.0
73.2849 39.0
73.3686 27.0
73.4523 34.0
73.536 21.0
73.6197 35.0
73.7034 26.0
73.7871 33.0
73.8708 30.0
73.9545 23.0
74.0382 32.0
74.1219 33.0
74.2056 24.0
74.2893 28.0
74.373 35.0
74.4567 30.0
74.5404 26.0
74.6241 31.0
74.7079 29.0
74.7916 22.0
74.8753 24.0
74.959 34.0
75.0427 22.0
75.1264 35.0
75.2101 24.0
75.2938 23.0
75.3775 27.0
75.4612 27.0
75.5449 18.0
75.6286 23.0
75.7123 21.0
75.796 21.0
75.8797 31.0
75.9634 24.0
76.0471 25.0
76.1308 23.0
76.2146 19.0
76.2983 26.0
76.382 25.0
76.4657 24.0
76.5494 25.0
76.6331 28.0
76.7168 29.0
76.8005 24.0
76.8842 25.0
76.9679 38.0
77.0516 31.0
77.1353 21.0
77.219 36.0
77.3027 24.0
77.3864 21.0
77.4701 27.0
77.5538 33.0
77.6375 28.0
77.7213 20.0
77.805 32.0
77.8887 36.0
77.9724 27.0
78.0561 26.0
78.1398 25.0
78.2235 24.0
78.3072 29.0
78.3909 22.0
78.4746 36.0
78.5583 18.0
78.642 22.0
78.7257 23.0
78.8094 28.0
78.8931 29.0
78.9768 30.0
79.0605 24.0
79.1442 27.0
79.228 30.0
79.3117 21.0
79.3954 21.0
79.4791 21.0
79.5628 32.0
79.6465 26.0
79.7302 35.0
79.8139 30.0
79.8976 26.0
79.9813 34.0
80.065 22.0
80.1487 29.0
80.2324 22.0
80.3161 32.0
80.3998 26.0
80.4835 35.0
80.5672 24.0
80.6509 34.0
80.7347 20.0
80.8184 28.0
80.9021 24.0
80.9858 15.0
81.0695 36.0
81.1532 27.0
81.2369 19.0
81.3206 25.0
81.4043 26.0
81.488 24.0
81.5717 33.0
81.6554 28.0
81.7391 26.0
81.8228 31.0
81.9065 34.0
81.9902 33.0
82.0739 35.0
82.1576 39.0
82.2414 30.0
82.3251 29.0
82.4088 26.0
82.4925 36.0
82.5762 26.0
82.6599 36.0
82.7436 31.0
82.8273 21.0
82.911 31.0
82.9947 23.0
83.0784 33.0
83.1621 19.0
83.2458 22.0
83.3295 37.0
83.4132 26.0
83.4969 31.0
83.5806 22.0
83.6643 37.0
83.7481 23.0
83.8318 28.0
83.9155 28.0
83.9992 22.0
84.0829 33.0
84.1666 17.0
84.2503 22.0
84.334 27.0
84.4177 30.0
84.5014 15.0
84.5851 21.0
84.6688 30.0
84.7525 29.0
84.8362 19.0
84.9199 32.0
85.0036 22.0
85.0873 28.0
85.171 21.0
85.2548 35.0
85.3385 15.0
85.4222 26.0
85.5059 28.0
85.5896 32.0
85.6733 22.0
85.757 34.0
85.8407 25.0
85.9244 23.0
86.0081 41.0
86.0918 11.0
86.1755 25.0
86.2592 25.0
86.3429 22.0
86.4266 24.0
86.5103 22.0
86.594 25.0
86.6777 36.0
86.7615 22.0
86.8452 29.0
86.9289 37.0
87.0126 28.0
87.0963 28.0
87.18 27.0
87.2637 27.0
87.3474 34.0
87.4311 28.0
87.5148 27.0
87.5985 34.0
87.6822 26.0
87.7659 28.0
87.8496 23.0
87.9333 30.0
88.017 33.0
88.1007 22.0
88.1844 39.0
88.2682 22.0
88.3519 25.0
88.4356 33.0
88.5193 27.0
88.603 31.0
88.6867 38.0
88.7704 24.0
88.8541 34.0
88.9378 39.0
89.0215 27.0
89.1052 28.0
89.1889 26.0
89.2726 28.0
89.3563 34.0
89.44 34.0
89.5237 33.0
89.6074 28.0
89.6911 31.0
89.7749 33.0
89.8586 28.0
89.9423 33.0
90.026 30.0
90.1097 27.0
90.1934 28.0
90.2771 28.0
90.3608 22.0
90.4445 25.0
90.5282 37.0
90.6119 34.0
90.6956 28.0
90.7793 24.0
90.863 29.0
90.9467 14.0
91.0304 23.0
91.1141 29.0
91.1978 16.0
91.2816 27.0
91.3653 21.0
91.449 25.0
91.5327 27.0
91.6164 25.0
91.7001 26.0
91.7838 27.0
91.8675 25.0
91.9512 22.0
92.0349 29.0
92.1186 26.0
92.2023 28.0
92.286 19.0
92.3697 26.0
92.4534 22.0
92.5371 29.0
92.6208 13.0
92.7045 26.0
92.7883 24.0
92.872 28.0
92.9557 29.0
93.0394 29.0
93.1231 27.0
93.2068 15.0
93.2905 36.0
93.3742 27.0
93.4579 28.0
93.5416 29.0
93.6253 31.0
93.709 32.0
93.7927 25.0
93.8764 21.0
93.9601 21.0
94.0438 24.0
94.1275 21.0
94.2112 29.0
94.295 24.0
94.3787 25.0
94.4624 27.0
94.5461 33.0
94.6298 21.0
94.7135 23.0
94.7972 36.0
94.8809 21.0
94.9646 37.0
95.0483 27.0
95.132 22.0
95.2157 27.0
95.2994 29.0
95.3831 24.0
95.4668 21.0
95.5505 26.0
95.6342 26.0
95.7179 21.0
95.8017 24.0
95.8854 23.0
95.9691 26.0
96.0528 33.0
96.1365 26.0
96.2202 31.0
96.3039 22.0
96.3876 20.0
96.4713 23.0
96.555 30.0
96.6387 26.0
96.7224 25.0
96.8061 25.0
96.8898 24.0
96.9735 19.0
97.0572 21.0
97.1409 27.0
97.2246 25.0
97.3084 34.0
97.3921 26.0
97.4758 25.0
97.5595 22.0
97.6432 31.0
97.7269 25.0
97.8106 30.0
97.8943 28.0
97.978 35.0
98.0617 20.0
98.1454 26.0
98.2291 29.0
98.3128 25.0
98.3965 31.0
98.4802 25.0
98.5639 27.0
98.6476 26.0
98.7313 22.0
98.8151 27.0
98.8988 35.0
98.9825 28.0
99.0662 43.0
99.1499 33.0
99.2336 23.0
99.3173 34.0
99.401 30.0
99.4847 26.0
99.5684 25.0
99.6521 29.0
99.7358 32.0
99.8195 21.0
99.9032 32.0
99.9869 22.0
100.071 27.0
100.154 28.0
100.238 27.0
100.322 29.0
100.405 31.0
100.489 22.0
100.573 33.0
100.657 16.0
100.74 23.0
100.824 22.0
100.908 30.0
100.991 30.0
101.075 21.0
101.159 28.0
101.243 21.0
101.326 24.0
101.41 15.0
101.494 28.0
101.577 30.0
101.661 33.0
101.745 32.0
101.828 33.0
101.912 32.0
101.996 22.0
102.08 31.0
102.163 35.0
102.247 34.0
102.331 27.0
102.414 30.0
102.498 25.0
102.582 28.0
102.666 27.0
102.749 28.0
102.833 19.0
102.917 20.0
103 19.0
103.084 29.0
103.168 31.0
103.251 29.0
103.335 21.0
103.419 25.0
103.503 31.0
103.586 32.0
103.67 29.0
103.754 20.0
103.837 29.0
103.921 23.0
104.005 29.0
104.089 34.0
104.172 23.0
104.256 39.0
104.34 32.0
104.423 40.0
104.507 25.0
104.591 33.0
104.674 33.0
104.758 28.0
104.842 25.0
104.926 27.0
105.009 27.0
105.093 25.0
105.177 23.0
105.26 31.0
105.344 31.0
105.428 24.0
105.511 40.0
105.595 31.0
105.679 23.0
105.763 22.0
105.846 26.0
105.93 32.0
106.014 26.0
106.097 43.0
106.181 28.0
106.265 24.0
106.349 27.0
106.432 28.0
106.516 34.0
106.6 21.0
106.683 28.0
106.767 25.0
106.851 39.0
106.934 31.0
107.018 25.0
107.102 28.0
107.186 23.0
107.269 30.0
107.353 28.0
107.437 28.0
107.52 23.0
107.604 25.0
107.688 26.0
107.772 41.0
107.855 29.0
107.939 22.0
108.023 23.0
108.106 23.0
108.19 30.0
108.274 27.0
108.357 28.0
108.441 28.0
108.525 21.0
108.609 30.0
108.692 31.0
108.776 40.0
108.86 47.0
108.943 28.0
109.027 40.0
109.111 19.0
109.195 27.0
109.278 27.0
109.362 25.0
109.446 24.0
109.529 21.0
109.613 20.0
109.697 32.0
109.78 24.0
109.864 29.0
109.948 28.0
110.032 21.0
110.115 40.0
110.199 21.0
110.283 31.0
110.366 30.0
110.45 31.0
110.534 25.0
110.618 25.0
110.701 40.0
110.785 33.0
110.869 32.0
110.952 18.0
111.036 24.0
111.12 29.0
111.203 16.0
111.287 21.0
111.371 30.0
111.455 33.0
111.538 36.0
111.622 38.0
111.706 18.0
111.789 35.0
111.873 39.0
111.957 30.0
112.041 22.0
112.124 37.0
112.208 35.0
112.292 27.0
112.375 28.0
112.459 31.0
112.543 32.0
112.626 24.0
112.71 36.0
112.794 29.0
112.878 36.0
112.961 21.0
113.045 29.0
113.129 38.0
113.212 21.0
113.296 34.0
113.38 37.0
113.464 27.0
113.547 32.0
113.631 35.0
113.715 25.0
113.798 32.0
113.882 32.0
113.966 43.0
114.049 23.0
114.133 28.0
114.217 29.0
114.301 35.0
114.384 31.0
114.468 23.0
114.552 32.0
114.635 28.0
114.719 29.0
114.803 29.0
114.887 19.0
114.97 32.0
115.054 34.0
115.138 29.0
115.221 42.0
115.305 24.0
115.389 28.0
115.472 20.0
115.556 34.0
115.64 34.0
115.724 23.0
115.807 27.0
115.891 22.0
115.975 33.0
116.058 34.0
116.142 41.0
116.226 32.0
116.31 37.0
116.393 22.0
116.477 37.0
116.561 34.0
116.644 22.0
116.728 25.0
116.812 39.0
116.895 35.0
116.979 32.0
117.063 23.0
117.147 40.0
117.23 37.0
117.314 32.0
117.398 33.0
117.481 37.0
117.565 33.0
117.649 19.0
117.733 34.0
117.816 25.0
117.9 30.0
117.984 36.0
118.067 29.0
118.151 27.0
118.235 34.0
118.318 34.0
118.402 31.0
118.486 25.0
118.57 27.0
118.653 36.0
118.737 44.0
118.821 28.0
118.904 27.0
118.988 40.0
119.072 23.0
119.156 30.0
119.239 30.0
119.323 42.0
119.407 38.0
119.49 24.0
119.574 36.0
119.658 14.0
119.741 17.0
119.825 32.0
119.909 23.0
119.993 26.0
120.076 29.0
120.16 30.0
120.244 22.0
120.327 23.0
120.411 24.0
120.495 38.0
120.578 37.0
120.662 24.0
120.746 23.0
120.83 21.0
120.913 32.0
120.997 20.0
121.081 23.0
121.164 33.0
121.248 32.0
121.332 30.0
121.416 24.0
121.499 25.0
121.583 26.0
121.667 32.0
121.75 22.0
121.834 35.0
121.918 31.0
122.001 25.0
122.085 40.0
122.169 34.0
122.253 31.0
122.336 32.0
122.42 39.0
122.504 29.0
122.587 30.0
122.671 33.0
122.755 21.0
122.839 28.0
122.922 22.0
123.006 23.0
123.09 23.0
123.173 25.0
123.257 29.0
123.341 40.0
123.424 29.0
123.508 32.0
123.592 25.0
123.676 26.0
123.759 39.0
123.843 31.0
123.927 24.0
124.01 34.0
124.094 21.0
124.178 27.0
124.262 24.0
124.345 30.0
124.429 37.0
124.513 35.0
124.596 29.0
124.68 26.0
124.764 34.0
124.847 23.0
124.931 32.0
125.015 25.0
125.099 29.0
125.182 25.0
125.266 41.0
125.35 26.0
125.433 34.0
125.517 34.0
125.601 25.0
125.685 15.0
125.768 32.0
125.852 23.0
125.936 34.0
126.019 22.0
126.103 29.0
126.187 28.0
126.27 37.0
126.354 31.0
126.438 20.0
126.522 31.0
126.605 25.0
126.689 26.0
126.773 37.0
126.856 32.0
126.94 38.0
127.024 27.0
127.108 25.0
127.191 28.0
127.275 45.0
127.359 30.0
127.442 32.0
127.526 36.0
127.61 24.0
127.693 25.0
127.777 31.0
127.861 36.0
127.945 32.0
128.028 24.0
128.112 23.0
128.196 30.0
128.279 46.0
128.363 23.0
128.447 25.0
128.531 32.0
128.614 31.0
128.698 26.0
128.782 23.0
128.865 21.0
128.949 30.0
129.033 34.0
129.116 34.0
129.2 26.0
129.284 29.0
129.368 30.0
129.451 24.0
129.535 45.0
129.619 21.0
129.702 28.0
129.786 29.0
129.87 21.0
129.954 33.0
129.998 30.0