File: data/W6933m/XRD_2ThetaOmega/w6933m_2theta
55.01000 0.0
55.03000 1.0
55.05000 1.0
55.07000 1.0
55.09000 0.0
55.11000 0.0
55.13000 2.0
55.15000 1.0
55.17000 0.0
55.19000 2.0
55.21000 1.0
55.23000 0.0
55.25000 0.0
55.27000 0.0
55.29000 2.0
55.31000 0.0
55.33000 1.0
55.35000 1.0
55.37000 0.0
55.39000 0.0
55.41000 0.0
55.43000 0.0
55.45000 0.0
55.47000 0.0
55.49000 1.0
55.51000 0.0
55.53000 1.0
55.55000 1.0
55.57000 0.0
55.59000 0.0
55.61000 1.0
55.63000 0.0
55.65000 1.0
55.67000 0.0
55.69000 1.0
55.71000 0.0
55.73000 0.0
55.75000 1.0
55.77000 0.0
55.79000 0.0
55.81000 0.0
55.83000 2.0
55.85000 0.0
55.87000 0.0
55.89000 2.0
55.91000 0.0
55.93000 0.0
55.95000 0.0
55.97000 2.0
55.99000 0.0
56.01000 2.0
56.03000 0.0
56.05000 0.0
56.07000 0.0
56.09000 2.0
56.11000 0.0
56.13000 1.0
56.15000 0.0
56.17000 0.0
56.19000 2.0
56.21000 2.0
56.23000 0.0
56.25000 0.0
56.27000 1.0
56.29000 0.0
56.31000 1.0
56.33000 0.0
56.35000 2.0
56.37000 1.0
56.39000 0.0
56.41000 0.0
56.43000 1.0
56.45000 2.0
56.47000 0.0
56.49000 0.0
56.51000 0.0
56.53000 1.0
56.55000 0.0
56.57000 2.0
56.59000 2.0
56.61000 1.0
56.63000 1.0
56.65000 2.0
56.67000 1.0
56.69000 0.0
56.71000 1.0
56.73000 1.0
56.75000 1.0
56.77000 0.0
56.79000 2.0
56.81000 1.0
56.83000 0.0
56.85000 1.0
56.87000 0.0
56.89000 1.0
56.91000 2.0
56.93000 0.0
56.95000 1.0
56.97000 0.0
56.99000 1.0
57.01000 0.0
57.03000 2.0
57.05000 4.0
57.07000 0.0
57.09000 1.0
57.11000 1.0
57.13000 2.0
57.15000 0.0
57.17000 1.0
57.19000 1.0
57.21000 1.0
57.23000 0.0
57.25000 2.0
57.27000 1.0
57.29000 2.0
57.31000 2.0
57.33000 0.0
57.35000 1.0
57.37000 0.0
57.39000 0.0
57.41000 1.0
57.43000 0.0
57.45000 0.0
57.47000 0.0
57.49000 1.0
57.51000 0.0
57.53000 1.0
57.55000 1.0
57.57000 1.0
57.59000 0.0
57.61000 0.0
57.63000 1.0
57.65000 2.0
57.67000 1.0
57.69000 2.0
57.71000 0.0
57.73000 1.0
57.75000 2.0
57.77000 0.0
57.79000 0.0
57.81000 1.0
57.83000 1.0
57.85000 1.0
57.87000 0.0
57.89000 0.0
57.91000 0.0
57.93000 1.0
57.95000 0.0
57.97000 1.0
57.99000 0.0
58.01000 0.0
58.03000 0.0
58.05000 0.0
58.07000 1.0
58.09000 0.0
58.11000 0.0
58.13000 1.0
58.15000 2.0
58.17000 1.0
58.19000 2.0
58.21000 0.0
58.23000 0.0
58.25000 0.0
58.27000 1.0
58.29000 0.0
58.31000 1.0
58.33000 0.0
58.35000 1.0
58.37000 2.0
58.39000 2.0
58.41000 1.0
58.43000 0.0
58.45000 0.0
58.47000 2.0
58.49000 0.0
58.51000 0.0
58.53000 2.0
58.55000 1.0
58.57000 0.0
58.59000 1.0
58.61000 0.0
58.63000 0.0
58.65000 0.0
58.67000 1.0
58.69000 2.0
58.71000 1.0
58.73000 1.0
58.75000 2.0
58.77000 0.0
58.79000 0.0
58.81000 0.0
58.83000 0.0
58.85000 0.0
58.87000 0.0
58.89000 0.0
58.91000 0.0
58.93000 1.0
58.95000 0.0
58.97000 1.0
58.99000 2.0
59.01000 1.0
59.03000 0.0
59.05000 0.0
59.07000 0.0
59.09000 0.0
59.11000 0.0
59.13000 0.0
59.15000 1.0
59.17000 0.0
59.19000 0.0
59.21000 0.0
59.23000 1.0
59.25000 1.0
59.27000 0.0
59.29000 1.0
59.31000 0.0
59.33000 0.0
59.35000 0.0
59.37000 0.0
59.39000 0.0
59.41000 1.0
59.43000 1.0
59.45000 0.0
59.47000 0.0
59.49000 1.0
59.51000 0.0
59.53000 1.0
59.55000 1.0
59.57000 1.0
59.59000 1.0
59.61000 2.0
59.63000 1.0
59.65000 0.0
59.67000 0.0
59.69000 0.0
59.71000 1.0
59.73000 1.0
59.75000 2.0
59.77000 0.0
59.79000 3.0
59.81000 0.0
59.83000 1.0
59.85000 0.0
59.87000 1.0
59.89000 1.0
59.91000 0.0
59.93000 0.0
59.95000 1.0
59.97000 0.0
59.99000 0.0
60.01000 0.0
60.03000 0.0
60.05000 2.0
60.07000 3.0
60.09000 1.0
60.11000 3.0
60.13000 1.0
60.15000 2.0
60.17000 0.0
60.19000 4.0
60.21000 3.0
60.23000 0.0
60.25000 0.0
60.27000 1.0
60.29000 1.0
60.31000 1.0
60.33000 1.0
60.35000 2.0
60.37000 1.0
60.39000 2.0
60.41000 2.0
60.43000 0.0
60.45000 1.0
60.47000 1.0
60.49000 0.0
60.51000 0.0
60.53000 0.0
60.55000 0.0
60.57000 0.0
60.59000 2.0
60.61000 0.0
60.63000 0.0
60.65000 0.0
60.67000 1.0
60.69000 1.0
60.71000 0.0
60.73000 2.0
60.75000 2.0
60.77000 1.0
60.79000 3.0
60.81000 0.0
60.83000 2.0
60.85000 2.0
60.87000 1.0
60.89000 0.0
60.91000 1.0
60.93000 2.0
60.95000 1.0
60.97000 2.0
60.99000 0.0
61.01000 2.0
61.03000 0.0
61.05000 1.0
61.07000 0.0
61.09000 1.0
61.11000 0.0
61.13000 0.0
61.15000 0.0
61.17000 0.0
61.19000 1.0
61.21000 0.0
61.23000 0.0
61.25000 0.0
61.27000 2.0
61.29000 1.0
61.31000 0.0
61.33000 0.0
61.35000 0.0
61.37000 0.0
61.39000 0.0
61.41000 1.0
61.43000 0.0
61.45000 1.0
61.47000 0.0
61.49000 1.0
61.51000 2.0
61.53000 0.0
61.55000 1.0
61.57000 0.0
61.59000 3.0
61.61000 1.0
61.63000 0.0
61.65000 2.0
61.67000 1.0
61.69000 1.0
61.71000 0.0
61.73000 0.0
61.75000 2.0
61.77000 0.0
61.79000 1.0
61.81000 2.0
61.83000 1.0
61.85000 0.0
61.87000 0.0
61.89000 1.0
61.91000 2.0
61.93000 1.0
61.95000 1.0
61.97000 0.0
61.99000 1.0
62.01000 2.0
62.03000 0.0
62.05000 3.0
62.07000 3.0
62.09000 0.0
62.11000 0.0
62.13000 1.0
62.15000 1.0
62.17000 0.0
62.19000 0.0
62.21000 0.0
62.23000 1.0
62.25000 3.0
62.27000 0.0
62.29000 1.0
62.31000 1.0
62.33000 1.0
62.35000 2.0
62.37000 1.0
62.39000 1.0
62.41000 0.0
62.43000 1.0
62.45000 3.0
62.47000 0.0
62.49000 0.0
62.51000 2.0
62.53000 1.0
62.55000 6.0
62.57000 0.0
62.59000 0.0
62.61000 5.0
62.63000 1.0
62.65000 0.0
62.67000 2.0
62.69000 2.0
62.71000 1.0
62.73000 1.0
62.75000 1.0
62.77000 2.0
62.79000 1.0
62.81000 1.0
62.83000 2.0
62.85000 1.0
62.87000 2.0
62.89000 2.0
62.91000 1.0
62.93000 1.0
62.95000 3.0
62.97000 2.0
62.99000 2.0
63.01000 3.0
63.03000 2.0
63.05000 3.0
63.07000 3.0
63.09000 2.0
63.11000 1.0
63.13000 2.0
63.15000 1.0
63.17000 2.0
63.19000 0.0
63.21000 3.0
63.23000 1.0
63.25000 3.0
63.27000 1.0
63.29000 2.0
63.31000 1.0
63.33000 0.0
63.35000 1.0
63.37000 2.0
63.39000 3.0
63.41000 0.0
63.43000 3.0
63.45000 2.0
63.47000 1.0
63.49000 4.0
63.51000 2.0
63.53000 2.0
63.55000 2.0
63.57000 2.0
63.59000 0.0
63.61000 5.0
63.63000 2.0
63.65000 1.0
63.67000 4.0
63.69000 3.0
63.71000 3.0
63.73000 7.0
63.75000 7.0
63.77000 3.0
63.79000 0.0
63.81000 3.0
63.83000 2.0
63.85000 5.0
63.87000 6.0
63.89000 2.0
63.91000 3.0
63.93000 4.0
63.95000 4.0
63.97000 2.0
63.99000 4.0
64.01000 5.0
64.03000 6.0
64.05000 6.0
64.07000 3.0
64.09000 9.0
64.11000 6.0
64.13000 6.0
64.15000 6.0
64.17000 4.0
64.19000 6.0
64.21000 6.0
64.23000 2.0
64.25000 5.0
64.27000 12.0
64.29000 9.0
64.31000 15.0
64.33000 10.0
64.35000 11.0
64.37000 14.0
64.39000 14.0
64.41000 11.0
64.43000 17.0
64.45000 19.0
64.47000 16.0
64.49000 24.0
64.51000 34.0
64.53000 27.0
64.55000 29.0
64.57000 36.0
64.59000 47.0
64.61000 44.0
64.63000 53.0
64.65000 71.0
64.67000 83.0
64.69000 92.0
64.71000 81.0
64.73000 109.0
64.75000 133.0
64.77000 150.0
64.79000 147.0
64.81000 199.0
64.83000 212.0
64.85000 255.0
64.87000 325.0
64.89000 376.0
64.91000 405.0
64.93000 483.0
64.95000 460.0
64.97000 501.0
64.99000 443.0
65.01000 435.0
65.03000 400.0
65.05000 372.0
65.07000 328.0
65.09000 354.0
65.11000 317.0
65.13000 302.0
65.15000 257.0
65.17000 245.0
65.19000 221.0
65.21000 190.0
65.23000 137.0
65.25000 112.0
65.27000 96.0
65.29000 79.0
65.31000 62.0
65.33000 68.0
65.35000 43.0
65.37000 39.0
65.39000 33.0
65.41000 40.0
65.43000 26.0
65.45000 24.0
65.47000 24.0
65.49000 17.0
65.51000 14.0
65.53000 15.0
65.55000 11.0
65.57000 9.0
65.59000 12.0
65.61000 10.0
65.63000 17.0
65.65000 11.0
65.67000 7.0
65.69000 11.0
65.71000 10.0
65.73000 4.0
65.75000 10.0
65.77000 9.0
65.79000 5.0
65.81000 6.0
65.83000 4.0
65.85000 4.0
65.87000 13.0
65.89000 7.0
65.91000 4.0
65.93000 7.0
65.95000 6.0
65.97000 5.0
65.99000 11.0
66.01000 5.0
66.03000 4.0
66.05000 0.0
66.07000 6.0
66.09000 3.0
66.11000 5.0
66.13000 2.0
66.15000 6.0
66.17000 2.0
66.19000 4.0
66.21000 1.0
66.23000 4.0
66.25000 9.0
66.27000 3.0
66.29000 8.0
66.31000 7.0
66.33000 3.0
66.35000 4.0
66.37000 4.0
66.39000 4.0
66.41000 5.0
66.43000 4.0
66.45000 10.0
66.47000 3.0
66.49000 5.0
66.51000 5.0
66.53000 7.0
66.55000 10.0
66.57000 5.0
66.59000 4.0
66.61000 10.0
66.63000 7.0
66.65000 8.0
66.67000 10.0
66.69000 5.0
66.71000 2.0
66.73000 4.0
66.75000 8.0
66.77000 7.0
66.79000 4.0
66.81000 5.0
66.83000 4.0
66.85000 8.0
66.87000 7.0
66.89000 7.0
66.91000 9.0
66.93000 12.0
66.95000 9.0
66.97000 13.0
66.99000 9.0
67.01000 5.0
67.03000 7.0
67.05000 9.0
67.07000 10.0
67.09000 13.0
67.11000 11.0
67.13000 8.0
67.15000 5.0
67.17000 17.0
67.19000 8.0
67.21000 18.0
67.23000 15.0
67.25000 24.0
67.27000 21.0
67.29000 19.0
67.31000 28.0
67.33000 16.0
67.35000 20.0
67.37000 18.0
67.39000 30.0
67.41000 15.0
67.43000 26.0
67.45000 42.0
67.47000 25.0
67.49000 38.0
67.51000 41.0
67.53000 36.0
67.55000 42.0
67.57000 51.0
67.59000 41.0
67.61000 48.0
67.63000 41.0
67.65000 55.0
67.67000 55.0
67.69000 75.0
67.71000 64.0
67.73000 67.0
67.75000 110.0
67.77000 105.0
67.79000 108.0
67.81000 174.0
67.83000 209.0
67.85000 277.0
67.87000 323.0
67.89000 444.0
67.91000 451.0
67.93000 430.0
67.95000 418.0
67.97000 426.0
67.99000 445.0
68.01000 514.0
68.03000 579.0
68.05000 747.0
68.07000 915.0
68.09000 1313.0
68.11000 1725.0
68.13000 2979.0
68.15000 6245.0
68.17000 20434.0
68.19000 38371.0
68.21000 24064.0
68.23000 9355.0
68.25000 4115.0
68.27000 2410.0
68.29000 1855.0
68.31000 1951.0
68.33000 2609.0
68.35000 5430.0
68.37000 14370.0
68.39000 19157.0
68.41000 10909.0
68.43000 4489.0
68.45000 2146.0
68.47000 1274.0
68.49000 941.0
68.51000 665.0
68.53000 569.0
68.55000 478.0
68.57000 413.0
68.59000 413.0
68.61000 346.0
68.63000 329.0
68.65000 292.0
68.67000 278.0
68.69000 197.0
68.71000 187.0
68.73000 145.0
68.75000 142.0
68.77000 134.0
68.79000 131.0
68.81000 119.0
68.83000 122.0
68.85000 103.0
68.87000 86.0
68.89000 87.0
68.91000 79.0
68.93000 82.0
68.95000 74.0
68.97000 69.0
68.99000 75.0
69.01000 60.0
69.03000 70.0
69.05000 72.0
69.07000 63.0
69.09000 57.0
69.11000 77.0
69.13000 58.0
69.15000 57.0
69.17000 64.0
69.19000 37.0
69.21000 32.0
69.23000 35.0
69.25000 50.0
69.27000 50.0
69.29000 42.0
69.31000 48.0
69.33000 47.0
69.35000 40.0
69.37000 37.0
69.39000 44.0
69.41000 35.0
69.43000 34.0
69.45000 41.0
69.47000 39.0
69.49000 42.0
69.51000 31.0
69.53000 29.0
69.55000 25.0
69.57000 29.0
69.59000 25.0
69.61000 23.0
69.63000 22.0
69.65000 30.0
69.67000 27.0
69.69000 16.0
69.71000 19.0
69.73000 19.0
69.75000 23.0
69.77000 26.0
69.79000 23.0
69.81000 25.0
69.83000 19.0
69.85000 21.0
69.87000 18.0
69.89000 23.0
69.91000 17.0
69.93000 21.0
69.95000 20.0
69.97000 20.0
69.99000 15.0
70.01000 15.0
70.03000 21.0
70.05000 13.0
70.07000 16.0
70.09000 18.0
70.11000 13.0
70.13000 16.0
70.15000 11.0
70.17000 13.0
70.19000 14.0
70.21000 10.0
70.23000 9.0
70.25000 15.0
70.27000 14.0
70.29000 8.0
70.31000 4.0
70.33000 7.0
70.35000 8.0
70.37000 16.0
70.39000 11.0
70.41000 6.0
70.43000 7.0
70.45000 8.0
70.47000 8.0
70.49000 9.0
70.51000 9.0
70.53000 8.0
70.55000 5.0
70.57000 9.0
70.59000 13.0
70.61000 16.0
70.63000 2.0
70.65000 6.0
70.67000 4.0
70.69000 9.0
70.71000 9.0
70.73000 7.0
70.75000 6.0
70.77000 5.0
70.79000 12.0
70.81000 4.0
70.83000 3.0
70.85000 6.0
70.87000 4.0
70.89000 3.0
70.91000 3.0
70.93000 4.0
70.95000 6.0
70.97000 2.0
70.99000 5.0
71.01000 7.0
71.03000 2.0
71.05000 5.0
71.07000 2.0
71.09000 3.0
71.11000 1.0
71.13000 4.0
71.15000 1.0
71.17000 1.0
71.19000 3.0
71.21000 8.0
71.23000 5.0
71.25000 3.0
71.27000 2.0
71.29000 2.0
71.31000 4.0
71.33000 1.0
71.35000 4.0
71.37000 5.0
71.39000 5.0
71.41000 4.0
71.43000 3.0
71.45000 2.0
71.47000 3.0
71.49000 3.0
71.51000 1.0
71.53000 1.0
71.55000 2.0
71.57000 0.0
71.59000 2.0
71.61000 2.0
71.63000 2.0
71.65000 1.0
71.67000 3.0
71.69000 5.0
71.71000 0.0
71.73000 1.0
71.75000 0.0
71.77000 3.0
71.79000 0.0
71.81000 1.0
71.83000 3.0
71.85000 4.0
71.87000 1.0
71.89000 0.0
71.91000 2.0
71.93000 4.0
71.95000 3.0
71.97000 1.0
71.99000 1.0
72.01000 1.0
72.03000 0.0
72.05000 2.0
72.07000 4.0
72.09000 2.0
72.11000 0.0
72.13000 1.0
72.15000 2.0
72.17000 2.0
72.19000 1.0
72.21000 1.0
72.23000 3.0
72.25000 1.0
72.27000 0.0
72.29000 2.0
72.31000 1.0
72.33000 3.0
72.35000 1.0
72.37000 0.0
72.39000 1.0
72.41000 2.0
72.43000 1.0
72.45000 2.0
72.47000 3.0
72.49000 5.0
72.51000 3.0
72.53000 1.0
72.55000 1.0
72.57000 0.0
72.59000 2.0
72.61000 2.0
72.63000 0.0
72.65000 0.0
72.67000 2.0
72.69000 0.0
72.71000 0.0
72.73000 2.0
72.75000 2.0
72.77000 1.0
72.79000 4.0
72.81000 0.0
72.83000 1.0
72.85000 2.0
72.87000 3.0
72.89000 0.0
72.91000 0.0
72.93000 1.0
72.95000 5.0
72.97000 4.0
72.99000 3.0
73.01000 0.0
73.03000 1.0
73.05000 2.0
73.07000 1.0
73.09000 1.0
73.11000 1.0
73.13000 1.0
73.15000 0.0
73.17000 1.0
73.19000 0.0
73.21000 0.0
73.23000 1.0
73.25000 1.0
73.27000 4.0
73.29000 3.0
73.31000 0.0
73.33000 2.0
73.35000 2.0
73.37000 1.0
73.39000 1.0
73.41000 1.0
73.43000 1.0
73.45000 1.0
73.47000 1.0
73.49000 3.0
73.51000 1.0
73.53000 0.0
73.55000 2.0
73.57000 0.0
73.59000 3.0
73.61000 2.0
73.63000 2.0
73.65000 3.0
73.67000 1.0
73.69000 2.0
73.71000 1.0
73.73000 0.0
73.75000 1.0
73.77000 5.0
73.79000 2.0
73.81000 1.0
73.83000 2.0
73.85000 0.0
73.87000 2.0
73.89000 1.0
73.91000 2.0
73.93000 1.0
73.95000 1.0
73.97000 1.0
73.99000 1.0
74.01000 0.0
74.03000 0.0
74.05000 3.0
74.07000 1.0
74.09000 1.0
74.11000 0.0
74.13000 0.0
74.15000 1.0
74.17000 2.0
74.19000 2.0
74.21000 1.0
74.23000 3.0
74.25000 0.0
74.27000 1.0
74.29000 1.0
74.31000 5.0
74.33000 0.0
74.35000 2.0
74.37000 2.0
74.39000 1.0
74.41000 0.0
74.43000 0.0
74.45000 2.0
74.47000 0.0
74.49000 1.0
74.51000 0.0
74.53000 1.0
74.55000 0.0
74.57000 0.0
74.59000 0.0
74.61000 2.0
74.63000 0.0
74.65000 3.0
74.67000 2.0
74.69000 0.0
74.71000 1.0
74.73000 1.0
74.75000 0.0
74.77000 0.0
74.79000 6.0
74.81000 1.0
74.83000 0.0
74.85000 0.0
74.87000 2.0
74.89000 2.0
74.91000 1.0
74.93000 0.0
74.95000 1.0
74.97000 1.0
74.99000 1.0