File: data/W6900a/XRD_Omega/scan_omega_4deg_step_0.005deg0_C1_1.xy
15.88750 74.0
15.89250 87.0
15.89750 68.0
15.90250 93.0
15.90750 73.0
15.91250 88.0
15.91750 97.0
15.92250 77.0
15.92750 66.0
15.93250 73.0
15.93750 81.0
15.94250 84.0
15.94750 78.0
15.95250 71.0
15.95750 86.0
15.96250 92.0
15.96750 86.0
15.97250 76.0
15.97750 68.0
15.98250 91.0
15.98750 59.0
15.99250 75.0
15.99750 83.0
16.00250 94.0
16.00750 64.0
16.01250 79.0
16.01750 72.0
16.02250 90.0
16.02750 77.0
16.03250 79.0
16.03750 76.0
16.04250 68.0
16.04750 77.0
16.05250 92.0
16.05750 79.0
16.06250 76.0
16.06750 94.0
16.07250 84.0
16.07750 93.0
16.08250 79.0
16.08750 94.0
16.09250 101.0
16.09750 69.0
16.10250 88.0
16.10750 94.0
16.11250 98.0
16.11750 79.0
16.12250 83.0
16.12750 80.0
16.13250 66.0
16.13750 88.0
16.14250 96.0
16.14750 74.0
16.15250 86.0
16.15750 93.0
16.16250 102.0
16.16750 104.0
16.17250 91.0
16.17750 76.0
16.18250 104.0
16.18750 88.0
16.19250 86.0
16.19750 108.0
16.20250 87.0
16.20750 107.0
16.21250 83.0
16.21750 85.0
16.22250 110.0
16.22750 89.0
16.23250 98.0
16.23750 101.0
16.24250 99.0
16.24750 105.0
16.25250 96.0
16.25750 100.0
16.26250 99.0
16.26750 103.0
16.27250 106.0
16.27750 96.0
16.28250 97.0
16.28750 86.0
16.29250 114.0
16.29750 108.0
16.30250 85.0
16.30750 110.0
16.31250 109.0
16.31750 116.0
16.32250 102.0
16.32750 112.0
16.33250 111.0
16.33750 131.0
16.34250 135.0
16.34750 125.0
16.35250 102.0
16.35750 109.0
16.36250 115.0
16.36750 102.0
16.37250 120.0
16.37750 103.0
16.38250 118.0
16.38750 124.0
16.39250 112.0
16.39750 100.0
16.40250 104.0
16.40750 133.0
16.41250 111.0
16.41750 123.0
16.42250 140.0
16.42750 137.0
16.43250 117.0
16.43750 108.0
16.44250 112.0
16.44750 128.0
16.45250 132.0
16.45750 136.0
16.46250 112.0
16.46750 128.0
16.47250 130.0
16.47750 113.0
16.48250 135.0
16.48750 137.0
16.49250 147.0
16.49750 111.0
16.50250 146.0
16.50750 129.0
16.51250 135.0
16.51750 132.0
16.52250 132.0
16.52750 154.0
16.53250 142.0
16.53750 136.0
16.54250 133.0
16.54750 126.0
16.55250 144.0
16.55750 147.0
16.56250 144.0
16.56750 152.0
16.57250 130.0
16.57750 178.0
16.58250 153.0
16.58750 133.0
16.59250 151.0
16.59750 157.0
16.60250 149.0
16.60750 157.0
16.61250 169.0
16.61750 172.0
16.62250 161.0
16.62750 161.0
16.63250 175.0
16.63750 149.0
16.64250 176.0
16.64750 183.0
16.65250 166.0
16.65750 204.0
16.66250 155.0
16.66750 170.0
16.67250 197.0
16.67750 186.0
16.68250 174.0
16.68750 185.0
16.69250 169.0
16.69750 190.0
16.70250 186.0
16.70750 185.0
16.71250 174.0
16.71750 198.0
16.72250 194.0
16.72750 186.0
16.73250 211.0
16.73750 193.0
16.74250 194.0
16.74750 175.0
16.75250 179.0
16.75750 220.0
16.76250 206.0
16.76750 235.0
16.77250 196.0
16.77750 183.0
16.78250 231.0
16.78750 223.0
16.79250 241.0
16.79750 230.0
16.80250 235.0
16.80750 234.0
16.81250 225.0
16.81750 215.0
16.82250 229.0
16.82750 242.0
16.83250 238.0
16.83750 260.0
16.84250 278.0
16.84750 254.0
16.85250 258.0
16.85750 264.0
16.86250 246.0
16.86750 259.0
16.87250 238.0
16.87750 271.0
16.88250 254.0
16.88750 283.0
16.89250 294.0
16.89750 264.0
16.90250 282.0
16.90750 271.0
16.91250 302.0
16.91750 289.0
16.92250 316.0
16.92750 325.0
16.93250 315.0
16.93750 289.0
16.94250 287.0
16.94750 328.0
16.95250 304.0
16.95750 362.0
16.96250 344.0
16.96750 321.0
16.97250 354.0
16.97750 330.0
16.98250 342.0
16.98750 340.0
16.99250 345.0
16.99750 377.0
17.00250 355.0
17.00750 356.0
17.01250 382.0
17.01750 394.0
17.02250 356.0
17.02750 366.0
17.03250 393.0
17.03750 378.0
17.04250 403.0
17.04750 402.0
17.05250 400.0
17.05750 417.0
17.06250 414.0
17.06750 408.0
17.07250 409.0
17.07750 434.0
17.08250 444.0
17.08750 425.0
17.09250 446.0
17.09750 459.0
17.10250 460.0
17.10750 472.0
17.11250 471.0
17.11750 475.0
17.12250 462.0
17.12750 500.0
17.13250 470.0
17.13750 487.0
17.14250 458.0
17.14750 497.0
17.15250 524.0
17.15750 499.0
17.16250 550.0
17.16750 521.0
17.17250 517.0
17.17750 567.0
17.18250 500.0
17.18750 581.0
17.19250 561.0
17.19750 602.0
17.20250 604.0
17.20750 552.0
17.21250 585.0
17.21750 594.0
17.22250 625.0
17.22750 609.0
17.23250 657.0
17.23750 636.0
17.24250 684.0
17.24750 621.0
17.25250 705.0
17.25750 604.0
17.26250 726.0
17.26750 683.0
17.27250 679.0
17.27750 721.0
17.28250 719.0
17.28750 721.0
17.29250 741.0
17.29750 778.0
17.30250 734.0
17.30750 787.0
17.31250 755.0
17.31750 761.0
17.32250 887.0
17.32750 764.0
17.33250 793.0
17.33750 817.0
17.34250 810.0
17.34750 803.0
17.35250 805.0
17.35750 862.0
17.36250 852.0
17.36750 863.0
17.37250 914.0
17.37750 917.0
17.38250 881.0
17.38750 912.0
17.39250 903.0
17.39750 995.0
17.40250 901.0
17.40750 960.0
17.41250 984.0
17.41750 1004.0
17.42250 1028.0
17.42750 1022.0
17.43250 1047.0
17.43750 1081.0
17.44250 1044.0
17.44750 1042.0
17.45250 1065.0
17.45750 1122.0
17.46250 1065.0
17.46750 1121.0
17.47250 1158.0
17.47750 1190.0
17.48250 1172.0
17.48750 1073.0
17.49250 1131.0
17.49750 1075.0
17.50250 1257.0
17.50750 1184.0
17.51250 1249.0
17.51750 1208.0
17.52250 1265.0
17.52750 1310.0
17.53250 1305.0
17.53750 1357.0
17.54250 1361.0
17.54750 1337.0
17.55250 1332.0
17.55750 1368.0
17.56250 1403.0
17.56750 1323.0
17.57250 1442.0
17.57750 1408.0
17.58250 1422.0
17.58750 1466.0
17.59250 1515.0
17.59750 1455.0
17.60250 1508.0
17.60750 1480.0
17.61250 1526.0
17.61750 1517.0
17.62250 1564.0
17.62750 1570.0
17.63250 1613.0
17.63750 1583.0
17.64250 1602.0
17.64750 1641.0
17.65250 1572.0
17.65750 1599.0
17.66250 1626.0
17.66750 1728.0
17.67250 1766.0
17.67750 1673.0
17.68250 1694.0
17.68750 1735.0
17.69250 1788.0
17.69750 1764.0
17.70250 1882.0
17.70750 1818.0
17.71250 1801.0
17.71750 1846.0
17.72250 1877.0
17.72750 1935.0
17.73250 1910.0
17.73750 2017.0
17.74250 2028.0
17.74750 2089.0
17.75250 2179.0
17.75750 2255.0
17.76250 2271.0
17.76750 2336.0
17.77250 2287.0
17.77750 2514.0
17.78250 2478.0
17.78750 2580.0
17.79250 2685.0
17.79750 2719.0
17.80250 2835.0
17.80750 3000.0
17.81250 3092.0
17.81750 3157.0
17.82250 3209.0
17.82750 3338.0
17.83250 3437.0
17.83750 3507.0
17.84250 3581.0
17.84750 3737.0
17.85250 3797.0
17.85750 3743.0
17.86250 3895.0
17.86750 3915.0
17.87250 3853.0
17.87750 3745.0
17.88250 3720.0
17.88750 3677.0
17.89250 3605.0
17.89750 3535.0
17.90250 3444.0
17.90750 3464.0
17.91250 3304.0
17.91750 3134.0
17.92250 3094.0
17.92750 3031.0
17.93250 2905.0
17.93750 2836.0
17.94250 2674.0
17.94750 2532.0
17.95250 2596.0
17.95750 2465.0
17.96250 2309.0
17.96750 2299.0
17.97250 2276.0
17.97750 2202.0
17.98250 2186.0
17.98750 2236.0
17.99250 2180.0
17.99750 2081.0
18.00250 2104.0
18.00750 2030.0
18.01250 2030.0
18.01750 1953.0
18.02250 1950.0
18.02750 1885.0
18.03250 1876.0
18.03750 1866.0
18.04250 1806.0
18.04750 1805.0
18.05250 1786.0
18.05750 1815.0
18.06250 1744.0
18.06750 1740.0
18.07250 1787.0
18.07750 1707.0
18.08250 1727.0
18.08750 1680.0
18.09250 1716.0
18.09750 1690.0
18.10250 1572.0
18.10750 1629.0
18.11250 1606.0
18.11750 1686.0
18.12250 1627.0
18.12750 1580.0
18.13250 1542.0
18.13750 1539.0
18.14250 1562.0
18.14750 1498.0
18.15250 1528.0
18.15750 1520.0
18.16250 1511.0
18.16750 1543.0
18.17250 1438.0
18.17750 1411.0
18.18250 1437.0
18.18750 1363.0
18.19250 1361.0
18.19750 1350.0
18.20250 1410.0
18.20750 1365.0
18.21250 1361.0
18.21750 1299.0
18.22250 1291.0
18.22750 1309.0
18.23250 1274.0
18.23750 1237.0
18.24250 1200.0
18.24750 1242.0
18.25250 1159.0
18.25750 1225.0
18.26250 1175.0
18.26750 1150.0
18.27250 1085.0
18.27750 1168.0
18.28250 1140.0
18.28750 1136.0
18.29250 1067.0
18.29750 1065.0
18.30250 1026.0
18.30750 1064.0
18.31250 1103.0
18.31750 1062.0
18.32250 1003.0
18.32750 1019.0
18.33250 989.0
18.33750 997.0
18.34250 982.0
18.34750 1054.0
18.35250 996.0
18.35750 909.0
18.36250 943.0
18.36750 946.0
18.37250 959.0
18.37750 924.0
18.38250 930.0
18.38750 923.0
18.39250 901.0
18.39750 873.0
18.40250 881.0
18.40750 782.0
18.41250 865.0
18.41750 813.0
18.42250 798.0
18.42750 789.0
18.43250 794.0
18.43750 799.0
18.44250 820.0
18.44750 775.0
18.45250 726.0
18.45750 730.0
18.46250 751.0
18.46750 779.0
18.47250 705.0
18.47750 692.0
18.48250 767.0
18.48750 675.0
18.49250 690.0
18.49750 642.0
18.50250 663.0
18.50750 622.0
18.51250 650.0
18.51750 617.0
18.52250 588.0
18.52750 565.0
18.53250 601.0
18.53750 607.0
18.54250 599.0
18.54750 607.0
18.55250 558.0
18.55750 577.0
18.56250 555.0
18.56750 542.0
18.57250 574.0
18.57750 527.0
18.58250 552.0
18.58750 557.0
18.59250 536.0
18.59750 496.0
18.60250 501.0
18.60750 529.0
18.61250 478.0
18.61750 500.0
18.62250 492.0
18.62750 489.0
18.63250 485.0
18.63750 457.0
18.64250 429.0
18.64750 478.0
18.65250 414.0
18.65750 443.0
18.66250 386.0
18.66750 394.0
18.67250 385.0
18.67750 448.0
18.68250 447.0
18.68750 469.0
18.69250 411.0
18.69750 395.0
18.70250 388.0
18.70750 373.0
18.71250 351.0
18.71750 408.0
18.72250 383.0
18.72750 380.0
18.73250 372.0
18.73750 376.0
18.74250 371.0
18.74750 376.0
18.75250 365.0
18.75750 354.0
18.76250 339.0
18.76750 374.0
18.77250 344.0
18.77750 331.0
18.78250 322.0
18.78750 334.0
18.79250 302.0
18.79750 308.0
18.80250 319.0
18.80750 302.0
18.81250 288.0
18.81750 307.0
18.82250 273.0
18.82750 263.0
18.83250 295.0
18.83750 293.0
18.84250 284.0
18.84750 288.0
18.85250 259.0
18.85750 282.0
18.86250 267.0
18.86750 288.0
18.87250 279.0
18.87750 260.0
18.88250 256.0
18.88750 278.0
18.89250 240.0
18.89750 227.0
18.90250 226.0
18.90750 245.0
18.91250 228.0
18.91750 235.0
18.92250 237.0
18.92750 233.0
18.93250 237.0
18.93750 200.0
18.94250 198.0
18.94750 263.0
18.95250 237.0
18.95750 229.0
18.96250 219.0
18.96750 219.0
18.97250 195.0
18.97750 203.0
18.98250 190.0
18.98750 227.0
18.99250 201.0
18.99750 201.0
19.00250 169.0
19.00750 195.0
19.01250 190.0
19.01750 200.0
19.02250 196.0
19.02750 191.0
19.03250 178.0
19.03750 166.0
19.04250 175.0
19.04750 172.0
19.05250 168.0
19.05750 183.0
19.06250 187.0
19.06750 164.0
19.07250 145.0
19.07750 192.0
19.08250 173.0
19.08750 176.0
19.09250 170.0
19.09750 179.0
19.10250 157.0
19.10750 191.0
19.11250 163.0
19.11750 142.0
19.12250 177.0
19.12750 171.0
19.13250 167.0
19.13750 146.0
19.14250 152.0
19.14750 130.0
19.15250 139.0
19.15750 156.0
19.16250 157.0
19.16750 149.0
19.17250 136.0
19.17750 150.0
19.18250 134.0
19.18750 153.0
19.19250 143.0
19.19750 134.0
19.20250 121.0
19.20750 150.0
19.21250 139.0
19.21750 144.0
19.22250 153.0
19.22750 138.0
19.23250 115.0
19.23750 102.0
19.24250 130.0
19.24750 117.0
19.25250 122.0
19.25750 133.0
19.26250 136.0
19.26750 131.0
19.27250 125.0
19.27750 128.0
19.28250 131.0
19.28750 143.0
19.29250 109.0
19.29750 100.0
19.30250 96.0
19.30750 127.0
19.31250 119.0
19.31750 102.0
19.32250 114.0
19.32750 125.0
19.33250 115.0
19.33750 115.0
19.34250 113.0
19.34750 97.0
19.35250 113.0
19.35750 119.0
19.36250 127.0
19.36750 112.0
19.37250 110.0
19.37750 97.0
19.38250 114.0
19.38750 120.0
19.39250 111.0
19.39750 99.0
19.40250 117.0
19.40750 107.0
19.41250 85.0
19.41750 95.0
19.42250 91.0
19.42750 120.0
19.43250 112.0
19.43750 82.0
19.44250 90.0
19.44750 91.0
19.45250 96.0
19.45750 73.0
19.46250 96.0
19.46750 95.0
19.47250 87.0
19.47750 79.0
19.48250 87.0
19.48750 102.0
19.49250 94.0
19.49750 86.0
19.50250 107.0
19.50750 105.0
19.51250 71.0
19.51750 97.0
19.52250 90.0
19.52750 86.0
19.53250 90.0
19.53750 93.0
19.54250 98.0
19.54750 91.0
19.55250 113.0
19.55750 92.0
19.56250 97.0
19.56750 85.0
19.57250 93.0
19.57750 76.0
19.58250 70.0
19.58750 84.0
19.59250 93.0
19.59750 87.0
19.60250 91.0
19.60750 87.0
19.61250 90.0
19.61750 75.0
19.62250 84.0
19.62750 61.0
19.63250 80.0
19.63750 89.0
19.64250 83.0
19.64750 84.0
19.65250 80.0
19.65750 81.0
19.66250 98.0
19.66750 78.0
19.67250 87.0
19.67750 65.0
19.68250 84.0
19.68750 87.0
19.69250 82.0
19.69750 72.0
19.70250 61.0
19.70750 73.0
19.71250 76.0
19.71750 67.0
19.72250 94.0
19.72750 74.0
19.73250 52.0
19.73750 69.0
19.74250 82.0
19.74750 76.0
19.75250 69.0
19.75750 65.0
19.76250 77.0
19.76750 62.0
19.77250 67.0
19.77750 61.0
19.78250 68.0
19.78750 64.0
19.79250 67.0
19.79750 55.0
19.80250 66.0
19.80750 67.0
19.81250 78.0
19.81750 70.0
19.82250 71.0
19.82750 77.0
19.83250 79.0
19.83750 74.0
19.84250 76.0
19.84750 83.0