File: data/W6908c/XRD_2ThetaOmega/scan_2th-om_c_Cr2O3_35-45deg_PIXscan_4min_C9.xy
35.0021 110.0
35.0119 96.0
35.0218 86.0
35.0316 112.0
35.0415 108.0
35.0513 126.0
35.0611 130.0
35.071 122.0
35.0808 104.0
35.0907 105.0
35.1005 113.0
35.1104 106.0
35.1202 131.0
35.1301 112.0
35.1399 106.0
35.1498 111.0
35.1596 122.0
35.1695 103.0
35.1793 118.0
35.1892 118.0
35.199 106.0
35.2089 118.0
35.2187 119.0
35.2286 108.0
35.2384 130.0
35.2483 85.0
35.2581 117.0
35.268 101.0
35.2778 105.0
35.2876 126.0
35.2975 117.0
35.3073 99.0
35.3172 114.0
35.327 105.0
35.3369 102.0
35.3467 86.0
35.3566 113.0
35.3664 114.0
35.3763 104.0
35.3861 104.0
35.396 114.0
35.4058 110.0
35.4157 103.0
35.4255 104.0
35.4354 99.0
35.4452 102.0
35.4551 100.0
35.4649 108.0
35.4748 116.0
35.4846 116.0
35.4944 91.0
35.5043 124.0
35.5141 98.0
35.524 120.0
35.5338 130.0
35.5437 120.0
35.5535 114.0
35.5634 114.0
35.5732 109.0
35.5831 114.0
35.5929 111.0
35.6028 124.0
35.6126 104.0
35.6225 102.0
35.6323 92.0
35.6422 99.0
35.652 96.0
35.6619 106.0
35.6717 106.0
35.6816 112.0
35.6914 118.0
35.7012 110.0
35.7111 124.0
35.7209 102.0
35.7308 122.0
35.7406 104.0
35.7505 81.0
35.7603 109.0
35.7702 130.0
35.78 109.0
35.7899 126.0
35.7997 112.0
35.8096 126.0
35.8194 113.0
35.8293 104.0
35.8391 113.0
35.849 109.0
35.8588 132.0
35.8687 121.0
35.8785 103.0
35.8884 103.0
35.8982 111.0
35.9081 105.0
35.9179 93.0
35.9277 90.0
35.9376 109.0
35.9474 104.0
35.9573 112.0
35.9671 111.0
35.977 115.0
35.9868 101.0
35.9967 102.0
36.0065 117.0
36.0164 107.0
36.0262 104.0
36.0361 126.0
36.0459 128.0
36.0558 106.0
36.0656 114.0
36.0755 122.0
36.0853 101.0
36.0952 117.0
36.105 101.0
36.1149 109.0
36.1247 97.0
36.1345 112.0
36.1444 110.0
36.1542 112.0
36.1641 116.0
36.1739 128.0
36.1838 102.0
36.1936 117.0
36.2035 124.0
36.2133 114.0
36.2232 118.0
36.233 108.0
36.2429 108.0
36.2527 119.0
36.2626 108.0
36.2724 106.0
36.2823 117.0
36.2921 97.0
36.302 101.0
36.3118 113.0
36.3217 109.0
36.3315 117.0
36.3414 116.0
36.3512 101.0
36.361 91.0
36.3709 114.0
36.3807 124.0
36.3906 116.0
36.4004 114.0
36.4103 113.0
36.4201 127.0
36.43 127.0
36.4398 96.0
36.4497 121.0
36.4595 117.0
36.4694 99.0
36.4792 127.0
36.4891 121.0
36.4989 100.0
36.5088 119.0
36.5186 102.0
36.5285 105.0
36.5383 105.0
36.5482 106.0
36.558 124.0
36.5678 119.0
36.5777 111.0
36.5875 112.0
36.5974 109.0
36.6072 111.0
36.6171 105.0
36.6269 129.0
36.6368 108.0
36.6466 120.0
36.6565 105.0
36.6663 94.0
36.6762 115.0
36.686 123.0
36.6959 123.0
36.7057 124.0
36.7156 109.0
36.7254 101.0
36.7353 123.0
36.7451 117.0
36.755 124.0
36.7648 100.0
36.7747 113.0
36.7845 122.0
36.7943 113.0
36.8042 109.0
36.814 92.0
36.8239 118.0
36.8337 114.0
36.8436 130.0
36.8534 131.0
36.8633 107.0
36.8731 108.0
36.883 102.0
36.8928 101.0
36.9027 121.0
36.9125 87.0
36.9224 125.0
36.9322 90.0
36.9421 107.0
36.9519 106.0
36.9618 114.0
36.9716 99.0
36.9815 115.0
36.9913 112.0
37.0011 107.0
37.011 105.0
37.0208 102.0
37.0307 120.0
37.0405 104.0
37.0504 128.0
37.0602 116.0
37.0701 100.0
37.0799 133.0
37.0898 122.0
37.0996 111.0
37.1095 95.0
37.1193 114.0
37.1292 109.0
37.139 118.0
37.1489 102.0
37.1587 111.0
37.1686 116.0
37.1784 120.0
37.1883 121.0
37.1981 122.0
37.2079 88.0
37.2178 110.0
37.2276 97.0
37.2375 114.0
37.2473 108.0
37.2572 108.0
37.267 119.0
37.2769 106.0
37.2867 120.0
37.2966 130.0
37.3064 116.0
37.3163 112.0
37.3261 127.0
37.336 103.0
37.3458 118.0
37.3557 112.0
37.3655 132.0
37.3754 182.0
37.3852 178.0
37.3951 209.0
37.4049 295.0
37.4148 336.0
37.4246 299.0
37.4344 308.0
37.4443 282.0
37.4541 200.0
37.464 139.0
37.4738 143.0
37.4837 129.0
37.4935 131.0
37.5034 121.0
37.5132 127.0
37.5231 111.0
37.5329 118.0
37.5428 102.0
37.5526 120.0
37.5625 124.0
37.5723 109.0
37.5822 118.0
37.592 118.0
37.6019 109.0
37.6117 118.0
37.6216 116.0
37.6314 98.0
37.6412 139.0
37.6511 118.0
37.6609 115.0
37.6708 118.0
37.6806 106.0
37.6905 102.0
37.7003 112.0
37.7102 127.0
37.72 121.0
37.7299 109.0
37.7397 117.0
37.7496 122.0
37.7594 108.0
37.7693 109.0
37.7791 120.0
37.789 116.0
37.7988 123.0
37.8087 153.0
37.8185 128.0
37.8284 145.0
37.8382 140.0
37.8481 111.0
37.8579 120.0
37.8677 99.0
37.8776 118.0
37.8874 127.0
37.8973 124.0
37.9071 122.0
37.917 146.0
37.9268 118.0
37.9367 135.0
37.9465 121.0
37.9564 124.0
37.9662 122.0
37.9761 147.0
37.9859 118.0
37.9958 127.0
38.0056 111.0
38.0155 119.0
38.0253 99.0
38.0352 121.0
38.045 111.0
38.0549 129.0
38.0647 122.0
38.0745 111.0
38.0844 125.0
38.0942 125.0
38.1041 111.0
38.1139 114.0
38.1238 122.0
38.1336 123.0
38.1435 112.0
38.1533 90.0
38.1632 126.0
38.173 137.0
38.1829 126.0
38.1927 117.0
38.2026 114.0
38.2124 115.0
38.2223 95.0
38.2321 126.0
38.242 135.0
38.2518 120.0
38.2617 115.0
38.2715 125.0
38.2814 115.0
38.2912 124.0
38.301 97.0
38.3109 112.0
38.3207 118.0
38.3306 104.0
38.3404 105.0
38.3503 112.0
38.3601 125.0
38.37 116.0
38.3798 123.0
38.3897 117.0
38.3995 131.0
38.4094 108.0
38.4192 138.0
38.4291 124.0
38.4389 134.0
38.4488 125.0
38.4586 142.0
38.4685 126.0
38.4783 114.0
38.4882 121.0
38.498 132.0
38.5078 138.0
38.5177 130.0
38.5275 133.0
38.5374 130.0
38.5472 130.0
38.5571 129.0
38.5669 150.0
38.5768 139.0
38.5866 130.0
38.5965 142.0
38.6063 133.0
38.6162 157.0
38.626 145.0
38.6359 162.0
38.6457 151.0
38.6556 132.0
38.6654 148.0
38.6753 164.0
38.6851 200.0
38.695 147.0
38.7048 178.0
38.7146 174.0
38.7245 181.0
38.7343 182.0
38.7442 186.0
38.754 202.0
38.7639 188.0
38.7737 176.0
38.7836 169.0
38.7934 210.0
38.8033 210.0
38.8131 194.0
38.823 183.0
38.8328 203.0
38.8427 201.0
38.8525 199.0
38.8624 182.0
38.8722 209.0
38.8821 195.0
38.8919 217.0
38.9018 265.0
38.9116 215.0
38.9215 211.0
38.9313 258.0
38.9411 223.0
38.951 198.0
38.9608 221.0
38.9707 217.0
38.9805 266.0
38.9904 264.0
39.0002 229.0
39.0101 277.0
39.0199 219.0
39.0298 259.0
39.0396 229.0
39.0495 274.0
39.0593 217.0
39.0692 284.0
39.079 219.0
39.0889 255.0
39.0987 230.0
39.1086 301.0
39.1184 274.0
39.1283 284.0
39.1381 261.0
39.1479 294.0
39.1578 237.0
39.1676 294.0
39.1775 276.0
39.1873 259.0
39.1972 258.0
39.207 293.0
39.2169 281.0
39.2267 274.0
39.2366 263.0
39.2464 229.0
39.2563 278.0
39.2661 225.0
39.276 221.0
39.2858 259.0
39.2957 276.0
39.3055 289.0
39.3154 270.0
39.3252 276.0
39.3351 260.0
39.3449 266.0
39.3548 272.0
39.3646 217.0
39.3744 235.0
39.3843 222.0
39.3941 282.0
39.404 214.0
39.4138 214.0
39.4237 217.0
39.4335 215.0
39.4434 210.0
39.4532 220.0
39.4631 228.0
39.4729 222.0
39.4828 205.0
39.4926 195.0
39.5025 227.0
39.5123 216.0
39.5222 214.0
39.532 188.0
39.5419 194.0
39.5517 185.0
39.5616 186.0
39.5714 203.0
39.5812 200.0
39.5911 172.0
39.6009 191.0
39.6108 189.0
39.6206 156.0
39.6305 159.0
39.6403 196.0
39.6502 168.0
39.66 187.0
39.6699 168.0
39.6797 142.0
39.6896 152.0
39.6994 192.0
39.7093 161.0
39.7191 167.0
39.729 149.0
39.7388 155.0
39.7487 163.0
39.7585 158.0
39.7684 152.0
39.7782 141.0
39.788 132.0
39.7979 130.0
39.8077 161.0
39.8176 170.0
39.8274 157.0
39.8373 146.0
39.8471 132.0
39.857 124.0
39.8668 130.0
39.8767 137.0
39.8865 142.0
39.8964 141.0
39.9062 114.0
39.9161 133.0
39.9259 125.0
39.9358 141.0
39.9456 148.0
39.9555 109.0
39.9653 127.0
39.9752 131.0
39.985 134.0
39.9949 135.0
40.0047 134.0
40.0145 123.0
40.0244 121.0
40.0342 143.0
40.0441 146.0
40.0539 142.0
40.0638 139.0
40.0736 117.0
40.0835 126.0
40.0933 112.0
40.1032 129.0
40.113 121.0
40.1229 136.0
40.1327 136.0
40.1426 121.0
40.1524 122.0
40.1623 112.0
40.1721 131.0
40.182 125.0
40.1918 116.0
40.2017 114.0
40.2115 145.0
40.2213 142.0
40.2312 125.0
40.241 135.0
40.2509 128.0
40.2607 122.0
40.2706 126.0
40.2804 146.0
40.2903 134.0
40.3001 157.0
40.31 146.0
40.3198 123.0
40.3297 134.0
40.3395 147.0
40.3494 159.0
40.3592 129.0
40.3691 149.0
40.3789 127.0
40.3888 161.0
40.3986 138.0
40.4085 146.0
40.4183 144.0
40.4282 155.0
40.438 128.0
40.4478 127.0
40.4577 149.0
40.4675 137.0
40.4774 145.0
40.4872 135.0
40.4971 131.0
40.5069 145.0
40.5168 148.0
40.5266 153.0
40.5365 148.0
40.5463 149.0
40.5562 160.0
40.566 154.0
40.5759 138.0
40.5857 124.0
40.5956 159.0
40.6054 157.0
40.6153 175.0
40.6251 158.0
40.635 140.0
40.6448 142.0
40.6546 149.0
40.6645 176.0
40.6743 150.0
40.6842 163.0
40.694 155.0
40.7039 158.0
40.7137 160.0
40.7236 167.0
40.7334 170.0
40.7433 153.0
40.7531 151.0
40.763 153.0
40.7728 185.0
40.7827 186.0
40.7925 160.0
40.8024 160.0
40.8122 178.0
40.8221 163.0
40.8319 162.0
40.8418 165.0
40.8516 179.0
40.8615 157.0
40.8713 183.0
40.8811 178.0
40.891 180.0
40.9008 166.0
40.9107 167.0
40.9205 175.0
40.9304 168.0
40.9402 213.0
40.9501 175.0
40.9599 175.0
40.9698 175.0
40.9796 172.0
40.9895 154.0
40.9993 169.0
41.0092 189.0
41.019 189.0
41.0289 179.0
41.0387 193.0
41.0486 174.0
41.0584 185.0
41.0683 227.0
41.0781 173.0
41.0879 203.0
41.0978 204.0
41.1076 194.0
41.1175 188.0
41.1273 200.0
41.1372 261.0
41.147 262.0
41.1569 222.0
41.1667 264.0
41.1766 270.0
41.1864 223.0
41.1963 269.0
41.2061 281.0
41.216 264.0
41.2258 281.0
41.2357 282.0
41.2455 261.0
41.2554 295.0
41.2652 294.0
41.2751 315.0
41.2849 309.0
41.2947 327.0
41.3046 327.0
41.3144 356.0
41.3243 349.0
41.3341 366.0
41.344 398.0
41.3538 432.0
41.3637 500.0
41.3735 521.0
41.3834 641.0
41.3932 770.0
41.4031 922.0
41.4129 896.0
41.4228 969.0
41.4326 983.0
41.4425 988.0
41.4523 1001.0
41.4622 954.0
41.472 1016.0
41.4819 1027.0
41.4917 1168.0
41.5016 1371.0
41.5114 1781.0
41.5212 2239.0
41.5311 3095.0
41.5409 4399.0
41.5508 7084.0
41.5606 14036.0
41.5705 34377.0
41.5803 53050.0
41.5902 60404.0
41.6 61953.0
41.6099 60301.0
41.6197 52454.0
41.6296 30558.0
41.6394 14236.0
41.6493 8455.0
41.6591 7023.0
41.669 9667.0
41.6788 17816.0
41.6887 26540.0
41.6985 30372.0
41.7084 31049.0
41.7182 29716.0
41.728 25450.0
41.7379 15501.0
41.7477 7414.0
41.7576 3889.0
41.7674 2450.0
41.7773 1724.0
41.7871 1390.0
41.797 1191.0
41.8068 917.0
41.8167 824.0
41.8265 779.0
41.8364 679.0
41.8462 681.0
41.8561 614.0
41.8659 555.0
41.8758 548.0
41.8856 470.0
41.8955 442.0
41.9053 399.0
41.9152 430.0
41.925 411.0
41.9349 432.0
41.9447 310.0
41.9545 363.0
41.9644 334.0
41.9742 326.0
41.9841 340.0
41.9939 294.0
42.0038 287.0
42.0136 313.0
42.0235 290.0
42.0333 282.0
42.0432 282.0
42.053 268.0
42.0629 224.0
42.0727 256.0
42.0826 273.0
42.0924 231.0
42.1023 194.0
42.1121 231.0
42.122 217.0
42.1318 220.0
42.1417 211.0
42.1515 187.0
42.1613 184.0
42.1712 194.0
42.181 198.0
42.1909 165.0
42.2007 171.0
42.2106 170.0
42.2204 169.0
42.2303 170.0
42.2401 177.0
42.25 179.0
42.2598 157.0
42.2697 180.0
42.2795 179.0
42.2894 157.0
42.2992 162.0
42.3091 154.0
42.3189 166.0
42.3288 159.0
42.3386 175.0
42.3485 150.0
42.3583 146.0
42.3682 172.0
42.378 150.0
42.3878 146.0
42.3977 158.0
42.4075 155.0
42.4174 165.0
42.4272 145.0
42.4371 146.0
42.4469 160.0
42.4568 153.0
42.4666 145.0
42.4765 143.0
42.4863 158.0
42.4962 125.0
42.506 150.0
42.5159 124.0
42.5257 155.0
42.5356 143.0
42.5454 127.0
42.5553 122.0
42.5651 133.0
42.575 139.0
42.5848 138.0
42.5946 142.0
42.6045 135.0
42.6143 132.0
42.6242 132.0
42.634 131.0
42.6439 123.0
42.6537 136.0
42.6636 134.0
42.6734 120.0
42.6833 129.0
42.6931 135.0
42.703 114.0
42.7128 133.0
42.7227 133.0
42.7325 113.0
42.7424 117.0
42.7522 135.0
42.7621 131.0
42.7719 139.0
42.7818 137.0
42.7916 138.0
42.8014 125.0
42.8113 146.0
42.8211 130.0
42.831 112.0
42.8408 136.0
42.8507 138.0
42.8605 143.0
42.8704 123.0
42.8802 132.0
42.8901 133.0
42.8999 146.0
42.9098 124.0
42.9196 125.0
42.9295 129.0
42.9393 121.0
42.9492 121.0
42.959 133.0
42.9689 115.0
42.9787 126.0
42.9886 121.0
42.9984 134.0
43.0083 123.0
43.0181 124.0
43.0279 114.0
43.0378 131.0
43.0476 138.0
43.0575 124.0
43.0673 130.0
43.0772 129.0
43.087 109.0
43.0969 123.0
43.1067 125.0
43.1166 119.0
43.1264 131.0
43.1363 122.0
43.1461 140.0
43.156 120.0
43.1658 114.0
43.1757 137.0
43.1855 126.0
43.1954 123.0
43.2052 116.0
43.2151 134.0
43.2249 129.0
43.2347 113.0
43.2446 121.0
43.2544 129.0
43.2643 129.0
43.2741 130.0
43.284 117.0
43.2938 133.0
43.3037 100.0
43.3135 111.0
43.3234 137.0
43.3332 125.0
43.3431 120.0
43.3529 129.0
43.3628 124.0
43.3726 118.0
43.3825 116.0
43.3923 103.0
43.4022 120.0
43.412 134.0
43.4219 120.0
43.4317 143.0
43.4416 125.0
43.4514 128.0
43.4612 124.0
43.4711 112.0
43.4809 120.0
43.4908 114.0
43.5006 108.0
43.5105 98.0
43.5203 134.0
43.5302 112.0
43.54 142.0
43.5499 131.0
43.5597 123.0
43.5696 131.0
43.5794 133.0
43.5893 128.0
43.5991 101.0
43.609 124.0
43.6188 148.0
43.6287 131.0
43.6385 116.0
43.6484 132.0
43.6582 121.0
43.668 132.0
43.6779 134.0
43.6877 132.0
43.6976 117.0
43.7074 144.0
43.7173 123.0
43.7271 143.0
43.737 124.0
43.7468 155.0
43.7567 141.0
43.7665 129.0
43.7764 127.0
43.7862 127.0
43.7961 131.0
43.8059 145.0
43.8158 145.0
43.8256 133.0
43.8355 129.0
43.8453 138.0
43.8552 143.0
43.865 136.0
43.8749 137.0
43.8847 146.0
43.8945 128.0
43.9044 141.0
43.9142 134.0
43.9241 149.0
43.9339 160.0
43.9438 170.0
43.9536 129.0
43.9635 129.0
43.9733 146.0
43.9832 160.0
43.993 166.0
44.0029 139.0
44.0127 145.0
44.0226 158.0
44.0324 150.0
44.0423 183.0
44.0521 131.0
44.062 142.0
44.0718 144.0
44.0817 161.0
44.0915 154.0
44.1013 162.0
44.1112 166.0
44.121 143.0
44.1309 182.0
44.1407 180.0
44.1506 180.0
44.1604 163.0
44.1703 200.0
44.1801 176.0
44.19 203.0
44.1998 185.0
44.2097 184.0
44.2195 176.0
44.2294 207.0
44.2392 199.0
44.2491 212.0
44.2589 203.0
44.2688 235.0
44.2786 241.0
44.2885 226.0
44.2983 227.0
44.3081 226.0
44.318 279.0
44.3278 283.0
44.3377 247.0
44.3475 302.0
44.3574 269.0
44.3672 268.0
44.3771 282.0
44.3869 276.0
44.3968 266.0
44.4066 286.0
44.4165 288.0
44.4263 279.0
44.4362 280.0
44.446 314.0
44.4559 295.0
44.4657 244.0
44.4756 237.0
44.4854 272.0
44.4953 292.0
44.5051 268.0
44.515 272.0
44.5248 256.0
44.5346 262.0
44.5445 239.0
44.5543 210.0
44.5642 237.0
44.574 214.0
44.5839 208.0
44.5937 216.0
44.6036 179.0
44.6134 192.0
44.6233 178.0
44.6331 160.0
44.643 161.0
44.6528 163.0
44.6627 156.0
44.6725 181.0
44.6824 132.0
44.6922 151.0
44.7021 158.0
44.7119 140.0
44.7218 122.0
44.7316 153.0
44.7414 148.0
44.7513 125.0
44.7611 137.0
44.771 158.0
44.7808 142.0
44.7907 141.0
44.8005 133.0
44.8104 121.0
44.8202 131.0
44.8301 130.0
44.8399 139.0
44.8498 140.0
44.8596 128.0
44.8695 154.0
44.8793 122.0
44.8892 138.0
44.899 137.0
44.9089 110.0
44.9187 139.0
44.9286 109.0
44.9384 123.0
44.9483 123.0
44.9581 131.0
44.9679 115.0
44.9778 125.0
44.9876 109.0
44.9975 135.0