File: data/W6910a/XRD_Omega/w6910a_a-Cr2O3_scan_omega_4deg_step_0.005deg0_1.xy
16.25690 459.0
16.26190 438.0
16.26690 443.0
16.27190 468.0
16.27690 429.0
16.28190 430.0
16.28690 481.0
16.29190 467.0
16.29690 467.0
16.30190 427.0
16.30690 482.0
16.31190 458.0
16.31690 482.0
16.32190 463.0
16.32690 451.0
16.33190 457.0
16.33690 512.0
16.34190 487.0
16.34690 484.0
16.35190 486.0
16.35690 496.0
16.36190 502.0
16.36690 508.0
16.37190 529.0
16.37690 500.0
16.38190 536.0
16.38690 541.0
16.39190 539.0
16.39690 515.0
16.40190 488.0
16.40690 518.0
16.41190 557.0
16.41690 500.0
16.42190 539.0
16.42690 522.0
16.43190 534.0
16.43690 508.0
16.44190 562.0
16.44690 556.0
16.45190 540.0
16.45690 522.0
16.46190 549.0
16.46690 572.0
16.47190 566.0
16.47690 583.0
16.48190 571.0
16.48690 616.0
16.49190 537.0
16.49690 601.0
16.50190 580.0
16.50690 630.0
16.51190 655.0
16.51690 593.0
16.52190 598.0
16.52690 604.0
16.53190 614.0
16.53690 623.0
16.54190 622.0
16.54690 565.0
16.55190 610.0
16.55690 599.0
16.56190 657.0
16.56690 666.0
16.57190 646.0
16.57690 675.0
16.58190 665.0
16.58690 645.0
16.59190 681.0
16.59690 654.0
16.60190 698.0
16.60690 691.0
16.61190 722.0
16.61690 703.0
16.62190 686.0
16.62690 757.0
16.63190 708.0
16.63690 724.0
16.64190 743.0
16.64690 704.0
16.65190 735.0
16.65690 763.0
16.66190 721.0
16.66690 742.0
16.67190 717.0
16.67690 825.0
16.68190 737.0
16.68690 770.0
16.69190 790.0
16.69690 809.0
16.70190 789.0
16.70690 795.0
16.71190 840.0
16.71690 811.0
16.72190 840.0
16.72690 776.0
16.73190 837.0
16.73690 838.0
16.74190 815.0
16.74690 865.0
16.75190 857.0
16.75690 878.0
16.76190 893.0
16.76690 952.0
16.77190 912.0
16.77690 880.0
16.78190 975.0
16.78690 877.0
16.79190 938.0
16.79690 960.0
16.80190 938.0
16.80690 930.0
16.81190 1001.0
16.81690 970.0
16.82190 965.0
16.82690 988.0
16.83190 1011.0
16.83690 968.0
16.84190 957.0
16.84690 1045.0
16.85190 991.0
16.85690 970.0
16.86190 1039.0
16.86690 1070.0
16.87190 1066.0
16.87690 1025.0
16.88190 1088.0
16.88690 1066.0
16.89190 1082.0
16.89690 1105.0
16.90190 1117.0
16.90690 1086.0
16.91190 1089.0
16.91690 1120.0
16.92190 1126.0
16.92690 1183.0
16.93190 1183.0
16.93690 1205.0
16.94190 1123.0
16.94690 1206.0
16.95190 1167.0
16.95690 1258.0
16.96190 1305.0
16.96690 1206.0
16.97190 1202.0
16.97690 1246.0
16.98190 1222.0
16.98690 1272.0
16.99190 1319.0
16.99690 1315.0
17.00190 1368.0
17.00690 1410.0
17.01190 1369.0
17.01690 1431.0
17.02190 1386.0
17.02690 1408.0
17.03190 1429.0
17.03690 1369.0
17.04190 1490.0
17.04690 1433.0
17.05190 1452.0
17.05690 1495.0
17.06190 1497.0
17.06690 1548.0
17.07190 1566.0
17.07690 1464.0
17.08190 1520.0
17.08690 1480.0
17.09190 1513.0
17.09690 1514.0
17.10190 1662.0
17.10690 1648.0
17.11190 1631.0
17.11690 1687.0
17.12190 1709.0
17.12690 1733.0
17.13190 1666.0
17.13690 1853.0
17.14190 1694.0
17.14690 1748.0
17.15190 1779.0
17.15690 1759.0
17.16190 1770.0
17.16690 1774.0
17.17190 1837.0
17.17690 1788.0
17.18190 1835.0
17.18690 1811.0
17.19190 1865.0
17.19690 1881.0
17.20190 1946.0
17.20690 1972.0
17.21190 1972.0
17.21690 2021.0
17.22190 2017.0
17.22690 2058.0
17.23190 1923.0
17.23690 2166.0
17.24190 2092.0
17.24690 2148.0
17.25190 2142.0
17.25690 2239.0
17.26190 2288.0
17.26690 2317.0
17.27190 2198.0
17.27690 2169.0
17.28190 2209.0
17.28690 2352.0
17.29190 2245.0
17.29690 2321.0
17.30190 2390.0
17.30690 2430.0
17.31190 2335.0
17.31690 2482.0
17.32190 2418.0
17.32690 2532.0
17.33190 2556.0
17.33690 2509.0
17.34190 2584.0
17.34690 2588.0
17.35190 2609.0
17.35690 2727.0
17.36190 2756.0
17.36690 2730.0
17.37190 2777.0
17.37690 2964.0
17.38190 2725.0
17.38690 2770.0
17.39190 2823.0
17.39690 2870.0
17.40190 2961.0
17.40690 2902.0
17.41190 2953.0
17.41690 3041.0
17.42190 3056.0
17.42690 2960.0
17.43190 3109.0
17.43690 3067.0
17.44190 3242.0
17.44690 3226.0
17.45190 3283.0
17.45690 3368.0
17.46190 3300.0
17.46690 3275.0
17.47190 3466.0
17.47690 3416.0
17.48190 3383.0
17.48690 3409.0
17.49190 3540.0
17.49690 3522.0
17.50190 3642.0
17.50690 3616.0
17.51190 3728.0
17.51690 3617.0
17.52190 3694.0
17.52690 3795.0
17.53190 3815.0
17.53690 3865.0
17.54190 3895.0
17.54690 3979.0
17.55190 3995.0
17.55690 4053.0
17.56190 4061.0
17.56690 4150.0
17.57190 4186.0
17.57690 4134.0
17.58190 4139.0
17.58690 4303.0
17.59190 4146.0
17.59690 4436.0
17.60190 4439.0
17.60690 4454.0
17.61190 4435.0
17.61690 4709.0
17.62190 4654.0
17.62690 4626.0
17.63190 4784.0
17.63690 4599.0
17.64190 4800.0
17.64690 4912.0
17.65190 4823.0
17.65690 4942.0
17.66190 4951.0
17.66690 5116.0
17.67190 5019.0
17.67690 5258.0
17.68190 5229.0
17.68690 5230.0
17.69190 5291.0
17.69690 5446.0
17.70190 5378.0
17.70690 5438.0
17.71190 5389.0
17.71690 5620.0
17.72190 5660.0
17.72690 5783.0
17.73190 5629.0
17.73690 5740.0
17.74190 5787.0
17.74690 5718.0
17.75190 5908.0
17.75690 6002.0
17.76190 5914.0
17.76690 6132.0
17.77190 6237.0
17.77690 6255.0
17.78190 6292.0
17.78690 6360.0
17.79190 6428.0
17.79690 6509.0
17.80190 6577.0
17.80690 6700.0
17.81190 6561.0
17.81690 6745.0
17.82190 6635.0
17.82690 6861.0
17.83190 6815.0
17.83690 6981.0
17.84190 7173.0
17.84690 7183.0
17.85190 7251.0
17.85690 7026.0
17.86190 7390.0
17.86690 7512.0
17.87190 7676.0
17.87690 7538.0
17.88190 7514.0
17.88690 7386.0
17.89190 7712.0
17.89690 7680.0
17.90190 7710.0
17.90690 7887.0
17.91190 7815.0
17.91690 7985.0
17.92190 8034.0
17.92690 8213.0
17.93190 8325.0
17.93690 8244.0
17.94190 8266.0
17.94690 8071.0
17.95190 8175.0
17.95690 8369.0
17.96190 8548.0
17.96690 8499.0
17.97190 8570.0
17.97690 8669.0
17.98190 8851.0
17.98690 8939.0
17.99190 8997.0
17.99690 8862.0
18.00190 9133.0
18.00690 8979.0
18.01190 9218.0
18.01690 8975.0
18.02190 9084.0
18.02690 9407.0
18.03190 9616.0
18.03690 9504.0
18.04190 9509.0
18.04690 9421.0
18.05190 9539.0
18.05690 9566.0
18.06190 9550.0
18.06690 9785.0
18.07190 9727.0
18.07690 9818.0
18.08190 9987.0
18.08690 10056.0
18.09190 9932.0
18.09690 10171.0
18.10190 10116.0
18.10690 10220.0
18.11190 10249.0
18.11690 10291.0
18.12190 10680.0
18.12690 10668.0
18.13190 10890.0
18.13690 10838.0
18.14190 11212.0
18.14690 11208.0
18.15190 11452.0
18.15690 11104.0
18.16190 11520.0
18.16690 11388.0
18.17190 11562.0
18.17690 11472.0
18.18190 11819.0
18.18690 12150.0
18.19190 12232.0
18.19690 12303.0
18.20190 12510.0
18.20690 12930.0
18.21190 12989.0
18.21690 13016.0
18.22190 13245.0
18.22690 13249.0
18.23190 13250.0
18.23690 13329.0
18.24190 13081.0
18.24690 13321.0
18.25190 12875.0
18.25690 12671.0
18.26190 12498.0
18.26690 12214.0
18.27190 12134.0
18.27690 12267.0
18.28190 12077.0
18.28690 11902.0
18.29190 11660.0
18.29690 11479.0
18.30190 11259.0
18.30690 11224.0
18.31190 11077.0
18.31690 10758.0
18.32190 10798.0
18.32690 10636.0
18.33190 10703.0
18.33690 10538.0
18.34190 10654.0
18.34690 10558.0
18.35190 10521.0
18.35690 10339.0
18.36190 10168.0
18.36690 10261.0
18.37190 10167.0
18.37690 10162.0
18.38190 10335.0
18.38690 9976.0
18.39190 10277.0
18.39690 9737.0
18.40190 9740.0
18.40690 9747.0
18.41190 9780.0
18.41690 9566.0
18.42190 9545.0
18.42690 9457.0
18.43190 9433.0
18.43690 9298.0
18.44190 9132.0
18.44690 9321.0
18.45190 9335.0
18.45690 9279.0
18.46190 8854.0
18.46690 8948.0
18.47190 8961.0
18.47690 8700.0
18.48190 8756.0
18.48690 8524.0
18.49190 8672.0
18.49690 8672.0
18.50190 8551.0
18.50690 8428.0
18.51190 8261.0
18.51690 8211.0
18.52190 8310.0
18.52690 8344.0
18.53190 8056.0
18.53690 7948.0
18.54190 7947.0
18.54690 7783.0
18.55190 7721.0
18.55690 7710.0
18.56190 7631.0
18.56690 7758.0
18.57190 7622.0
18.57690 7440.0
18.58190 7477.0
18.58690 7428.0
18.59190 7316.0
18.59690 7332.0
18.60190 7108.0
18.60690 7145.0
18.61190 6992.0
18.61690 6944.0
18.62190 6866.0
18.62690 6761.0
18.63190 6744.0
18.63690 6624.0
18.64190 6715.0
18.64690 6551.0
18.65190 6522.0
18.65690 6445.0
18.66190 6313.0
18.66690 6413.0
18.67190 6265.0
18.67690 6171.0
18.68190 6157.0
18.68690 5945.0
18.69190 6118.0
18.69690 6022.0
18.70190 5947.0
18.70690 5822.0
18.71190 5887.0
18.71690 5634.0
18.72190 5739.0
18.72690 5634.0
18.73190 5491.0
18.73690 5537.0
18.74190 5581.0
18.74690 5528.0
18.75190 5479.0
18.75690 5301.0
18.76190 5318.0
18.76690 5253.0
18.77190 5197.0
18.77690 5116.0
18.78190 5065.0
18.78690 4991.0
18.79190 5036.0
18.79690 4946.0
18.80190 4899.0
18.80690 4896.0
18.81190 4862.0
18.81690 4706.0
18.82190 4668.0
18.82690 4557.0
18.83190 4425.0
18.83690 4430.0
18.84190 4419.0
18.84690 4471.0
18.85190 4448.0
18.85690 4407.0
18.86190 4300.0
18.86690 4291.0
18.87190 4222.0
18.87690 4154.0
18.88190 3955.0
18.88690 4073.0
18.89190 4003.0
18.89690 3997.0
18.90190 3929.0
18.90690 3849.0
18.91190 3899.0
18.91690 3782.0
18.92190 3812.0
18.92690 3751.0
18.93190 3721.0
18.93690 3553.0
18.94190 3624.0
18.94690 3573.0
18.95190 3576.0
18.95690 3538.0
18.96190 3413.0
18.96690 3324.0
18.97190 3446.0
18.97690 3302.0
18.98190 3182.0
18.98690 3375.0
18.99190 3245.0
18.99690 3210.0
19.00190 3100.0
19.00690 3058.0
19.01190 3043.0
19.01690 2999.0
19.02190 2971.0
19.02690 2987.0
19.03190 2958.0
19.03690 2920.0
19.04190 2923.0
19.04690 2766.0
19.05190 2808.0
19.05690 2774.0
19.06190 2723.0
19.06690 2740.0
19.07190 2671.0
19.07690 2665.0
19.08190 2634.0
19.08690 2553.0
19.09190 2476.0
19.09690 2539.0
19.10190 2547.0
19.10690 2426.0
19.11190 2462.0
19.11690 2387.0
19.12190 2384.0
19.12690 2368.0
19.13190 2355.0
19.13690 2318.0
19.14190 2233.0
19.14690 2260.0
19.15190 2202.0
19.15690 2196.0
19.16190 2159.0
19.16690 2203.0
19.17190 2152.0
19.17690 2102.0
19.18190 2032.0
19.18690 2013.0
19.19190 2044.0
19.19690 1975.0
19.20190 2019.0
19.20690 2034.0
19.21190 1960.0
19.21690 2024.0
19.22190 1876.0
19.22690 1897.0
19.23190 1891.0
19.23690 1891.0
19.24190 1797.0
19.24690 1915.0
19.25190 1740.0
19.25690 1859.0
19.26190 1780.0
19.26690 1776.0
19.27190 1805.0
19.27690 1654.0
19.28190 1702.0
19.28690 1712.0
19.29190 1643.0
19.29690 1576.0
19.30190 1677.0
19.30690 1625.0
19.31190 1577.0
19.31690 1616.0
19.32190 1541.0
19.32690 1496.0
19.33190 1487.0
19.33690 1462.0
19.34190 1459.0
19.34690 1379.0
19.35190 1446.0
19.35690 1408.0
19.36190 1363.0
19.36690 1416.0
19.37190 1384.0
19.37690 1431.0
19.38190 1356.0
19.38690 1324.0
19.39190 1305.0
19.39690 1353.0
19.40190 1340.0
19.40690 1319.0
19.41190 1340.0
19.41690 1311.0
19.42190 1239.0
19.42690 1228.0
19.43190 1288.0
19.43690 1279.0
19.44190 1216.0
19.44690 1197.0
19.45190 1234.0
19.45690 1263.0
19.46190 1207.0
19.46690 1177.0
19.47190 1111.0
19.47690 1146.0
19.48190 1134.0
19.48690 1155.0
19.49190 1083.0
19.49690 1105.0
19.50190 1047.0
19.50690 1058.0
19.51190 1060.0
19.51690 1037.0
19.52190 1095.0
19.52690 1033.0
19.53190 1018.0
19.53690 1005.0
19.54190 962.0
19.54690 971.0
19.55190 979.0
19.55690 934.0
19.56190 993.0
19.56690 947.0
19.57190 947.0
19.57690 941.0
19.58190 946.0
19.58690 911.0
19.59190 946.0
19.59690 918.0
19.60190 891.0
19.60690 847.0
19.61190 868.0
19.61690 928.0
19.62190 826.0
19.62690 862.0
19.63190 858.0
19.63690 836.0
19.64190 836.0
19.64690 901.0
19.65190 875.0
19.65690 823.0
19.66190 818.0
19.66690 760.0
19.67190 887.0
19.67690 780.0
19.68190 815.0
19.68690 751.0
19.69190 759.0
19.69690 773.0
19.70190 805.0
19.70690 779.0
19.71190 763.0
19.71690 724.0
19.72190 707.0
19.72690 700.0
19.73190 717.0
19.73690 694.0
19.74190 652.0
19.74690 639.0
19.75190 696.0
19.75690 672.0
19.76190 684.0
19.76690 662.0
19.77190 646.0
19.77690 682.0
19.78190 650.0
19.78690 614.0
19.79190 681.0
19.79690 631.0
19.80190 665.0
19.80690 641.0
19.81190 663.0
19.81690 619.0
19.82190 608.0
19.82690 612.0
19.83190 606.0
19.83690 596.0
19.84190 636.0
19.84690 593.0
19.85190 632.0
19.85690 557.0
19.86190 592.0
19.86690 560.0
19.87190 567.0
19.87690 553.0
19.88190 558.0
19.88690 570.0
19.89190 569.0
19.89690 505.0
19.90190 535.0
19.90690 588.0
19.91190 557.0
19.91690 502.0
19.92190 480.0
19.92690 516.0
19.93190 549.0
19.93690 537.0
19.94190 539.0
19.94690 498.0
19.95190 493.0
19.95690 484.0
19.96190 513.0
19.96690 507.0
19.97190 486.0
19.97690 487.0
19.98190 468.0
19.98690 486.0
19.99190 458.0
19.99690 471.0
20.00190 450.0
20.00690 468.0
20.01190 476.0
20.01690 455.0
20.02190 427.0
20.02690 482.0
20.03190 456.0
20.03690 431.0
20.04190 435.0
20.04690 435.0
20.05190 427.0
20.05690 432.0
20.06190 435.0
20.06690 397.0
20.07190 464.0
20.07690 439.0
20.08190 468.0
20.08690 400.0
20.09190 384.0
20.09690 383.0
20.10190 400.0
20.10690 425.0
20.11190 392.0
20.11690 412.0
20.12190 449.0
20.12690 416.0
20.13190 385.0
20.13690 387.0
20.14190 404.0
20.14690 403.0
20.15190 406.0
20.15690 393.0
20.16190 396.0
20.16690 386.0
20.17190 392.0
20.17690 360.0
20.18190 347.0
20.18690 344.0
20.19190 347.0
20.19690 362.0
20.20190 384.0
20.20690 374.0
20.21190 350.0
20.21690 360.0