File: data/W6816c1/XRD_2ThetaOmega/W6816c1_absolute_2th-om_10-130deg_PIXscan_17min_11.xy
10.0035 19.0
10.0872 14.0
10.1709 16.0
10.2546 19.0
10.3383 21.0
10.422 28.0
10.5057 21.0
10.5894 20.0
10.6731 27.0
10.7568 19.0
10.8405 33.0
10.9242 18.0
11.0079 25.0
11.0916 20.0
11.1753 15.0
11.259 16.0
11.3428 27.0
11.4265 20.0
11.5102 17.0
11.5939 18.0
11.6776 28.0
11.7613 25.0
11.845 28.0
11.9287 19.0
12.0124 21.0
12.0961 32.0
12.1798 24.0
12.2635 15.0
12.3472 21.0
12.4309 19.0
12.5146 21.0
12.5983 25.0
12.682 17.0
12.7657 21.0
12.8495 21.0
12.9332 26.0
13.0169 21.0
13.1006 12.0
13.1843 15.0
13.268 21.0
13.3517 24.0
13.4354 19.0
13.5191 16.0
13.6028 21.0
13.6865 28.0
13.7702 22.0
13.8539 22.0
13.9376 19.0
14.0213 26.0
14.105 19.0
14.1887 19.0
14.2724 20.0
14.3562 22.0
14.4399 23.0
14.5236 21.0
14.6073 23.0
14.691 20.0
14.7747 24.0
14.8584 24.0
14.9421 20.0
15.0258 23.0
15.1095 18.0
15.1932 20.0
15.2769 18.0
15.3606 20.0
15.4443 18.0
15.528 17.0
15.6117 27.0
15.6954 15.0
15.7791 14.0
15.8629 11.0
15.9466 15.0
16.0303 14.0
16.114 16.0
16.1977 16.0
16.2814 20.0
16.3651 18.0
16.4488 21.0
16.5325 17.0
16.6162 16.0
16.6999 19.0
16.7836 13.0
16.8673 20.0
16.951 16.0
17.0347 17.0
17.1184 14.0
17.2021 17.0
17.2858 20.0
17.3696 12.0
17.4533 16.0
17.537 18.0
17.6207 11.0
17.7044 18.0
17.7881 22.0
17.8718 15.0
17.9555 19.0
18.0392 18.0
18.1229 19.0
18.2066 27.0
18.2903 21.0
18.374 18.0
18.4577 12.0
18.5414 17.0
18.6251 19.0
18.7088 21.0
18.7925 17.0
18.8763 19.0
18.96 15.0
19.0437 15.0
19.1274 20.0
19.2111 18.0
19.2948 12.0
19.3785 26.0
19.4622 12.0
19.5459 21.0
19.6296 16.0
19.7133 12.0
19.797 14.0
19.8807 17.0
19.9644 20.0
20.0481 10.0
20.1318 17.0
20.2155 21.0
20.2992 18.0
20.383 26.0
20.4667 22.0
20.5504 17.0
20.6341 11.0
20.7178 16.0
20.8015 12.0
20.8852 13.0
20.9689 16.0
21.0526 18.0
21.1363 16.0
21.22 12.0
21.3037 20.0
21.3874 15.0
21.4711 9.0
21.5548 17.0
21.6385 20.0
21.7222 21.0
21.8059 22.0
21.8897 17.0
21.9734 20.0
22.0571 12.0
22.1408 14.0
22.2245 18.0
22.3082 17.0
22.3919 13.0
22.4756 14.0
22.5593 22.0
22.643 9.0
22.7267 17.0
22.8104 19.0
22.8941 19.0
22.9778 14.0
23.0615 11.0
23.1452 13.0
23.2289 17.0
23.3126 14.0
23.3964 19.0
23.4801 17.0
23.5638 20.0
23.6475 14.0
23.7312 10.0
23.8149 13.0
23.8986 6.0
23.9823 11.0
24.066 10.0
24.1497 10.0
24.2334 16.0
24.3171 10.0
24.4008 12.0
24.4845 10.0
24.5682 18.0
24.6519 14.0
24.7356 13.0
24.8193 13.0
24.9031 16.0
24.9868 16.0
25.0705 12.0
25.1542 15.0
25.2379 10.0
25.3216 14.0
25.4053 9.0
25.489 19.0
25.5727 7.0
25.6564 18.0
25.7401 14.0
25.8238 16.0
25.9075 10.0
25.9912 8.0
26.0749 13.0
26.1586 14.0
26.2423 21.0
26.326 12.0
26.4098 7.0
26.4935 17.0
26.5772 12.0
26.6609 12.0
26.7446 18.0
26.8283 12.0
26.912 14.0
26.9957 16.0
27.0794 11.0
27.1631 17.0
27.2468 15.0
27.3305 16.0
27.4142 14.0
27.4979 11.0
27.5816 14.0
27.6653 12.0
27.749 6.0
27.8327 7.0
27.9165 10.0
28.0002 16.0
28.0839 17.0
28.1676 14.0
28.2513 12.0
28.335 18.0
28.4187 13.0
28.5024 13.0
28.5861 9.0
28.6698 11.0
28.7535 17.0
28.8372 9.0
28.9209 14.0
29.0046 10.0
29.0883 7.0
29.172 12.0
29.2557 6.0
29.3394 7.0
29.4232 18.0
29.5069 5.0
29.5906 12.0
29.6743 14.0
29.758 12.0
29.8417 12.0
29.9254 19.0
30.0091 10.0
30.0928 11.0
30.1765 13.0
30.2602 12.0
30.3439 7.0
30.4276 13.0
30.5113 12.0
30.595 7.0
30.6787 7.0
30.7624 11.0
30.8461 15.0
30.9298 10.0
31.0136 11.0
31.0973 7.0
31.181 16.0
31.2647 15.0
31.3484 7.0
31.4321 10.0
31.5158 18.0
31.5995 18.0
31.6832 8.0
31.7669 13.0
31.8506 12.0
31.9343 6.0
32.018 12.0
32.1017 10.0
32.1854 12.0
32.2691 12.0
32.3528 8.0
32.4365 10.0
32.5203 14.0
32.604 13.0
32.6877 9.0
32.7714 10.0
32.8551 5.0
32.9388 10.0
33.0225 8.0
33.1062 11.0
33.1899 16.0
33.2736 9.0
33.3573 19.0
33.441 7.0
33.5247 9.0
33.6084 11.0
33.6921 11.0
33.7758 16.0
33.8595 8.0
33.9432 11.0
34.027 9.0
34.1107 7.0
34.1944 11.0
34.2781 17.0
34.3618 14.0
34.4455 11.0
34.5292 11.0
34.6129 11.0
34.6966 6.0
34.7803 12.0
34.864 8.0
34.9477 14.0
35.0314 20.0
35.1151 8.0
35.1988 12.0
35.2825 12.0
35.3662 7.0
35.4499 15.0
35.5337 5.0
35.6174 14.0
35.7011 7.0
35.7848 12.0
35.8685 14.0
35.9522 17.0
36.0359 12.0
36.1196 9.0
36.2033 18.0
36.287 11.0
36.3707 14.0
36.4544 14.0
36.5381 18.0
36.6218 14.0
36.7055 14.0
36.7892 10.0
36.8729 14.0
36.9566 16.0
37.0404 14.0
37.1241 13.0
37.2078 12.0
37.2915 18.0
37.3752 21.0
37.4589 24.0
37.5426 14.0
37.6263 8.0
37.71 18.0
37.7937 18.0
37.8774 15.0
37.9611 30.0
38.0448 28.0
38.1285 22.0
38.2122 18.0
38.2959 22.0
38.3796 24.0
38.4633 38.0
38.5471 26.0
38.6308 37.0
38.7145 57.0
38.7982 50.0
38.8819 104.0
38.9656 172.0
39.0493 224.0
39.133 189.0
39.2167 105.0
39.3004 43.0
39.3841 22.0
39.4678 23.0
39.5515 25.0
39.6352 28.0
39.7189 21.0
39.8026 47.0
39.8863 14.0
39.97 8.0
40.0538 9.0
40.1375 14.0
40.2212 18.0
40.3049 9.0
40.3886 17.0
40.4723 15.0
40.556 10.0
40.6397 15.0
40.7234 12.0
40.8071 17.0
40.8908 21.0
40.9745 20.0
41.0582 15.0
41.1419 15.0
41.2256 23.0
41.3093 28.0
41.393 66.0
41.4767 96.0
41.5605 1131.0
41.6442 1378.0
41.7279 3301.0
41.8116 110.0
41.8953 52.0
41.979 48.0
42.0627 40.0
42.1464 31.0
42.2301 31.0
42.3138 23.0
42.3975 19.0
42.4812 21.0
42.5649 21.0
42.6486 8.0
42.7323 22.0
42.816 20.0
42.8997 15.0
42.9834 12.0
43.0672 15.0
43.1509 16.0
43.2346 19.0
43.3183 10.0
43.402 12.0
43.4857 21.0
43.5694 17.0
43.6531 10.0
43.7368 14.0
43.8205 23.0
43.9042 15.0
43.9879 20.0
44.0716 21.0
44.1553 26.0
44.239 24.0
44.3227 24.0
44.4064 37.0
44.4901 31.0
44.5739 28.0
44.6576 13.0
44.7413 15.0
44.825 12.0
44.9087 16.0
44.9924 10.0
45.0761 12.0
45.1598 10.0
45.2435 11.0
45.3272 15.0
45.4109 14.0
45.4946 6.0
45.5783 11.0
45.662 9.0
45.7457 12.0
45.8294 7.0
45.9131 16.0
45.9968 13.0
46.0806 19.0
46.1643 13.0
46.248 6.0
46.3317 10.0
46.4154 14.0
46.4991 17.0
46.5828 19.0
46.6665 16.0
46.7502 15.0
46.8339 7.0
46.9176 17.0
47.0013 8.0
47.085 13.0
47.1687 10.0
47.2524 7.0
47.3361 10.0
47.4198 11.0
47.5035 15.0
47.5873 8.0
47.671 20.0
47.7547 11.0
47.8384 8.0
47.9221 12.0
48.0058 18.0
48.0895 15.0
48.1732 19.0
48.2569 18.0
48.3406 14.0
48.4243 11.0
48.508 13.0
48.5917 18.0
48.6754 17.0
48.7591 11.0
48.8428 11.0
48.9265 13.0
49.0102 11.0
49.094 12.0
49.1777 18.0
49.2614 15.0
49.3451 15.0
49.4288 16.0
49.5125 11.0
49.5962 13.0
49.6799 12.0
49.7636 13.0
49.8473 10.0
49.931 8.0
50.0147 11.0
50.0984 10.0
50.1821 13.0
50.2658 14.0
50.3495 12.0
50.4332 12.0
50.5169 12.0
50.6007 15.0
50.6844 9.0
50.7681 15.0
50.8518 13.0
50.9355 9.0
51.0192 15.0
51.1029 13.0
51.1866 13.0
51.2703 14.0
51.354 9.0
51.4377 10.0
51.5214 17.0
51.6051 15.0
51.6888 11.0
51.7725 11.0
51.8562 17.0
51.9399 6.0
52.0236 14.0
52.1074 10.0
52.1911 6.0
52.2748 12.0
52.3585 10.0
52.4422 15.0
52.5259 12.0
52.6096 13.0
52.6933 16.0
52.777 16.0
52.8607 16.0
52.9444 14.0
53.0281 14.0
53.1118 12.0
53.1955 13.0
53.2792 17.0
53.3629 14.0
53.4466 20.0
53.5303 12.0
53.6141 16.0
53.6978 15.0
53.7815 13.0
53.8652 12.0
53.9489 15.0
54.0326 12.0
54.1163 20.0
54.2 9.0
54.2837 13.0
54.3674 10.0
54.4511 15.0
54.5348 8.0
54.6185 25.0
54.7022 8.0
54.7859 8.0
54.8696 9.0
54.9533 12.0
55.037 7.0
55.1208 13.0
55.2045 6.0
55.2882 13.0
55.3719 19.0
55.4556 14.0
55.5393 10.0
55.623 13.0
55.7067 14.0
55.7904 13.0
55.8741 9.0
55.9578 15.0
56.0415 12.0
56.1252 15.0
56.2089 9.0
56.2926 13.0
56.3763 10.0
56.46 16.0
56.5437 10.0
56.6275 10.0
56.7112 2.0
56.7949 16.0
56.8786 17.0
56.9623 21.0
57.046 13.0
57.1297 15.0
57.2134 18.0
57.2971 9.0
57.3808 11.0
57.4645 15.0
57.5482 9.0
57.6319 20.0
57.7156 7.0
57.7993 8.0
57.883 12.0
57.9667 8.0
58.0504 13.0
58.1342 7.0
58.2179 16.0
58.3016 10.0
58.3853 15.0
58.469 13.0
58.5527 10.0
58.6364 10.0
58.7201 14.0
58.8038 13.0
58.8875 8.0
58.9712 7.0
59.0549 20.0
59.1386 12.0
59.2223 12.0
59.306 7.0
59.3897 17.0
59.4734 9.0
59.5571 12.0
59.6409 7.0
59.7246 14.0
59.8083 13.0
59.892 13.0
59.9757 16.0
60.0594 12.0
60.1431 9.0
60.2268 15.0
60.3105 10.0
60.3942 13.0
60.4779 10.0
60.5616 9.0
60.6453 8.0
60.729 10.0
60.8127 11.0
60.8964 15.0
60.9801 16.0
61.0638 9.0
61.1476 13.0
61.2313 12.0
61.315 14.0
61.3987 14.0
61.4824 15.0
61.5661 16.0
61.6498 7.0
61.7335 9.0
61.8172 12.0
61.9009 17.0
61.9846 15.0
62.0683 12.0
62.152 8.0
62.2357 10.0
62.3194 17.0
62.4031 14.0
62.4868 14.0
62.5705 5.0
62.6543 11.0
62.738 13.0
62.8217 20.0
62.9054 10.0
62.9891 13.0
63.0728 11.0
63.1565 11.0
63.2402 19.0
63.3239 10.0
63.4076 15.0
63.4913 13.0
63.575 13.0
63.6587 8.0
63.7424 12.0
63.8261 12.0
63.9098 9.0
63.9935 11.0
64.0772 14.0
64.161 15.0
64.2447 13.0
64.3284 12.0
64.4121 17.0
64.4958 11.0
64.5795 9.0
64.6632 13.0
64.7469 9.0
64.8306 17.0
64.9143 14.0
64.998 14.0
65.0817 16.0
65.1654 10.0
65.2491 12.0
65.3328 12.0
65.4165 11.0
65.5002 14.0
65.5839 17.0
65.6677 17.0
65.7514 11.0
65.8351 15.0
65.9188 11.0
66.0025 7.0
66.0862 16.0
66.1699 19.0
66.2536 15.0
66.3373 13.0
66.421 12.0
66.5047 9.0
66.5884 12.0
66.6721 10.0
66.7558 7.0
66.8395 13.0
66.9232 14.0
67.0069 12.0
67.0906 14.0
67.1744 26.0
67.2581 16.0
67.3418 19.0
67.4255 8.0
67.5092 13.0
67.5929 10.0
67.6766 10.0
67.7603 13.0
67.844 15.0
67.9277 10.0
68.0114 9.0
68.0951 14.0
68.1788 14.0
68.2625 7.0
68.3462 9.0
68.4299 11.0
68.5136 14.0
68.5973 10.0
68.6811 14.0
68.7648 5.0
68.8485 12.0
68.9322 9.0
69.0159 15.0
69.0996 13.0
69.1833 11.0
69.267 13.0
69.3507 9.0
69.4344 8.0
69.5181 11.0
69.6018 13.0
69.6855 13.0
69.7692 15.0
69.8529 23.0
69.9366 15.0
70.0203 13.0
70.104 14.0
70.1878 12.0
70.2715 14.0
70.3552 15.0
70.4389 11.0
70.5226 11.0
70.6063 19.0
70.69 14.0
70.7737 19.0
70.8574 12.0
70.9411 11.0
71.0248 12.0
71.1085 23.0
71.1922 10.0
71.2759 14.0
71.3596 11.0
71.4433 16.0
71.527 15.0
71.6107 11.0
71.6945 14.0
71.7782 12.0
71.8619 13.0
71.9456 13.0
72.0293 8.0
72.113 12.0
72.1967 13.0
72.2804 15.0
72.3641 14.0
72.4478 8.0
72.5315 18.0
72.6152 10.0
72.6989 14.0
72.7826 17.0
72.8663 15.0
72.95 9.0
73.0337 12.0
73.1174 16.0
73.2012 18.0
73.2849 13.0
73.3686 8.0
73.4523 13.0
73.536 9.0
73.6197 10.0
73.7034 10.0
73.7871 12.0
73.8708 12.0
73.9545 11.0
74.0382 15.0
74.1219 11.0
74.2056 14.0
74.2893 8.0
74.373 15.0
74.4567 14.0
74.5404 10.0
74.6241 13.0
74.7079 12.0
74.7916 17.0
74.8753 10.0
74.959 14.0
75.0427 10.0
75.1264 17.0
75.2101 10.0
75.2938 11.0
75.3775 8.0
75.4612 13.0
75.5449 12.0
75.6286 5.0
75.7123 12.0
75.796 19.0
75.8797 15.0
75.9634 9.0
76.0471 9.0
76.1308 12.0
76.2146 16.0
76.2983 17.0
76.382 16.0
76.4657 10.0
76.5494 17.0
76.6331 19.0
76.7168 12.0
76.8005 13.0
76.8842 20.0
76.9679 15.0
77.0516 9.0
77.1353 6.0
77.219 19.0
77.3027 16.0
77.3864 10.0
77.4701 16.0
77.5538 15.0
77.6375 10.0
77.7213 12.0
77.805 12.0
77.8887 15.0
77.9724 10.0
78.0561 11.0
78.1398 14.0
78.2235 12.0
78.3072 10.0
78.3909 11.0
78.4746 15.0
78.5583 13.0
78.642 13.0
78.7257 16.0
78.8094 8.0
78.8931 13.0
78.9768 13.0
79.0605 13.0
79.1442 11.0
79.228 13.0
79.3117 15.0
79.3954 21.0
79.4791 13.0
79.5628 13.0
79.6465 10.0
79.7302 10.0
79.8139 10.0
79.8976 14.0
79.9813 36.0
80.065 26.0
80.1487 10.0
80.2324 14.0
80.3161 17.0
80.3998 17.0
80.4835 10.0
80.5672 18.0
80.6509 5.0
80.7347 11.0
80.8184 11.0
80.9021 16.0
80.9858 12.0
81.0695 16.0
81.1532 8.0
81.2369 13.0
81.3206 16.0
81.4043 13.0
81.488 14.0
81.5717 16.0
81.6554 13.0
81.7391 22.0
81.8228 17.0
81.9065 13.0
81.9902 14.0
82.0739 12.0
82.1576 6.0
82.2414 15.0
82.3251 21.0
82.4088 19.0
82.4925 20.0
82.5762 20.0
82.6599 19.0
82.7436 23.0
82.8273 18.0
82.911 16.0
82.9947 20.0
83.0784 19.0
83.1621 20.0
83.2458 20.0
83.3295 16.0
83.4132 15.0
83.4969 30.0
83.5806 33.0
83.6643 24.0
83.7481 38.0
83.8318 45.0
83.9155 44.0
83.9992 49.0
84.0829 52.0
84.1666 51.0
84.2503 43.0
84.334 38.0
84.4177 44.0
84.5014 30.0
84.5851 21.0
84.6688 20.0
84.7525 24.0
84.8362 26.0
84.9199 13.0
85.0036 17.0
85.0873 7.0
85.171 10.0
85.2548 15.0
85.3385 20.0
85.4222 12.0
85.5059 14.0
85.5896 11.0
85.6733 14.0
85.757 17.0
85.8407 25.0
85.9244 47.0
86.0081 39.0
86.0918 12.0
86.1755 15.0
86.2592 18.0
86.3429 13.0
86.4266 11.0
86.5103 17.0
86.594 14.0
86.6777 15.0
86.7615 14.0
86.8452 16.0
86.9289 16.0
87.0126 17.0
87.0963 19.0
87.18 13.0
87.2637 17.0
87.3474 13.0
87.4311 15.0
87.5148 10.0
87.5985 19.0
87.6822 17.0
87.7659 9.0
87.8496 18.0
87.9333 11.0
88.017 13.0
88.1007 12.0
88.1844 13.0
88.2682 11.0
88.3519 8.0
88.4356 15.0
88.5193 13.0
88.603 19.0
88.6867 12.0
88.7704 12.0
88.8541 14.0
88.9378 12.0
89.0215 23.0
89.1052 13.0
89.1889 17.0
89.2726 13.0
89.3563 23.0
89.44 19.0
89.5237 22.0
89.6074 24.0
89.6911 21.0
89.7749 22.0
89.8586 17.0
89.9423 24.0
90.026 25.0
90.1097 53.0
90.1934 64.0
90.2771 65.0
90.3608 68.0
90.4445 99.0
90.5282 187.0
90.6119 1768.0
90.6956 5186.0
90.7793 515.0
90.863 485.0
90.9467 4110.0
91.0304 685.0
91.1141 151.0
91.1978 88.0
91.2816 65.0
91.3653 45.0
91.449 42.0
91.5327 33.0
91.6164 30.0
91.7001 25.0
91.7838 20.0
91.8675 29.0
91.9512 20.0
92.0349 26.0
92.1186 23.0
92.2023 31.0
92.286 16.0
92.3697 25.0
92.4534 21.0
92.5371 14.0
92.6208 18.0
92.7045 20.0
92.7883 20.0
92.872 20.0
92.9557 19.0
93.0394 14.0
93.1231 19.0
93.2068 21.0
93.2905 20.0
93.3742 21.0
93.4579 23.0
93.5416 13.0
93.6253 21.0
93.709 14.0
93.7927 14.0
93.8764 12.0
93.9601 13.0
94.0438 23.0
94.1275 13.0
94.2112 21.0
94.295 15.0
94.3787 19.0
94.4624 22.0
94.5461 16.0
94.6298 11.0
94.7135 12.0
94.7972 16.0
94.8809 11.0
94.9646 13.0
95.0483 14.0
95.132 23.0
95.2157 13.0
95.2994 16.0
95.3831 20.0
95.4668 10.0
95.5505 13.0
95.6342 18.0
95.7179 13.0
95.8017 18.0
95.8854 15.0
95.9691 6.0
96.0528 15.0
96.1365 11.0
96.2202 16.0
96.3039 7.0
96.3876 18.0
96.4713 16.0
96.555 17.0
96.6387 14.0
96.7224 17.0
96.8061 10.0
96.8898 14.0
96.9735 11.0
97.0572 18.0
97.1409 13.0
97.2246 15.0
97.3084 13.0
97.3921 18.0
97.4758 17.0
97.5595 16.0
97.6432 12.0
97.7269 9.0
97.8106 14.0
97.8943 16.0
97.978 16.0
98.0617 12.0
98.1454 16.0
98.2291 16.0
98.3128 16.0
98.3965 15.0
98.4802 17.0
98.5639 14.0
98.6476 13.0
98.7313 11.0
98.8151 10.0
98.8988 15.0
98.9825 5.0
99.0662 17.0
99.1499 12.0
99.2336 9.0
99.3173 14.0
99.401 13.0
99.4847 8.0
99.5684 12.0
99.6521 12.0
99.7358 15.0
99.8195 11.0
99.9032 15.0
99.9869 10.0
100.071 6.0
100.154 23.0
100.238 14.0
100.322 17.0
100.405 14.0
100.489 16.0
100.573 17.0
100.657 17.0
100.74 12.0
100.824 7.0
100.908 10.0
100.991 18.0
101.075 6.0
101.159 18.0
101.243 14.0
101.326 12.0
101.41 20.0
101.494 16.0
101.577 11.0
101.661 11.0
101.745 11.0
101.828 13.0
101.912 14.0
101.996 8.0
102.08 12.0
102.163 14.0
102.247 11.0
102.331 9.0
102.414 13.0
102.498 17.0
102.582 10.0
102.666 11.0
102.749 8.0
102.833 17.0
102.917 8.0
103 15.0
103.084 7.0
103.168 12.0
103.251 15.0
103.335 17.0
103.419 12.0
103.503 11.0
103.586 17.0
103.67 9.0
103.754 14.0
103.837 19.0
103.921 14.0
104.005 13.0
104.089 17.0
104.172 14.0
104.256 9.0
104.34 6.0
104.423 11.0
104.507 15.0
104.591 14.0
104.674 11.0
104.758 7.0
104.842 11.0
104.926 16.0
105.009 19.0
105.093 19.0
105.177 10.0
105.26 9.0
105.344 17.0
105.428 15.0
105.511 11.0
105.595 11.0
105.679 12.0
105.763 9.0
105.846 17.0
105.93 9.0
106.014 10.0
106.097 15.0
106.181 8.0
106.265 14.0
106.349 13.0
106.432 24.0
106.516 16.0
106.6 12.0
106.683 20.0
106.767 11.0
106.851 11.0
106.934 11.0
107.018 11.0
107.102 11.0
107.186 10.0
107.269 12.0
107.353 17.0
107.437 9.0
107.52 11.0
107.604 14.0
107.688 19.0
107.772 14.0
107.855 13.0
107.939 16.0
108.023 16.0
108.106 14.0
108.19 16.0
108.274 11.0
108.357 16.0
108.441 11.0
108.525 13.0
108.609 3.0
108.692 12.0
108.776 15.0
108.86 13.0
108.943 11.0
109.027 11.0
109.111 9.0
109.195 10.0
109.278 15.0
109.362 19.0
109.446 14.0
109.529 16.0
109.613 17.0
109.697 16.0
109.78 13.0
109.864 12.0
109.948 11.0
110.032 9.0
110.115 7.0
110.199 17.0
110.283 10.0
110.366 17.0
110.45 10.0
110.534 11.0
110.618 11.0
110.701 10.0
110.785 10.0
110.869 15.0
110.952 10.0
111.036 8.0
111.12 16.0
111.203 6.0
111.287 9.0
111.371 15.0
111.455 17.0
111.538 9.0
111.622 7.0
111.706 14.0
111.789 11.0
111.873 16.0
111.957 6.0
112.041 8.0
112.124 12.0
112.208 19.0
112.292 20.0
112.375 15.0
112.459 17.0
112.543 17.0
112.626 13.0
112.71 10.0
112.794 10.0
112.878 20.0
112.961 7.0
113.045 13.0
113.129 22.0
113.212 19.0
113.296 22.0
113.38 21.0
113.464 9.0
113.547 11.0
113.631 16.0
113.715 17.0
113.798 9.0
113.882 9.0
113.966 12.0
114.049 16.0
114.133 14.0
114.217 12.0
114.301 17.0
114.384 7.0
114.468 15.0
114.552 19.0
114.635 11.0
114.719 14.0
114.803 19.0
114.887 10.0
114.97 19.0
115.054 16.0
115.138 13.0
115.221 11.0
115.305 14.0
115.389 14.0
115.472 18.0
115.556 18.0
115.64 14.0
115.724 12.0
115.807 16.0
115.891 11.0
115.975 13.0
116.058 15.0
116.142 19.0
116.226 14.0
116.31 15.0
116.393 17.0
116.477 18.0
116.561 5.0
116.644 19.0
116.728 13.0
116.812 18.0
116.895 19.0
116.979 19.0
117.063 9.0
117.147 9.0
117.23 12.0
117.314 14.0
117.398 18.0
117.481 17.0
117.565 13.0
117.649 17.0
117.733 13.0
117.816 17.0
117.9 12.0
117.984 13.0
118.067 13.0
118.151 14.0
118.235 20.0
118.318 12.0
118.402 12.0
118.486 10.0
118.57 12.0
118.653 16.0
118.737 16.0
118.821 13.0
118.904 20.0
118.988 14.0
119.072 10.0
119.156 15.0
119.239 17.0
119.323 14.0
119.407 11.0
119.49 8.0
119.574 19.0
119.658 14.0
119.741 16.0
119.825 16.0
119.909 14.0
119.993 14.0
120.076 15.0
120.16 16.0
120.244 10.0
120.327 12.0
120.411 16.0
120.495 25.0
120.578 20.0
120.662 10.0
120.746 16.0
120.83 14.0
120.913 20.0
120.997 17.0
121.081 19.0
121.164 17.0
121.248 14.0
121.332 11.0
121.416 14.0
121.499 17.0
121.583 12.0
121.667 13.0
121.75 12.0
121.834 9.0
121.918 12.0
122.001 14.0
122.085 16.0
122.169 20.0
122.253 16.0
122.336 10.0
122.42 9.0
122.504 11.0
122.587 12.0
122.671 16.0
122.755 20.0
122.839 9.0
122.922 11.0
123.006 19.0
123.09 8.0
123.173 8.0
123.257 12.0
123.341 10.0
123.424 23.0
123.508 22.0
123.592 11.0
123.676 14.0
123.759 12.0
123.843 12.0
123.927 15.0
124.01 9.0
124.094 15.0
124.178 8.0
124.262 17.0
124.345 11.0
124.429 14.0
124.513 15.0
124.596 11.0
124.68 15.0
124.764 9.0
124.847 15.0
124.931 10.0
125.015 12.0
125.099 12.0
125.182 14.0
125.266 15.0
125.35 11.0
125.433 14.0
125.517 8.0
125.601 19.0
125.685 14.0
125.768 15.0
125.852 14.0
125.936 15.0
126.019 14.0
126.103 17.0
126.187 12.0
126.27 13.0
126.354 8.0
126.438 12.0
126.522 13.0
126.605 9.0
126.689 15.0
126.773 12.0
126.856 12.0
126.94 9.0
127.024 24.0
127.108 5.0
127.191 15.0
127.275 11.0
127.359 16.0
127.442 12.0
127.526 16.0
127.61 7.0
127.693 7.0
127.777 11.0
127.861 16.0
127.945 16.0
128.028 19.0
128.112 16.0
128.196 12.0
128.279 10.0
128.363 15.0
128.447 8.0
128.531 7.0
128.614 23.0
128.698 22.0
128.782 13.0
128.865 19.0
128.949 8.0
129.033 14.0
129.116 17.0
129.2 16.0
129.284 9.0
129.368 13.0
129.451 16.0
129.535 10.0
129.619 13.0
129.702 12.0
129.786 15.0
129.87 9.0
129.954 8.0
129.998 17.0