File: data/W6854m/XRD_Omega/W6854m_Cr2O3_scan_omega_2deg_step_0.002deg0_2.xy
31.58330 661.0
31.58530 678.0
31.58730 722.0
31.58930 683.0
31.59130 646.0
31.59330 639.0
31.59530 672.0
31.59730 748.0
31.59930 686.0
31.60130 671.0
31.60330 678.0
31.60530 693.0
31.60730 650.0
31.60930 678.0
31.61130 688.0
31.61330 665.0
31.61530 753.0
31.61730 712.0
31.61930 726.0
31.62130 765.0
31.62330 744.0
31.62530 728.0
31.62730 728.0
31.62930 729.0
31.63130 723.0
31.63330 741.0
31.63530 758.0
31.63730 778.0
31.63930 718.0
31.64130 710.0
31.64330 785.0
31.64530 789.0
31.64730 766.0
31.64930 749.0
31.65130 711.0
31.65330 751.0
31.65530 789.0
31.65730 776.0
31.65930 761.0
31.66130 801.0
31.66330 779.0
31.66530 851.0
31.66730 788.0
31.66930 759.0
31.67130 817.0
31.67330 797.0
31.67530 749.0
31.67730 823.0
31.67930 835.0
31.68130 844.0
31.68330 830.0
31.68530 836.0
31.68730 832.0
31.68930 825.0
31.69130 849.0
31.69330 846.0
31.69530 847.0
31.69730 865.0
31.69930 808.0
31.70130 853.0
31.70330 884.0
31.70530 870.0
31.70730 866.0
31.70930 851.0
31.71130 847.0
31.71330 813.0
31.71530 942.0
31.71730 871.0
31.71930 890.0
31.72130 918.0
31.72330 974.0
31.72530 933.0
31.72730 894.0
31.72930 923.0
31.73130 864.0
31.73330 951.0
31.73530 984.0
31.73730 993.0
31.73930 905.0
31.74130 969.0
31.74330 959.0
31.74530 964.0
31.74730 928.0
31.74930 963.0
31.75130 947.0
31.75330 968.0
31.75530 963.0
31.75730 914.0
31.75930 912.0
31.76130 1002.0
31.76330 922.0
31.76530 969.0
31.76730 1014.0
31.76930 1008.0
31.77130 1051.0
31.77330 1010.0
31.77530 1039.0
31.77730 999.0
31.77930 980.0
31.78130 1008.0
31.78330 1023.0
31.78530 1020.0
31.78730 1015.0
31.78930 1037.0
31.79130 1045.0
31.79330 1030.0
31.79530 1063.0
31.79730 1050.0
31.79930 1072.0
31.80130 1045.0
31.80330 1069.0
31.80530 1112.0
31.80730 1051.0
31.80930 1028.0
31.81130 1052.0
31.81330 1094.0
31.81530 1063.0
31.81730 1134.0
31.81930 1110.0
31.82130 1049.0
31.82330 1139.0
31.82530 1168.0
31.82730 1125.0
31.82930 1093.0
31.83130 1152.0
31.83330 1128.0
31.83530 1098.0
31.83730 1090.0
31.83930 1153.0
31.84130 1129.0
31.84330 1146.0
31.84530 1145.0
31.84730 1120.0
31.84930 1170.0
31.85130 1152.0
31.85330 1229.0
31.85530 1158.0
31.85730 1242.0
31.85930 1165.0
31.86130 1149.0
31.86330 1219.0
31.86530 1243.0
31.86730 1180.0
31.86930 1239.0
31.87130 1148.0
31.87330 1204.0
31.87530 1205.0
31.87730 1151.0
31.87930 1232.0
31.88130 1274.0
31.88330 1335.0
31.88530 1251.0
31.88730 1248.0
31.88930 1244.0
31.89130 1213.0
31.89330 1239.0
31.89530 1220.0
31.89730 1283.0
31.89930 1261.0
31.90130 1220.0
31.90330 1262.0
31.90530 1281.0
31.90730 1322.0
31.90930 1288.0
31.91130 1271.0
31.91330 1357.0
31.91530 1304.0
31.91730 1311.0
31.91930 1288.0
31.92130 1397.0
31.92330 1321.0
31.92530 1474.0
31.92730 1329.0
31.92930 1315.0
31.93130 1378.0
31.93330 1362.0
31.93530 1438.0
31.93730 1433.0
31.93930 1382.0
31.94130 1367.0
31.94330 1396.0
31.94530 1405.0
31.94730 1407.0
31.94930 1415.0
31.95130 1344.0
31.95330 1432.0
31.95530 1390.0
31.95730 1396.0
31.95930 1513.0
31.96130 1416.0
31.96330 1424.0
31.96530 1409.0
31.96730 1477.0
31.96930 1430.0
31.97130 1472.0
31.97330 1388.0
31.97530 1417.0
31.97730 1470.0
31.97930 1511.0
31.98130 1489.0
31.98330 1495.0
31.98530 1512.0
31.98730 1434.0
31.98930 1500.0
31.99130 1552.0
31.99330 1494.0
31.99530 1531.0
31.99730 1478.0
31.99930 1586.0
32.00130 1539.0
32.00330 1582.0
32.00530 1582.0
32.00730 1543.0
32.00930 1612.0
32.01130 1613.0
32.01330 1652.0
32.01530 1557.0
32.01730 1637.0
32.01930 1542.0
32.02130 1638.0
32.02330 1577.0
32.02530 1664.0
32.02730 1655.0
32.02930 1628.0
32.03130 1630.0
32.03330 1590.0
32.03530 1651.0
32.03730 1670.0
32.03930 1645.0
32.04130 1674.0
32.04330 1737.0
32.04530 1675.0
32.04730 1661.0
32.04930 1713.0
32.05130 1773.0
32.05330 1769.0
32.05530 1707.0
32.05730 1726.0
32.05930 1707.0
32.06130 1688.0
32.06330 1784.0
32.06530 1791.0
32.06730 1775.0
32.06930 1760.0
32.07130 1779.0
32.07330 1897.0
32.07530 1725.0
32.07730 1761.0
32.07930 1780.0
32.08130 1835.0
32.08330 1835.0
32.08530 1785.0
32.08730 1828.0
32.08930 1798.0
32.09130 1808.0
32.09330 1848.0
32.09530 1732.0
32.09730 1899.0
32.09930 1877.0
32.10130 1906.0
32.10330 1834.0
32.10530 1864.0
32.10730 1830.0
32.10930 1953.0
32.11130 1841.0
32.11330 1951.0
32.11530 1953.0
32.11730 1913.0
32.11930 2036.0
32.12130 1900.0
32.12330 1960.0
32.12530 1853.0
32.12730 1979.0
32.12930 1995.0
32.13130 1931.0
32.13330 2036.0
32.13530 1980.0
32.13730 2015.0
32.13930 1974.0
32.14130 1971.0
32.14330 1984.0
32.14530 2012.0
32.14730 2005.0
32.14930 2037.0
32.15130 2006.0
32.15330 2061.0
32.15530 2114.0
32.15730 1973.0
32.15930 1962.0
32.16130 2163.0
32.16330 2044.0
32.16530 1922.0
32.16730 2048.0
32.16930 1988.0
32.17130 2146.0
32.17330 2067.0
32.17530 2176.0
32.17730 2110.0
32.17930 2123.0
32.18130 2081.0
32.18330 2178.0
32.18530 2057.0
32.18730 2226.0
32.18930 2116.0
32.19130 2194.0
32.19330 2157.0
32.19530 2192.0
32.19730 2117.0
32.19930 2176.0
32.20130 2182.0
32.20330 2141.0
32.20530 2277.0
32.20730 2176.0
32.20930 2261.0
32.21130 2236.0
32.21330 2286.0
32.21530 2187.0
32.21730 2187.0
32.21930 2274.0
32.22130 2312.0
32.22330 2281.0
32.22530 2248.0
32.22730 2249.0
32.22930 2219.0
32.23130 2237.0
32.23330 2286.0
32.23530 2301.0
32.23730 2261.0
32.23930 2298.0
32.24130 2291.0
32.24330 2305.0
32.24530 2294.0
32.24730 2272.0
32.24930 2330.0
32.25130 2325.0
32.25330 2321.0
32.25530 2300.0
32.25730 2377.0
32.25930 2334.0
32.26130 2423.0
32.26330 2360.0
32.26530 2360.0
32.26730 2401.0
32.26930 2407.0
32.27130 2454.0
32.27330 2356.0
32.27530 2361.0
32.27730 2439.0
32.27930 2310.0
32.28130 2473.0
32.28330 2501.0
32.28530 2478.0
32.28730 2361.0
32.28930 2465.0
32.29130 2473.0
32.29330 2467.0
32.29530 2539.0
32.29730 2452.0
32.29930 2463.0
32.30130 2405.0
32.30330 2451.0
32.30530 2553.0
32.30730 2425.0
32.30930 2457.0
32.31130 2565.0
32.31330 2421.0
32.31530 2540.0
32.31730 2529.0
32.31930 2485.0
32.32130 2495.0
32.32330 2562.0
32.32530 2594.0
32.32730 2531.0
32.32930 2523.0
32.33130 2532.0
32.33330 2467.0
32.33530 2474.0
32.33730 2668.0
32.33930 2644.0
32.34130 2556.0
32.34330 2521.0
32.34530 2375.0
32.34730 2592.0
32.34930 2532.0
32.35130 2687.0
32.35330 2592.0
32.35530 2576.0
32.35730 2583.0
32.35930 2645.0
32.36130 2647.0
32.36330 2558.0
32.36530 2652.0
32.36730 2615.0
32.36930 2642.0
32.37130 2564.0
32.37330 2670.0
32.37530 2652.0
32.37730 2621.0
32.37930 2718.0
32.38130 2612.0
32.38330 2682.0
32.38530 2671.0
32.38730 2581.0
32.38930 2664.0
32.39130 2554.0
32.39330 2610.0
32.39530 2607.0
32.39730 2636.0
32.39930 2589.0
32.40130 2676.0
32.40330 2730.0
32.40530 2731.0
32.40730 2717.0
32.40930 2663.0
32.41130 2676.0
32.41330 2790.0
32.41530 2739.0
32.41730 2669.0
32.41930 2675.0
32.42130 2714.0
32.42330 2664.0
32.42530 2746.0
32.42730 2685.0
32.42930 2699.0
32.43130 2811.0
32.43330 2681.0
32.43530 2726.0
32.43730 2680.0
32.43930 2672.0
32.44130 2713.0
32.44330 2839.0
32.44530 2755.0
32.44730 2700.0
32.44930 2823.0
32.45130 2758.0
32.45330 2824.0
32.45530 2835.0
32.45730 2790.0
32.45930 2840.0
32.46130 2834.0
32.46330 2857.0
32.46530 2765.0
32.46730 2872.0
32.46930 2758.0
32.47130 2766.0
32.47330 2795.0
32.47530 2841.0
32.47730 2889.0
32.47930 2841.0
32.48130 2702.0
32.48330 2852.0
32.48530 2827.0
32.48730 2850.0
32.48930 2876.0
32.49130 2819.0
32.49330 2758.0
32.49530 2911.0
32.49730 2792.0
32.49930 2891.0
32.50130 2849.0
32.50330 2782.0
32.50530 2842.0
32.50730 2836.0
32.50930 2911.0
32.51130 2966.0
32.51330 2818.0
32.51530 2849.0
32.51730 2913.0
32.51930 2872.0
32.52130 2839.0
32.52330 2739.0
32.52530 2822.0
32.52730 2919.0
32.52930 2824.0
32.53130 2811.0
32.53330 2819.0
32.53530 2905.0
32.53730 2912.0
32.53930 2915.0
32.54130 2876.0
32.54330 2849.0
32.54530 2894.0
32.54730 2904.0
32.54930 2911.0
32.55130 2919.0
32.55330 2900.0
32.55530 2859.0
32.55730 2842.0
32.55930 2944.0
32.56130 2894.0
32.56330 2875.0
32.56530 2917.0
32.56730 2857.0
32.56930 2794.0
32.57130 2880.0
32.57330 2865.0
32.57530 2864.0
32.57730 2987.0
32.57930 2958.0
32.58130 2893.0
32.58330 2891.0
32.58530 2963.0
32.58730 2963.0
32.58930 2889.0
32.59130 2991.0
32.59330 2893.0
32.59530 2901.0
32.59730 2980.0
32.59930 3013.0
32.60130 2959.0
32.60330 2945.0
32.60530 3002.0
32.60730 3020.0
32.60930 3074.0
32.61130 2927.0
32.61330 3234.0
32.61530 3006.0
32.61730 3110.0
32.61930 3019.0
32.62130 3127.0
32.62330 3297.0
32.62530 3117.0
32.62730 3232.0
32.62930 3351.0
32.63130 3349.0
32.63330 3503.0
32.63530 3668.0
32.63730 3515.0
32.63930 3573.0
32.64130 3652.0
32.64330 3712.0
32.64530 3860.0
32.64730 3896.0
32.64930 3892.0
32.65130 3967.0
32.65330 4028.0
32.65530 4141.0
32.65730 4007.0
32.65930 4010.0
32.66130 3980.0
32.66330 4128.0
32.66530 3939.0
32.66730 3817.0
32.66930 3836.0
32.67130 3857.0
32.67330 3744.0
32.67530 3759.0
32.67730 3688.0
32.67930 3672.0
32.68130 3672.0
32.68330 3485.0
32.68530 3519.0
32.68730 3495.0
32.68930 3423.0
32.69130 3387.0
32.69330 3415.0
32.69530 3298.0
32.69730 3344.0
32.69930 3297.0
32.70130 3262.0
32.70330 3320.0
32.70530 3272.0
32.70730 3211.0
32.70930 3234.0
32.71130 3356.0
32.71330 3312.0
32.71530 3281.0
32.71730 3233.0
32.71930 3217.0
32.72130 3205.0
32.72330 3213.0
32.72530 3209.0
32.72730 3282.0
32.72930 3308.0
32.73130 3225.0
32.73330 3205.0
32.73530 3244.0
32.73730 3169.0
32.73930 3202.0
32.74130 3134.0
32.74330 3222.0
32.74530 3067.0
32.74730 3112.0
32.74930 3055.0
32.75130 3104.0
32.75330 3105.0
32.75530 3009.0
32.75730 3055.0
32.75930 2989.0
32.76130 2982.0
32.76330 2950.0
32.76530 2925.0
32.76730 2949.0
32.76930 2952.0
32.77130 2968.0
32.77330 2863.0
32.77530 2853.0
32.77730 2838.0
32.77930 2872.0
32.78130 2908.0
32.78330 2981.0
32.78530 2952.0
32.78730 2921.0
32.78930 2882.0
32.79130 2829.0
32.79330 2816.0
32.79530 2907.0
32.79730 2761.0
32.79930 2908.0
32.80130 2881.0
32.80330 2847.0
32.80530 2808.0
32.80730 2839.0
32.80930 2885.0
32.81130 2884.0
32.81330 2742.0
32.81530 2817.0
32.81730 2715.0
32.81930 2792.0
32.82130 2782.0
32.82330 2684.0
32.82530 2590.0
32.82730 2723.0
32.82930 2493.0
32.83130 2621.0
32.83330 2539.0
32.83530 2609.0
32.83730 2619.0
32.83930 2543.0
32.84130 2598.0
32.84330 2529.0
32.84530 2505.0
32.84730 2458.0
32.84930 2507.0
32.85130 2570.0
32.85330 2537.0
32.85530 2458.0
32.85730 2442.0
32.85930 2547.0
32.86130 2480.0
32.86330 2442.0
32.86530 2406.0
32.86730 2452.0
32.86930 2414.0
32.87130 2421.0
32.87330 2454.0
32.87530 2427.0
32.87730 2404.0
32.87930 2442.0
32.88130 2449.0
32.88330 2378.0
32.88530 2320.0
32.88730 2347.0
32.88930 2307.0
32.89130 2234.0
32.89330 2312.0
32.89530 2342.0
32.89730 2413.0
32.89930 2337.0
32.90130 2332.0
32.90330 2222.0
32.90530 2305.0
32.90730 2239.0
32.90930 2257.0
32.91130 2286.0
32.91330 2222.0
32.91530 2241.0
32.91730 2241.0
32.91930 2236.0
32.92130 2170.0
32.92330 2204.0
32.92530 2196.0
32.92730 2178.0
32.92930 2174.0
32.93130 2168.0
32.93330 2131.0
32.93530 2139.0
32.93730 2159.0
32.93930 2088.0
32.94130 2147.0
32.94330 2088.0
32.94530 2127.0
32.94730 2186.0
32.94930 2117.0
32.95130 2125.0
32.95330 2070.0
32.95530 2070.0
32.95730 1981.0
32.95930 2085.0
32.96130 2051.0
32.96330 2045.0
32.96530 1949.0
32.96730 1992.0
32.96930 1997.0
32.97130 2049.0
32.97330 1958.0
32.97530 1930.0
32.97730 1879.0
32.97930 1939.0
32.98130 1893.0
32.98330 1950.0
32.98530 1962.0
32.98730 1933.0
32.98930 1983.0
32.99130 1964.0
32.99330 1986.0
32.99530 1949.0
32.99730 1873.0
32.99930 1882.0
33.00130 1857.0
33.00330 1956.0
33.00530 1861.0
33.00730 1842.0
33.00930 1935.0
33.01130 1938.0
33.01330 1911.0
33.01530 1884.0
33.01730 1769.0
33.01930 1841.0
33.02130 1833.0
33.02330 1797.0
33.02530 1819.0
33.02730 1776.0
33.02930 1807.0
33.03130 1821.0
33.03330 1753.0
33.03530 1755.0
33.03730 1849.0
33.03930 1756.0
33.04130 1769.0
33.04330 1781.0
33.04530 1715.0
33.04730 1742.0
33.04930 1713.0
33.05130 1795.0
33.05330 1735.0
33.05530 1763.0
33.05730 1757.0
33.05930 1683.0
33.06130 1603.0
33.06330 1706.0
33.06530 1703.0
33.06730 1621.0
33.06930 1726.0
33.07130 1600.0
33.07330 1643.0
33.07530 1704.0
33.07730 1591.0
33.07930 1630.0
33.08130 1626.0
33.08330 1661.0
33.08530 1616.0
33.08730 1585.0
33.08930 1621.0
33.09130 1625.0
33.09330 1657.0
33.09530 1576.0
33.09730 1627.0
33.09930 1656.0
33.10130 1541.0
33.10330 1574.0
33.10530 1577.0
33.10730 1508.0
33.10930 1561.0
33.11130 1586.0
33.11330 1544.0
33.11530 1525.0
33.11730 1546.0
33.11930 1497.0
33.12130 1504.0
33.12330 1526.0
33.12530 1554.0
33.12730 1592.0
33.12930 1502.0
33.13130 1476.0
33.13330 1568.0
33.13530 1476.0
33.13730 1494.0
33.13930 1491.0
33.14130 1461.0
33.14330 1412.0
33.14530 1461.0
33.14730 1447.0
33.14930 1431.0
33.15130 1425.0
33.15330 1436.0
33.15530 1361.0
33.15730 1392.0
33.15930 1420.0
33.16130 1354.0
33.16330 1342.0
33.16530 1382.0
33.16730 1402.0
33.16930 1389.0
33.17130 1348.0
33.17330 1312.0
33.17530 1297.0
33.17730 1453.0
33.17930 1418.0
33.18130 1338.0
33.18330 1291.0
33.18530 1344.0
33.18730 1312.0
33.18930 1341.0
33.19130 1369.0
33.19330 1265.0
33.19530 1232.0
33.19730 1275.0
33.19930 1349.0
33.20130 1325.0
33.20330 1348.0
33.20530 1213.0
33.20730 1228.0
33.20930 1248.0
33.21130 1243.0
33.21330 1196.0
33.21530 1231.0
33.21730 1239.0
33.21930 1183.0
33.22130 1194.0
33.22330 1212.0
33.22530 1200.0
33.22730 1253.0
33.22930 1172.0
33.23130 1256.0
33.23330 1222.0
33.23530 1182.0
33.23730 1134.0
33.23930 1132.0
33.24130 1151.0
33.24330 1188.0
33.24530 1115.0
33.24730 1131.0
33.24930 1126.0
33.25130 1205.0
33.25330 1223.0
33.25530 1201.0
33.25730 1179.0
33.25930 1184.0
33.26130 1094.0
33.26330 1132.0
33.26530 1095.0
33.26730 1045.0
33.26930 1116.0
33.27130 1151.0
33.27330 1123.0
33.27530 1120.0
33.27730 1126.0
33.27930 1044.0
33.28130 1116.0
33.28330 1066.0
33.28530 1042.0
33.28730 1104.0
33.28930 1111.0
33.29130 1020.0
33.29330 1030.0
33.29530 1047.0
33.29730 1055.0
33.29930 1079.0
33.30130 1037.0
33.30330 975.0
33.30530 965.0
33.30730 1004.0
33.30930 1018.0
33.31130 1044.0
33.31330 1019.0
33.31530 976.0
33.31730 995.0
33.31930 1011.0
33.32130 1027.0
33.32330 1015.0
33.32530 993.0
33.32730 969.0
33.32930 938.0
33.33130 972.0
33.33330 1003.0
33.33530 975.0
33.33730 916.0
33.33930 871.0
33.34130 962.0
33.34330 913.0
33.34530 994.0
33.34730 969.0
33.34930 899.0
33.35130 939.0
33.35330 908.0
33.35530 908.0
33.35730 925.0
33.35930 864.0
33.36130 962.0
33.36330 886.0
33.36530 882.0
33.36730 926.0
33.36930 841.0
33.37130 834.0
33.37330 912.0
33.37530 890.0
33.37730 846.0
33.37930 878.0
33.38130 944.0
33.38330 861.0
33.38530 820.0
33.38730 829.0
33.38930 870.0
33.39130 827.0
33.39330 856.0
33.39530 841.0
33.39730 807.0
33.39930 787.0
33.40130 827.0
33.40330 810.0
33.40530 829.0
33.40730 782.0
33.40930 777.0
33.41130 813.0
33.41330 798.0
33.41530 824.0
33.41730 778.0
33.41930 728.0
33.42130 816.0
33.42330 825.0
33.42530 827.0
33.42730 766.0
33.42930 804.0
33.43130 801.0
33.43330 774.0
33.43530 810.0
33.43730 742.0
33.43930 744.0
33.44130 757.0
33.44330 719.0
33.44530 759.0
33.44730 713.0
33.44930 753.0
33.45130 735.0
33.45330 757.0
33.45530 727.0
33.45730 777.0
33.45930 716.0
33.46130 721.0
33.46330 710.0
33.46530 743.0
33.46730 720.0
33.46930 679.0
33.47130 707.0
33.47330 716.0
33.47530 781.0
33.47730 729.0
33.47930 718.0
33.48130 709.0
33.48330 672.0
33.48530 705.0
33.48730 677.0
33.48930 714.0
33.49130 699.0
33.49330 679.0
33.49530 690.0
33.49730 654.0
33.49930 649.0
33.50130 636.0
33.50330 675.0
33.50530 663.0
33.50730 710.0
33.50930 687.0
33.51130 659.0
33.51330 669.0
33.51530 626.0
33.51730 670.0
33.51930 618.0
33.52130 646.0
33.52330 623.0
33.52530 659.0
33.52730 681.0
33.52930 640.0
33.53130 616.0
33.53330 614.0
33.53530 652.0
33.53730 641.0
33.53930 650.0
33.54130 613.0
33.54330 664.0
33.54530 611.0
33.54730 617.0
33.54930 623.0
33.55130 632.0
33.55330 606.0
33.55530 575.0
33.55730 619.0
33.55930 648.0
33.56130 614.0
33.56330 604.0
33.56530 609.0
33.56730 621.0