File: data/W6908m/XRD_Omega/scan_omega_4deg_step_0.005deg0_C9_2.xy
30.61730 95.0
30.62230 63.0
30.62730 74.0
30.63230 90.0
30.63730 87.0
30.64230 88.0
30.64730 83.0
30.65230 88.0
30.65730 83.0
30.66230 89.0
30.66730 92.0
30.67230 97.0
30.67730 86.0
30.68230 86.0
30.68730 83.0
30.69230 66.0
30.69730 99.0
30.70230 74.0
30.70730 87.0
30.71230 86.0
30.71730 86.0
30.72230 86.0
30.72730 97.0
30.73230 91.0
30.73730 81.0
30.74230 83.0
30.74730 76.0
30.75230 96.0
30.75730 84.0
30.76230 78.0
30.76730 86.0
30.77230 71.0
30.77730 105.0
30.78230 91.0
30.78730 96.0
30.79230 92.0
30.79730 86.0
30.80230 93.0
30.80730 79.0
30.81230 96.0
30.81730 74.0
30.82230 89.0
30.82730 86.0
30.83230 83.0
30.83730 86.0
30.84230 104.0
30.84730 66.0
30.85230 76.0
30.85730 93.0
30.86230 85.0
30.86730 84.0
30.87230 91.0
30.87730 82.0
30.88230 68.0
30.88730 70.0
30.89230 81.0
30.89730 82.0
30.90230 75.0
30.90730 73.0
30.91230 79.0
30.91730 86.0
30.92230 82.0
30.92730 79.0
30.93230 96.0
30.93730 78.0
30.94230 95.0
30.94730 80.0
30.95230 100.0
30.95730 90.0
30.96230 76.0
30.96730 89.0
30.97230 85.0
30.97730 96.0
30.98230 94.0
30.98730 76.0
30.99230 85.0
30.99730 77.0
31.00230 95.0
31.00730 97.0
31.01230 85.0
31.01730 87.0
31.02230 90.0
31.02730 90.0
31.03230 90.0
31.03730 80.0
31.04230 81.0
31.04730 87.0
31.05230 84.0
31.05730 98.0
31.06230 86.0
31.06730 89.0
31.07230 87.0
31.07730 102.0
31.08230 70.0
31.08730 80.0
31.09230 91.0
31.09730 84.0
31.10230 82.0
31.10730 92.0
31.11230 88.0
31.11730 73.0
31.12230 87.0
31.12730 75.0
31.13230 103.0
31.13730 101.0
31.14230 80.0
31.14730 78.0
31.15230 91.0
31.15730 98.0
31.16230 89.0
31.16730 84.0
31.17230 82.0
31.17730 83.0
31.18230 89.0
31.18730 76.0
31.19230 91.0
31.19730 77.0
31.20230 86.0
31.20730 95.0
31.21230 71.0
31.21730 85.0
31.22230 84.0
31.22730 85.0
31.23230 94.0
31.23730 93.0
31.24230 77.0
31.24730 98.0
31.25230 94.0
31.25730 70.0
31.26230 89.0
31.26730 93.0
31.27230 84.0
31.27730 89.0
31.28230 80.0
31.28730 80.0
31.29230 95.0
31.29730 77.0
31.30230 92.0
31.30730 95.0
31.31230 88.0
31.31730 93.0
31.32230 80.0
31.32730 88.0
31.33230 101.0
31.33730 100.0
31.34230 99.0
31.34730 95.0
31.35230 85.0
31.35730 79.0
31.36230 90.0
31.36730 91.0
31.37230 81.0
31.37730 95.0
31.38230 87.0
31.38730 98.0
31.39230 72.0
31.39730 80.0
31.40230 82.0
31.40730 92.0
31.41230 89.0
31.41730 83.0
31.42230 93.0
31.42730 92.0
31.43230 104.0
31.43730 103.0
31.44230 90.0
31.44730 94.0
31.45230 99.0
31.45730 92.0
31.46230 93.0
31.46730 88.0
31.47230 84.0
31.47730 74.0
31.48230 90.0
31.48730 96.0
31.49230 84.0
31.49730 94.0
31.50230 82.0
31.50730 86.0
31.51230 89.0
31.51730 116.0
31.52230 106.0
31.52730 91.0
31.53230 109.0
31.53730 98.0
31.54230 111.0
31.54730 84.0
31.55230 95.0
31.55730 93.0
31.56230 112.0
31.56730 93.0
31.57230 78.0
31.57730 107.0
31.58230 98.0
31.58730 93.0
31.59230 71.0
31.59730 96.0
31.60230 93.0
31.60730 88.0
31.61230 98.0
31.61730 85.0
31.62230 98.0
31.62730 114.0
31.63230 95.0
31.63730 98.0
31.64230 108.0
31.64730 110.0
31.65230 92.0
31.65730 96.0
31.66230 91.0
31.66730 89.0
31.67230 103.0
31.67730 100.0
31.68230 91.0
31.68730 121.0
31.69230 100.0
31.69730 111.0
31.70230 85.0
31.70730 107.0
31.71230 104.0
31.71730 103.0
31.72230 83.0
31.72730 118.0
31.73230 108.0
31.73730 106.0
31.74230 108.0
31.74730 106.0
31.75230 120.0
31.75730 113.0
31.76230 86.0
31.76730 104.0
31.77230 92.0
31.77730 85.0
31.78230 95.0
31.78730 110.0
31.79230 101.0
31.79730 85.0
31.80230 133.0
31.80730 95.0
31.81230 114.0
31.81730 108.0
31.82230 95.0
31.82730 100.0
31.83230 98.0
31.83730 93.0
31.84230 124.0
31.84730 99.0
31.85230 113.0
31.85730 118.0
31.86230 121.0
31.86730 104.0
31.87230 107.0
31.87730 109.0
31.88230 113.0
31.88730 110.0
31.89230 110.0
31.89730 108.0
31.90230 106.0
31.90730 94.0
31.91230 116.0
31.91730 119.0
31.92230 109.0
31.92730 106.0
31.93230 113.0
31.93730 96.0
31.94230 118.0
31.94730 123.0
31.95230 107.0
31.95730 103.0
31.96230 120.0
31.96730 119.0
31.97230 98.0
31.97730 111.0
31.98230 119.0
31.98730 118.0
31.99230 114.0
31.99730 132.0
32.00230 120.0
32.00730 109.0
32.01230 130.0
32.01730 138.0
32.02230 128.0
32.02730 137.0
32.03230 148.0
32.03730 133.0
32.04230 133.0
32.04730 138.0
32.05230 118.0
32.05730 136.0
32.06230 128.0
32.06730 118.0
32.07230 136.0
32.07730 128.0
32.08230 143.0
32.08730 128.0
32.09230 124.0
32.09730 135.0
32.10230 137.0
32.10730 130.0
32.11230 138.0
32.11730 134.0
32.12230 127.0
32.12730 125.0
32.13230 122.0
32.13730 109.0
32.14230 115.0
32.14730 149.0
32.15230 130.0
32.15730 142.0
32.16230 174.0
32.16730 158.0
32.17230 159.0
32.17730 164.0
32.18230 132.0
32.18730 149.0
32.19230 181.0
32.19730 145.0
32.20230 138.0
32.20730 145.0
32.21230 168.0
32.21730 184.0
32.22230 143.0
32.22730 141.0
32.23230 153.0
32.23730 165.0
32.24230 167.0
32.24730 150.0
32.25230 161.0
32.25730 161.0
32.26230 157.0
32.26730 152.0
32.27230 164.0
32.27730 162.0
32.28230 144.0
32.28730 174.0
32.29230 147.0
32.29730 175.0
32.30230 158.0
32.30730 147.0
32.31230 164.0
32.31730 164.0
32.32230 147.0
32.32730 143.0
32.33230 140.0
32.33730 173.0
32.34230 176.0
32.34730 151.0
32.35230 149.0
32.35730 168.0
32.36230 144.0
32.36730 178.0
32.37230 166.0
32.37730 143.0
32.38230 182.0
32.38730 172.0
32.39230 176.0
32.39730 177.0
32.40230 147.0
32.40730 177.0
32.41230 169.0
32.41730 159.0
32.42230 167.0
32.42730 182.0
32.43230 187.0
32.43730 183.0
32.44230 186.0
32.44730 208.0
32.45230 181.0
32.45730 178.0
32.46230 185.0
32.46730 184.0
32.47230 185.0
32.47730 214.0
32.48230 199.0
32.48730 205.0
32.49230 214.0
32.49730 204.0
32.50230 216.0
32.50730 234.0
32.51230 232.0
32.51730 264.0
32.52230 245.0
32.52730 237.0
32.53230 246.0
32.53730 246.0
32.54230 283.0
32.54730 269.0
32.55230 291.0
32.55730 267.0
32.56230 246.0
32.56730 263.0
32.57230 261.0
32.57730 237.0
32.58230 235.0
32.58730 237.0
32.59230 243.0
32.59730 234.0
32.60230 238.0
32.60730 244.0
32.61230 222.0
32.61730 238.0
32.62230 237.0
32.62730 225.0
32.63230 242.0
32.63730 193.0
32.64230 248.0
32.64730 239.0
32.65230 249.0
32.65730 227.0
32.66230 235.0
32.66730 241.0
32.67230 245.0
32.67730 237.0
32.68230 223.0
32.68730 241.0
32.69230 233.0
32.69730 273.0
32.70230 232.0
32.70730 220.0
32.71230 228.0
32.71730 233.0
32.72230 234.0
32.72730 214.0
32.73230 205.0
32.73730 198.0
32.74230 192.0
32.74730 177.0
32.75230 200.0
32.75730 193.0
32.76230 156.0
32.76730 186.0
32.77230 178.0
32.77730 178.0
32.78230 203.0
32.78730 195.0
32.79230 194.0
32.79730 174.0
32.80230 166.0
32.80730 156.0
32.81230 176.0
32.81730 174.0
32.82230 156.0
32.82730 172.0
32.83230 187.0
32.83730 188.0
32.84230 163.0
32.84730 182.0
32.85230 134.0
32.85730 198.0
32.86230 179.0
32.86730 174.0
32.87230 168.0
32.87730 166.0
32.88230 174.0
32.88730 146.0
32.89230 179.0
32.89730 184.0
32.90230 183.0
32.90730 200.0
32.91230 188.0
32.91730 183.0
32.92230 155.0
32.92730 170.0
32.93230 171.0
32.93730 184.0
32.94230 166.0
32.94730 209.0
32.95230 146.0
32.95730 179.0
32.96230 155.0
32.96730 179.0
32.97230 148.0
32.97730 165.0
32.98230 161.0
32.98730 170.0
32.99230 165.0
32.99730 167.0
33.00230 161.0
33.00730 161.0
33.01230 148.0
33.01730 163.0
33.02230 175.0
33.02730 167.0
33.03230 157.0
33.03730 144.0
33.04230 164.0
33.04730 157.0
33.05230 158.0
33.05730 154.0
33.06230 136.0
33.06730 145.0
33.07230 172.0
33.07730 147.0
33.08230 143.0
33.08730 166.0
33.09230 133.0
33.09730 154.0
33.10230 128.0
33.10730 140.0
33.11230 139.0
33.11730 132.0
33.12230 139.0
33.12730 167.0
33.13230 135.0
33.13730 160.0
33.14230 147.0
33.14730 148.0
33.15230 156.0
33.15730 139.0
33.16230 150.0
33.16730 139.0
33.17230 145.0
33.17730 151.0
33.18230 136.0
33.18730 117.0
33.19230 141.0
33.19730 114.0
33.20230 129.0
33.20730 134.0
33.21230 143.0
33.21730 126.0
33.22230 133.0
33.22730 103.0
33.23230 127.0
33.23730 135.0
33.24230 118.0
33.24730 111.0
33.25230 132.0
33.25730 119.0
33.26230 111.0
33.26730 115.0
33.27230 131.0
33.27730 116.0
33.28230 118.0
33.28730 134.0
33.29230 134.0
33.29730 106.0
33.30230 113.0
33.30730 130.0
33.31230 117.0
33.31730 104.0
33.32230 143.0
33.32730 115.0
33.33230 138.0
33.33730 99.0
33.34230 106.0
33.34730 117.0
33.35230 125.0
33.35730 132.0
33.36230 127.0
33.36730 131.0
33.37230 124.0
33.37730 104.0
33.38230 99.0
33.38730 115.0
33.39230 112.0
33.39730 99.0
33.40230 126.0
33.40730 111.0
33.41230 130.0
33.41730 105.0
33.42230 110.0
33.42730 113.0
33.43230 127.0
33.43730 97.0
33.44230 99.0
33.44730 102.0
33.45230 94.0
33.45730 110.0
33.46230 102.0
33.46730 101.0
33.47230 115.0
33.47730 110.0
33.48230 123.0
33.48730 98.0
33.49230 118.0
33.49730 105.0
33.50230 118.0
33.50730 76.0
33.51230 107.0
33.51730 102.0
33.52230 105.0
33.52730 112.0
33.53230 104.0
33.53730 109.0
33.54230 108.0
33.54730 109.0
33.55230 92.0
33.55730 91.0
33.56230 82.0
33.56730 101.0
33.57230 97.0
33.57730 98.0
33.58230 92.0
33.58730 102.0
33.59230 102.0
33.59730 88.0
33.60230 96.0
33.60730 88.0
33.61230 89.0
33.61730 92.0
33.62230 103.0
33.62730 84.0
33.63230 103.0
33.63730 102.0
33.64230 81.0
33.64730 84.0
33.65230 101.0
33.65730 90.0
33.66230 88.0
33.66730 90.0
33.67230 80.0
33.67730 90.0
33.68230 86.0
33.68730 100.0
33.69230 92.0
33.69730 84.0
33.70230 90.0
33.70730 79.0
33.71230 93.0
33.71730 86.0
33.72230 84.0
33.72730 101.0
33.73230 91.0
33.73730 84.0
33.74230 95.0
33.74730 76.0
33.75230 91.0
33.75730 93.0
33.76230 93.0
33.76730 77.0
33.77230 88.0
33.77730 70.0
33.78230 74.0
33.78730 82.0
33.79230 90.0
33.79730 94.0
33.80230 78.0
33.80730 86.0
33.81230 69.0
33.81730 75.0
33.82230 76.0
33.82730 77.0
33.83230 101.0
33.83730 97.0
33.84230 83.0
33.84730 88.0
33.85230 99.0
33.85730 95.0
33.86230 80.0
33.86730 96.0
33.87230 89.0
33.87730 99.0
33.88230 69.0
33.88730 93.0
33.89230 71.0
33.89730 78.0
33.90230 90.0
33.90730 86.0
33.91230 96.0
33.91730 85.0
33.92230 83.0
33.92730 84.0
33.93230 72.0
33.93730 92.0
33.94230 88.0
33.94730 75.0
33.95230 77.0
33.95730 90.0
33.96230 95.0
33.96730 79.0
33.97230 83.0
33.97730 62.0
33.98230 79.0
33.98730 80.0
33.99230 103.0
33.99730 88.0
34.00230 85.0
34.00730 84.0
34.01230 88.0
34.01730 84.0
34.02230 84.0
34.02730 72.0
34.03230 76.0
34.03730 89.0
34.04230 97.0
34.04730 75.0
34.05230 77.0
34.05730 88.0
34.06230 92.0
34.06730 88.0
34.07230 78.0
34.07730 102.0
34.08230 73.0
34.08730 89.0
34.09230 89.0
34.09730 71.0
34.10230 88.0
34.10730 90.0
34.11230 111.0
34.11730 90.0
34.12230 78.0
34.12730 88.0
34.13230 75.0
34.13730 84.0
34.14230 83.0
34.14730 78.0
34.15230 78.0
34.15730 98.0
34.16230 96.0
34.16730 83.0
34.17230 79.0
34.17730 78.0
34.18230 72.0
34.18730 64.0
34.19230 82.0
34.19730 108.0
34.20230 88.0
34.20730 74.0
34.21230 83.0
34.21730 93.0
34.22230 72.0
34.22730 97.0
34.23230 71.0
34.23730 80.0
34.24230 65.0
34.24730 87.0
34.25230 70.0
34.25730 78.0
34.26230 62.0
34.26730 60.0
34.27230 90.0
34.27730 83.0
34.28230 78.0
34.28730 97.0
34.29230 94.0
34.29730 82.0
34.30230 80.0
34.30730 95.0
34.31230 67.0
34.31730 79.0
34.32230 79.0
34.32730 75.0
34.33230 83.0
34.33730 86.0
34.34230 83.0
34.34730 68.0
34.35230 70.0
34.35730 77.0
34.36230 77.0
34.36730 75.0
34.37230 73.0
34.37730 67.0
34.38230 88.0
34.38730 74.0
34.39230 86.0
34.39730 80.0
34.40230 78.0
34.40730 69.0
34.41230 76.0
34.41730 92.0
34.42230 71.0
34.42730 60.0
34.43230 95.0
34.43730 72.0
34.44230 89.0
34.44730 82.0
34.45230 71.0
34.45730 75.0
34.46230 74.0
34.46730 71.0
34.47230 77.0
34.47730 76.0
34.48230 69.0
34.48730 64.0
34.49230 90.0
34.49730 74.0
34.50230 72.0
34.50730 77.0
34.51230 89.0
34.51730 95.0
34.52230 68.0
34.52730 59.0
34.53230 70.0
34.53730 74.0
34.54230 72.0
34.54730 69.0
34.55230 86.0
34.55730 70.0
34.56230 83.0
34.56730 77.0
34.57230 64.0
34.57730 90.0