File: data/W6724/XRD_2ThetaOmega/W6724_absolute_2th-om_58-72deg-20min_4.xy
58.0028 313.0
58.0127 244.0
58.0225 308.0
58.0324 317.0
58.0422 278.0
58.0521 283.0
58.0619 280.0
58.0718 291.0
58.0816 273.0
58.0915 291.0
58.1013 266.0
58.1112 268.0
58.121 311.0
58.1309 271.0
58.1407 285.0
58.1505 291.0
58.1604 291.0
58.1702 271.0
58.1801 277.0
58.1899 294.0
58.1998 281.0
58.2096 264.0
58.2195 287.0
58.2293 299.0
58.2392 303.0
58.249 312.0
58.2589 292.0
58.2687 300.0
58.2786 273.0
58.2884 285.0
58.2983 272.0
58.3081 269.0
58.318 303.0
58.3278 275.0
58.3377 310.0
58.3475 313.0
58.3573 297.0
58.3672 269.0
58.377 270.0
58.3869 286.0
58.3967 303.0
58.4066 293.0
58.4164 270.0
58.4263 286.0
58.4361 269.0
58.446 305.0
58.4558 267.0
58.4657 289.0
58.4755 287.0
58.4854 270.0
58.4952 293.0
58.5051 276.0
58.5149 286.0
58.5248 248.0
58.5346 273.0
58.5445 311.0
58.5543 286.0
58.5642 275.0
58.574 288.0
58.5838 276.0
58.5937 308.0
58.6035 282.0
58.6134 302.0
58.6232 297.0
58.6331 305.0
58.6429 258.0
58.6528 307.0
58.6626 282.0
58.6725 295.0
58.6823 296.0
58.6922 299.0
58.702 280.0
58.7119 265.0
58.7217 297.0
58.7316 290.0
58.7414 297.0
58.7513 309.0
58.7611 290.0
58.771 283.0
58.7808 246.0
58.7906 284.0
58.8005 286.0
58.8103 284.0
58.8202 278.0
58.83 284.0
58.8399 315.0
58.8497 291.0
58.8596 311.0
58.8694 278.0
58.8793 307.0
58.8891 265.0
58.899 267.0
58.9088 279.0
58.9187 282.0
58.9285 274.0
58.9384 310.0
58.9482 290.0
58.9581 274.0
58.9679 314.0
58.9778 292.0
58.9876 301.0
58.9974 305.0
59.0073 280.0
59.0171 304.0
59.027 321.0
59.0368 289.0
59.0467 319.0
59.0565 296.0
59.0664 287.0
59.0762 257.0
59.0861 279.0
59.0959 255.0
59.1058 273.0
59.1156 296.0
59.1255 311.0
59.1353 303.0
59.1452 273.0
59.155 283.0
59.1649 290.0
59.1747 307.0
59.1846 287.0
59.1944 260.0
59.2043 282.0
59.2141 324.0
59.2239 305.0
59.2338 295.0
59.2436 296.0
59.2535 308.0
59.2633 302.0
59.2732 298.0
59.283 304.0
59.2929 294.0
59.3027 317.0
59.3126 288.0
59.3224 286.0
59.3323 280.0
59.3421 295.0
59.352 289.0
59.3618 287.0
59.3717 304.0
59.3815 280.0
59.3914 271.0
59.4012 297.0
59.4111 293.0
59.4209 332.0
59.4307 274.0
59.4406 265.0
59.4504 289.0
59.4603 327.0
59.4701 297.0
59.48 293.0
59.4898 302.0
59.4997 323.0
59.5095 274.0
59.5194 296.0
59.5292 285.0
59.5391 297.0
59.5489 286.0
59.5588 291.0
59.5686 321.0
59.5785 278.0
59.5883 303.0
59.5982 300.0
59.608 268.0
59.6179 304.0
59.6277 303.0
59.6376 291.0
59.6474 297.0
59.6572 301.0
59.6671 303.0
59.6769 272.0
59.6868 290.0
59.6966 311.0
59.7065 282.0
59.7163 302.0
59.7262 298.0
59.736 271.0
59.7459 298.0
59.7557 319.0
59.7656 306.0
59.7754 290.0
59.7853 309.0
59.7951 286.0
59.805 300.0
59.8148 261.0
59.8247 300.0
59.8345 287.0
59.8444 288.0
59.8542 305.0
59.864 300.0
59.8739 309.0
59.8837 312.0
59.8936 240.0
59.9034 273.0
59.9133 293.0
59.9231 292.0
59.933 335.0
59.9428 287.0
59.9527 276.0
59.9625 317.0
59.9724 327.0
59.9822 310.0
59.9921 288.0
60.0019 298.0
60.0118 311.0
60.0216 282.0
60.0315 299.0
60.0413 301.0
60.0512 301.0
60.061 321.0
60.0709 335.0
60.0807 286.0
60.0905 289.0
60.1004 266.0
60.1102 302.0
60.1201 318.0
60.1299 322.0
60.1398 262.0
60.1496 284.0
60.1595 314.0
60.1693 292.0
60.1792 292.0
60.189 317.0
60.1989 286.0
60.2087 309.0
60.2186 318.0
60.2284 285.0
60.2383 323.0
60.2481 320.0
60.258 305.0
60.2678 335.0
60.2777 329.0
60.2875 370.0
60.2973 367.0
60.3072 343.0
60.317 347.0
60.3269 325.0
60.3367 323.0
60.3466 330.0
60.3564 319.0
60.3663 290.0
60.3761 322.0
60.386 327.0
60.3958 318.0
60.4057 294.0
60.4155 346.0
60.4254 318.0
60.4352 317.0
60.4451 312.0
60.4549 298.0
60.4648 345.0
60.4746 330.0
60.4845 289.0
60.4943 346.0
60.5041 339.0
60.514 334.0
60.5238 345.0
60.5337 351.0
60.5435 311.0
60.5534 343.0
60.5632 326.0
60.5731 329.0
60.5829 339.0
60.5928 326.0
60.6026 329.0
60.6125 340.0
60.6223 326.0
60.6322 350.0
60.642 403.0
60.6519 339.0
60.6617 379.0
60.6716 362.0
60.6814 386.0
60.6913 387.0
60.7011 383.0
60.711 413.0
60.7208 464.0
60.7306 443.0
60.7405 514.0
60.7503 572.0
60.7602 693.0
60.77 850.0
60.7799 1073.0
60.7897 1392.0
60.7996 1807.0
60.8094 2172.0
60.8193 2379.0
60.8291 2593.0
60.839 2550.0
60.8488 2299.0
60.8587 1995.0
60.8685 1719.0
60.8784 1438.0
60.8882 1336.0
60.8981 1313.0
60.9079 1230.0
60.9178 1248.0
60.9276 1109.0
60.9374 971.0
60.9473 779.0
60.9571 695.0
60.967 598.0
60.9768 532.0
60.9867 502.0
60.9965 481.0
61.0064 475.0
61.0162 464.0
61.0261 445.0
61.0359 434.0
61.0458 426.0
61.0556 405.0
61.0655 410.0
61.0753 406.0
61.0852 372.0
61.095 426.0
61.1049 417.0
61.1147 386.0
61.1246 347.0
61.1344 392.0
61.1443 373.0
61.1541 440.0
61.1639 396.0
61.1738 401.0
61.1836 344.0
61.1935 367.0
61.2033 378.0
61.2132 351.0
61.223 366.0
61.2329 416.0
61.2427 377.0
61.2526 395.0
61.2624 400.0
61.2723 410.0
61.2821 428.0
61.292 404.0
61.3018 397.0
61.3117 416.0
61.3215 366.0
61.3314 373.0
61.3412 423.0
61.3511 413.0
61.3609 380.0
61.3707 390.0
61.3806 366.0
61.3904 405.0
61.4003 386.0
61.4101 418.0
61.42 417.0
61.4298 387.0
61.4397 429.0
61.4495 382.0
61.4594 402.0
61.4692 431.0
61.4791 369.0
61.4889 397.0
61.4988 397.0
61.5086 384.0
61.5185 402.0
61.5283 393.0
61.5382 378.0
61.548 357.0
61.5579 401.0
61.5677 333.0
61.5776 369.0
61.5874 382.0
61.5972 358.0
61.6071 350.0
61.6169 345.0
61.6268 368.0
61.6366 359.0
61.6465 367.0
61.6563 382.0
61.6662 392.0
61.676 348.0
61.6859 353.0
61.6957 373.0
61.7056 363.0
61.7154 325.0
61.7253 355.0
61.7351 353.0
61.745 308.0
61.7548 346.0
61.7647 347.0
61.7745 351.0
61.7844 322.0
61.7942 367.0
61.804 339.0
61.8139 388.0
61.8237 339.0
61.8336 367.0
61.8434 348.0
61.8533 363.0
61.8631 329.0
61.873 347.0
61.8828 371.0
61.8927 366.0
61.9025 370.0
61.9124 360.0
61.9222 347.0
61.9321 337.0
61.9419 363.0
61.9518 362.0
61.9616 369.0
61.9715 366.0
61.9813 354.0
61.9912 386.0
62.001 350.0
62.0108 357.0
62.0207 328.0
62.0305 370.0
62.0404 340.0
62.0502 345.0
62.0601 365.0
62.0699 376.0
62.0798 390.0
62.0896 362.0
62.0995 343.0
62.1093 364.0
62.1192 360.0
62.129 364.0
62.1389 345.0
62.1487 342.0
62.1586 377.0
62.1684 360.0
62.1783 349.0
62.1881 380.0
62.198 346.0
62.2078 370.0
62.2177 378.0
62.2275 372.0
62.2373 353.0
62.2472 372.0
62.257 362.0
62.2669 371.0
62.2767 380.0
62.2866 371.0
62.2964 378.0
62.3063 356.0
62.3161 372.0
62.326 384.0
62.3358 367.0
62.3457 379.0
62.3555 357.0
62.3654 373.0
62.3752 376.0
62.3851 380.0
62.3949 389.0
62.4048 378.0
62.4146 349.0
62.4245 372.0
62.4343 368.0
62.4441 386.0
62.454 374.0
62.4638 387.0
62.4737 376.0
62.4835 382.0
62.4934 355.0
62.5032 416.0
62.5131 350.0
62.5229 386.0
62.5328 394.0
62.5426 390.0
62.5525 410.0
62.5623 411.0
62.5722 397.0
62.582 385.0
62.5919 392.0
62.6017 407.0
62.6116 350.0
62.6214 372.0
62.6313 372.0
62.6411 380.0
62.651 397.0
62.6608 391.0
62.6706 389.0
62.6805 408.0
62.6903 390.0
62.7002 404.0
62.71 399.0
62.7199 402.0
62.7297 413.0
62.7396 376.0
62.7494 432.0
62.7593 389.0
62.7691 411.0
62.779 441.0
62.7888 399.0
62.7987 415.0
62.8085 389.0
62.8184 409.0
62.8282 430.0
62.8381 420.0
62.8479 427.0
62.8578 406.0
62.8676 405.0
62.8774 428.0
62.8873 412.0
62.8971 452.0
62.907 465.0
62.9168 403.0
62.9267 466.0
62.9365 375.0
62.9464 466.0
62.9562 404.0
62.9661 432.0
62.9759 441.0
62.9858 435.0
62.9956 458.0
63.0055 443.0
63.0153 463.0
63.0252 443.0
63.035 462.0
63.0449 472.0
63.0547 467.0
63.0646 483.0
63.0744 471.0
63.0843 507.0
63.0941 479.0
63.1039 497.0
63.1138 480.0
63.1236 495.0
63.1335 446.0
63.1433 463.0
63.1532 457.0
63.163 457.0
63.1729 467.0
63.1827 506.0
63.1926 525.0
63.2024 486.0
63.2123 527.0
63.2221 498.0
63.232 519.0
63.2418 500.0
63.2517 546.0
63.2615 511.0
63.2714 491.0
63.2812 542.0
63.2911 552.0
63.3009 521.0
63.3107 535.0
63.3206 484.0
63.3304 545.0
63.3403 579.0
63.3501 519.0
63.36 562.0
63.3698 562.0
63.3797 590.0
63.3895 541.0
63.3994 529.0
63.4092 563.0
63.4191 564.0
63.4289 539.0
63.4388 598.0
63.4486 573.0
63.4585 592.0
63.4683 594.0
63.4782 603.0
63.488 652.0
63.4979 588.0
63.5077 657.0
63.5175 646.0
63.5274 621.0
63.5372 655.0
63.5471 663.0
63.5569 688.0
63.5668 616.0
63.5766 666.0
63.5865 687.0
63.5963 677.0
63.6062 725.0
63.616 777.0
63.6259 730.0
63.6357 755.0
63.6456 709.0
63.6554 768.0
63.6653 752.0
63.6751 758.0
63.685 790.0
63.6948 816.0
63.7047 798.0
63.7145 831.0
63.7244 886.0
63.7342 831.0
63.744 850.0
63.7539 884.0
63.7637 970.0
63.7736 966.0
63.7834 950.0
63.7933 916.0
63.8031 1004.0
63.813 935.0
63.8228 1037.0
63.8327 1023.0
63.8425 1033.0
63.8524 1092.0
63.8622 1132.0
63.8721 1163.0
63.8819 1193.0
63.8918 1167.0
63.9016 1161.0
63.9115 1273.0
63.9213 1250.0
63.9312 1339.0
63.941 1321.0
63.9508 1446.0
63.9607 1499.0
63.9705 1461.0
63.9804 1546.0
63.9902 1554.0
64.0001 1621.0
64.0099 1698.0
64.0198 1754.0
64.0296 1803.0
64.0395 1885.0
64.0493 1898.0
64.0592 2037.0
64.069 2129.0
64.0789 2151.0
64.0887 2179.0
64.0986 2350.0
64.1084 2445.0
64.1183 2608.0
64.1281 2727.0
64.138 2788.0
64.1478 2861.0
64.1577 2990.0
64.1675 3187.0
64.1773 3277.0
64.1872 3452.0
64.197 3544.0
64.2069 3690.0
64.2167 3939.0
64.2266 3991.0
64.2364 4144.0
64.2463 4440.0
64.2561 4548.0
64.266 4797.0
64.2758 5059.0
64.2857 5234.0
64.2955 5537.0
64.3054 5789.0
64.3152 5864.0
64.3251 6319.0
64.3349 6486.0
64.3448 6550.0
64.3546 6790.0
64.3645 7059.0
64.3743 7432.0
64.3841 7255.0
64.394 7333.0
64.4038 7457.0
64.4137 7431.0
64.4235 7543.0
64.4334 7504.0
64.4432 7274.0
64.4531 7231.0
64.4629 7194.0
64.4728 7003.0
64.4826 7029.0
64.4925 6759.0
64.5023 6780.0
64.5122 6670.0
64.522 6418.0
64.5319 6272.0
64.5417 6103.0
64.5516 6079.0
64.5614 5682.0
64.5713 5657.0
64.5811 5517.0
64.591 5362.0
64.6008 5081.0
64.6106 5009.0
64.6205 4639.0
64.6303 4513.0
64.6402 4219.0
64.65 4252.0
64.6599 3935.0
64.6697 3848.0
64.6796 3606.0
64.6894 3407.0
64.6993 3320.0
64.7091 3039.0
64.719 2913.0
64.7288 2824.0
64.7387 2563.0
64.7485 2527.0
64.7584 2426.0
64.7682 2285.0
64.7781 2286.0
64.7879 2069.0
64.7978 2008.0
64.8076 2058.0
64.8174 1996.0
64.8273 1954.0
64.8371 1844.0
64.847 1913.0
64.8568 1919.0
64.8667 1969.0
64.8765 2173.0
64.8864 2299.0
64.8962 2624.0
64.9061 3154.0
64.9159 3815.0
64.9258 4311.0
64.9356 4758.0
64.9455 5089.0
64.9553 5009.0
64.9652 4750.0
64.975 4280.0
64.9849 3736.0
64.9947 3381.0
65.0046 2638.0
65.0144 2284.0
65.0242 1998.0
65.0341 1641.0
65.0439 1514.0
65.0538 1336.0
65.0636 1274.0
65.0735 1139.0
65.0833 1092.0
65.0932 1038.0
65.103 949.0
65.1129 903.0
65.1227 913.0
65.1326 902.0
65.1424 868.0
65.1523 767.0
65.1621 779.0
65.172 772.0
65.1818 838.0
65.1917 750.0
65.2015 774.0
65.2114 726.0
65.2212 639.0
65.2311 718.0
65.2409 691.0
65.2507 667.0
65.2606 674.0
65.2704 655.0
65.2803 667.0
65.2901 696.0
65.3 657.0
65.3098 704.0
65.3197 670.0
65.3295 651.0
65.3394 628.0
65.3492 661.0
65.3591 632.0
65.3689 667.0
65.3788 645.0
65.3886 672.0
65.3985 688.0
65.4083 696.0
65.4182 734.0
65.428 800.0
65.4379 804.0
65.4477 906.0
65.4575 998.0
65.4674 1071.0
65.4772 1252.0
65.4871 1335.0
65.4969 1323.0
65.5068 1325.0
65.5166 1226.0
65.5265 1225.0
65.5363 1013.0
65.5462 887.0
65.556 853.0
65.5659 778.0
65.5757 710.0
65.5856 699.0
65.5954 632.0
65.6053 599.0
65.6151 561.0
65.625 649.0
65.6348 606.0
65.6447 610.0
65.6545 565.0
65.6644 528.0
65.6742 603.0
65.684 559.0
65.6939 611.0
65.7037 544.0
65.7136 528.0
65.7234 516.0
65.7333 524.0
65.7431 559.0
65.753 512.0
65.7628 563.0
65.7727 550.0
65.7825 545.0
65.7924 510.0
65.8022 515.0
65.8121 533.0
65.8219 551.0
65.8318 548.0
65.8416 535.0
65.8515 559.0
65.8613 538.0
65.8712 547.0
65.881 520.0
65.8908 528.0
65.9007 508.0
65.9105 552.0
65.9204 587.0
65.9302 589.0
65.9401 560.0
65.9499 543.0
65.9598 523.0
65.9696 566.0
65.9795 591.0
65.9893 492.0
65.9992 532.0
66.009 526.0
66.0189 551.0
66.0287 522.0
66.0386 588.0
66.0484 563.0
66.0583 585.0
66.0681 545.0
66.078 597.0
66.0878 565.0
66.0977 648.0
66.1075 643.0
66.1173 610.0
66.1272 653.0
66.137 624.0
66.1469 627.0
66.1567 671.0
66.1666 638.0
66.1764 570.0
66.1863 623.0
66.1961 644.0
66.206 583.0
66.2158 632.0
66.2257 601.0
66.2355 656.0
66.2454 580.0
66.2552 617.0
66.2651 578.0
66.2749 635.0
66.2848 603.0
66.2946 579.0
66.3045 638.0
66.3143 598.0
66.3241 614.0
66.334 610.0
66.3438 633.0
66.3537 617.0
66.3635 608.0
66.3734 633.0
66.3832 645.0
66.3931 659.0
66.4029 625.0
66.4128 690.0
66.4226 660.0
66.4325 640.0
66.4423 721.0
66.4522 705.0
66.462 685.0
66.4719 691.0
66.4817 690.0
66.4916 737.0
66.5014 711.0
66.5113 674.0
66.5211 702.0
66.5309 683.0
66.5408 665.0
66.5506 725.0
66.5605 733.0
66.5703 718.0
66.5802 766.0
66.59 742.0
66.5999 700.0
66.6097 747.0
66.6196 726.0
66.6294 761.0
66.6393 742.0
66.6491 763.0
66.659 796.0
66.6688 767.0
66.6787 828.0
66.6885 781.0
66.6984 797.0
66.7082 754.0
66.7181 780.0
66.7279 841.0
66.7378 843.0
66.7476 820.0
66.7574 820.0
66.7673 820.0
66.7771 819.0
66.787 819.0
66.7968 812.0
66.8067 802.0
66.8165 859.0
66.8264 843.0
66.8362 852.0
66.8461 873.0
66.8559 890.0
66.8658 919.0
66.8756 939.0
66.8855 876.0
66.8953 936.0
66.9052 919.0
66.915 893.0
66.9249 982.0
66.9347 902.0
66.9446 943.0
66.9544 961.0
66.9642 947.0
66.9741 968.0
66.9839 949.0
66.9938 1000.0
67.0036 1008.0
67.0135 1056.0
67.0233 969.0
67.0332 982.0
67.043 1007.0
67.0529 1061.0
67.0627 982.0
67.0726 1009.0
67.0824 1032.0
67.0923 1015.0
67.1021 1065.0
67.112 1140.0
67.1218 1068.0
67.1317 1181.0
67.1415 1120.0
67.1514 1175.0
67.1612 1183.0
67.1711 1148.0
67.1809 1255.0
67.1907 1204.0
67.2006 1195.0
67.2104 1286.0
67.2203 1241.0
67.2301 1266.0
67.24 1266.0
67.2498 1308.0
67.2597 1251.0
67.2695 1268.0
67.2794 1345.0
67.2892 1334.0
67.2991 1245.0
67.3089 1307.0
67.3188 1379.0
67.3286 1288.0
67.3385 1362.0
67.3483 1377.0
67.3582 1360.0
67.368 1400.0
67.3779 1480.0
67.3877 1457.0
67.3975 1537.0
67.4074 1521.0
67.4172 1591.0
67.4271 1603.0
67.4369 1636.0
67.4468 1605.0
67.4566 1547.0
67.4665 1675.0
67.4763 1702.0
67.4862 1674.0
67.496 1772.0
67.5059 1683.0
67.5157 1844.0
67.5256 1851.0
67.5354 1887.0
67.5453 1896.0
67.5551 1913.0
67.565 1970.0
67.5748 2009.0
67.5847 2023.0
67.5945 2102.0
67.6044 2003.0
67.6142 2097.0
67.624 2197.0
67.6339 2200.0
67.6437 2287.0
67.6536 2404.0
67.6634 2433.0
67.6733 2649.0
67.6831 2656.0
67.693 2922.0
67.7028 2917.0
67.7127 3126.0
67.7225 3327.0
67.7324 3726.0
67.7422 3941.0
67.7521 4317.0
67.7619 4694.0
67.7718 5198.0
67.7816 5497.0
67.7915 6023.0
67.8013 6298.0
67.8112 6865.0
67.821 6908.0
67.8308 7136.0
67.8407 7122.0
67.8505 7257.0
67.8604 7294.0
67.8702 7131.0
67.8801 7143.0
67.8899 6897.0
67.8998 7014.0
67.9096 6894.0
67.9195 7100.0
67.9293 7441.0
67.9392 7874.0
67.949 8198.0
67.9589 8618.0
67.9687 9284.0
67.9786 10010.0
67.9884 10931.0
67.9983 12316.0
68.0081 13861.0
68.018 15330.0
68.0278 18051.0
68.0376 20821.0
68.0475 25077.0
68.0573 29969.0
68.0672 37846.0
68.077 48782.0
68.0869 66349.0
68.0967 97650.0
68.1066 161123.0
68.1164 296982.0
68.1263 482626.0
68.1361 614724.0
68.146 678810.0
68.1558 694767.0
68.1657 647216.0
68.1755 503901.0
68.1854 316978.0
68.1952 194551.0
68.2051 126306.0
68.2149 85303.0
68.2248 62552.0
68.2346 49512.0
68.2445 42612.0
68.2543 40078.0
68.2641 40862.0
68.274 45910.0
68.2838 56483.0
68.2937 78587.0
68.3035 122912.0
68.3134 198763.0
68.3232 275137.0
68.3331 327925.0
68.3429 351957.0
68.3528 345119.0
68.3626 302606.0
68.3725 225543.0
68.3823 146922.0
68.3922 93250.0
68.402 61206.0
68.4119 42513.0
68.4217 31278.0
68.4316 24774.0
68.4414 20060.0
68.4513 16779.0
68.4611 14530.0
68.4709 12681.0
68.4808 11720.0
68.4906 10506.0
68.5005 9524.0
68.5103 8947.0
68.5202 8458.0
68.53 7799.0
68.5399 7328.0
68.5497 7064.0
68.5596 6562.0
68.5694 6315.0
68.5793 5827.0
68.5891 5612.0
68.599 5343.0
68.6088 5120.0
68.6187 4740.0
68.6285 4712.0
68.6384 4497.0
68.6482 4278.0
68.6581 4239.0
68.6679 4065.0
68.6778 3980.0
68.6876 3865.0
68.6974 3670.0
68.7073 3558.0
68.7171 3491.0
68.727 3383.0
68.7368 3390.0
68.7467 3291.0
68.7565 3225.0
68.7664 3033.0
68.7762 2974.0
68.7861 2864.0
68.7959 2795.0
68.8058 2771.0
68.8156 2754.0
68.8255 2651.0
68.8353 2596.0
68.8452 2480.0
68.855 2437.0
68.8649 2449.0
68.8747 2437.0
68.8846 2284.0
68.8944 2259.0
68.9042 2161.0
68.9141 2143.0
68.9239 2123.0
68.9338 2191.0
68.9436 2145.0
68.9535 2093.0
68.9633 2100.0
68.9732 2042.0
68.983 1985.0
68.9929 1867.0
69.0027 1920.0
69.0126 1971.0
69.0224 1859.0
69.0323 1887.0
69.0421 1892.0
69.052 1817.0
69.0618 1843.0
69.0717 1788.0
69.0815 1793.0
69.0914 1788.0
69.1012 1700.0
69.1111 1698.0
69.1209 1711.0
69.1307 1670.0
69.1406 1628.0
69.1504 1695.0
69.1603 1607.0
69.1701 1581.0
69.18 1639.0
69.1898 1499.0
69.1997 1491.0
69.2095 1496.0
69.2194 1477.0
69.2292 1471.0
69.2391 1458.0
69.2489 1429.0
69.2588 1419.0
69.2686 1440.0
69.2785 1473.0
69.2883 1372.0
69.2982 1369.0
69.308 1421.0
69.3179 1333.0
69.3277 1332.0
69.3375 1348.0
69.3474 1294.0
69.3572 1253.0
69.3671 1332.0
69.3769 1253.0
69.3868 1317.0
69.3966 1244.0
69.4065 1258.0
69.4163 1151.0
69.4262 1194.0
69.436 1201.0
69.4459 1184.0
69.4557 1209.0
69.4656 1176.0
69.4754 1190.0
69.4853 1073.0
69.4951 1126.0
69.505 1066.0
69.5148 1043.0
69.5247 1111.0
69.5345 1078.0
69.5443 1025.0
69.5542 1051.0
69.564 1042.0
69.5739 1082.0
69.5837 1075.0
69.5936 1039.0
69.6034 1009.0
69.6133 955.0
69.6231 1003.0
69.633 987.0
69.6428 956.0
69.6527 993.0
69.6625 953.0
69.6724 960.0
69.6822 916.0
69.6921 921.0
69.7019 945.0
69.7118 964.0
69.7216 926.0
69.7315 921.0
69.7413 891.0
69.7512 882.0
69.761 867.0
69.7708 891.0
69.7807 869.0
69.7905 919.0
69.8004 866.0
69.8102 845.0
69.8201 811.0
69.8299 809.0
69.8398 862.0
69.8496 768.0
69.8595 784.0
69.8693 886.0
69.8792 815.0
69.889 761.0
69.8989 797.0
69.9087 773.0
69.9186 811.0
69.9284 769.0
69.9383 803.0
69.9481 774.0
69.958 768.0
69.9678 707.0
69.9776 719.0
69.9875 778.0
69.9973 724.0
70.0072 773.0
70.017 764.0
70.0269 707.0
70.0367 710.0
70.0466 682.0
70.0564 729.0
70.0663 759.0
70.0761 695.0
70.086 664.0
70.0958 669.0
70.1057 672.0
70.1155 643.0
70.1254 678.0
70.1352 642.0
70.1451 654.0
70.1549 671.0
70.1648 681.0
70.1746 686.0
70.1845 645.0
70.1943 592.0
70.2041 595.0
70.214 647.0
70.2238 612.0
70.2337 638.0
70.2435 590.0
70.2534 583.0
70.2632 637.0
70.2731 590.0
70.2829 579.0
70.2928 602.0
70.3026 616.0
70.3125 590.0
70.3223 602.0
70.3322 574.0
70.342 540.0
70.3519 552.0
70.3617 606.0
70.3716 608.0
70.3814 587.0
70.3913 578.0
70.4011 596.0
70.4109 553.0
70.4208 547.0
70.4306 538.0
70.4405 552.0
70.4503 540.0
70.4602 540.0
70.47 546.0
70.4799 548.0
70.4897 533.0
70.4996 533.0
70.5094 510.0
70.5193 528.0
70.5291 518.0
70.539 484.0
70.5488 491.0
70.5587 541.0
70.5685 525.0
70.5784 515.0
70.5882 491.0
70.5981 519.0
70.6079 488.0
70.6178 511.0
70.6276 500.0
70.6374 499.0
70.6473 470.0
70.6571 549.0
70.667 559.0
70.6768 487.0
70.6867 504.0
70.6965 471.0
70.7064 496.0
70.7162 494.0
70.7261 479.0
70.7359 491.0
70.7458 533.0
70.7556 451.0
70.7655 444.0
70.7753 452.0
70.7852 503.0
70.795 510.0
70.8049 455.0
70.8147 477.0
70.8246 489.0
70.8344 464.0
70.8442 446.0
70.8541 426.0
70.8639 485.0
70.8738 471.0
70.8836 444.0
70.8935 470.0
70.9033 441.0
70.9132 430.0
70.923 469.0
70.9329 463.0
70.9427 451.0
70.9526 430.0
70.9624 420.0
70.9723 411.0
70.9821 452.0
70.992 444.0
71.0018 494.0
71.0117 432.0
71.0215 440.0
71.0314 414.0
71.0412 475.0
71.051 434.0
71.0609 445.0
71.0707 409.0
71.0806 409.0
71.0904 425.0
71.1003 437.0
71.1101 451.0
71.12 452.0
71.1298 449.0
71.1397 398.0
71.1495 440.0
71.1594 430.0
71.1692 459.0
71.1791 460.0
71.1889 413.0
71.1988 384.0
71.2086 435.0
71.2185 414.0
71.2283 405.0
71.2382 450.0
71.248 442.0
71.2579 433.0
71.2677 415.0
71.2775 435.0
71.2874 443.0
71.2972 416.0
71.3071 419.0
71.3169 405.0
71.3268 409.0
71.3366 393.0
71.3465 390.0
71.3563 409.0
71.3662 437.0
71.376 413.0
71.3859 402.0
71.3957 375.0
71.4056 408.0
71.4154 406.0
71.4253 408.0
71.4351 402.0
71.445 402.0
71.4548 389.0
71.4647 412.0
71.4745 430.0
71.4843 416.0
71.4942 421.0
71.504 392.0
71.5139 421.0
71.5237 409.0
71.5336 382.0
71.5434 411.0
71.5533 391.0
71.5631 384.0
71.573 385.0
71.5828 406.0
71.5927 401.0
71.6025 382.0
71.6124 403.0
71.6222 381.0
71.6321 397.0
71.6419 369.0
71.6518 378.0
71.6616 380.0
71.6715 360.0
71.6813 386.0
71.6912 363.0
71.701 378.0
71.7108 346.0
71.7207 407.0
71.7305 385.0
71.7404 379.0
71.7502 367.0
71.7601 390.0
71.7699 367.0
71.7798 357.0
71.7896 395.0
71.7995 377.0
71.8093 407.0
71.8192 352.0
71.829 430.0
71.8389 394.0
71.8487 365.0
71.8586 385.0
71.8684 369.0
71.8783 356.0
71.8881 374.0
71.898 358.0
71.9078 386.0
71.9176 402.0
71.9275 383.0
71.9373 363.0
71.9472 382.0
71.957 384.0
71.9669 369.0
71.9767 379.0
71.9866 394.0
71.9964 351.0
71.9989 399.0