File: data/W6959c/XRD_2ThetaOmega/c_scan_2th-om_10-130deg_PIXscan_17min_C2.xy
10.0035 43.0
10.0872 51.0
10.1709 49.0
10.2546 55.0
10.3383 51.0
10.422 50.0
10.5057 40.0
10.5894 51.0
10.6731 45.0
10.7568 44.0
10.8405 47.0
10.9242 47.0
11.0079 47.0
11.0916 47.0
11.1753 51.0
11.259 40.0
11.3428 43.0
11.4265 41.0
11.5102 37.0
11.5939 47.0
11.6776 30.0
11.7613 49.0
11.845 39.0
11.9287 34.0
12.0124 50.0
12.0961 37.0
12.1798 49.0
12.2635 48.0
12.3472 38.0
12.4309 41.0
12.5146 39.0
12.5983 39.0
12.682 36.0
12.7657 33.0
12.8495 43.0
12.9332 39.0
13.0169 36.0
13.1006 37.0
13.1843 50.0
13.268 28.0
13.3517 27.0
13.4354 33.0
13.5191 27.0
13.6028 40.0
13.6865 43.0
13.7702 31.0
13.8539 34.0
13.9376 26.0
14.0213 44.0
14.105 45.0
14.1887 36.0
14.2724 25.0
14.3562 48.0
14.4399 33.0
14.5236 31.0
14.6073 36.0
14.691 34.0
14.7747 41.0
14.8584 38.0
14.9421 37.0
15.0258 28.0
15.1095 46.0
15.1932 35.0
15.2769 38.0
15.3606 33.0
15.4443 28.0
15.528 30.0
15.6117 45.0
15.6954 34.0
15.7791 25.0
15.8629 34.0
15.9466 35.0
16.0303 40.0
16.114 48.0
16.1977 43.0
16.2814 41.0
16.3651 36.0
16.4488 39.0
16.5325 42.0
16.6162 33.0
16.6999 38.0
16.7836 40.0
16.8673 31.0
16.951 42.0
17.0347 41.0
17.1184 46.0
17.2021 29.0
17.2858 24.0
17.3696 33.0
17.4533 29.0
17.537 32.0
17.6207 29.0
17.7044 35.0
17.7881 28.0
17.8718 32.0
17.9555 31.0
18.0392 36.0
18.1229 29.0
18.2066 24.0
18.2903 15.0
18.374 31.0
18.4577 25.0
18.5414 27.0
18.6251 29.0
18.7088 36.0
18.7925 40.0
18.8763 30.0
18.96 26.0
19.0437 38.0
19.1274 36.0
19.2111 33.0
19.2948 33.0
19.3785 36.0
19.4622 22.0
19.5459 28.0
19.6296 35.0
19.7133 46.0
19.797 32.0
19.8807 38.0
19.9644 32.0
20.0481 35.0
20.1318 30.0
20.2155 35.0
20.2992 21.0
20.383 28.0
20.4667 37.0
20.5504 33.0
20.6341 29.0
20.7178 19.0
20.8015 31.0
20.8852 34.0
20.9689 23.0
21.0526 22.0
21.1363 30.0
21.22 25.0
21.3037 24.0
21.3874 20.0
21.4711 29.0
21.5548 35.0
21.6385 29.0
21.7222 28.0
21.8059 33.0
21.8897 25.0
21.9734 26.0
22.0571 31.0
22.1408 24.0
22.2245 19.0
22.3082 25.0
22.3919 27.0
22.4756 30.0
22.5593 25.0
22.643 23.0
22.7267 24.0
22.8104 26.0
22.8941 29.0
22.9778 25.0
23.0615 24.0
23.1452 21.0
23.2289 26.0
23.3126 21.0
23.3964 28.0
23.4801 36.0
23.5638 19.0
23.6475 25.0
23.7312 39.0
23.8149 26.0
23.8986 21.0
23.9823 30.0
24.066 29.0
24.1497 25.0
24.2334 30.0
24.3171 23.0
24.4008 29.0
24.4845 43.0
24.5682 26.0
24.6519 23.0
24.7356 25.0
24.8193 22.0
24.9031 27.0
24.9868 26.0
25.0705 30.0
25.1542 31.0
25.2379 32.0
25.3216 26.0
25.4053 30.0
25.489 20.0
25.5727 33.0
25.6564 20.0
25.7401 25.0
25.8238 28.0
25.9075 27.0
25.9912 28.0
26.0749 32.0
26.1586 31.0
26.2423 19.0
26.326 24.0
26.4098 20.0
26.4935 27.0
26.5772 27.0
26.6609 37.0
26.7446 26.0
26.8283 28.0
26.912 35.0
26.9957 25.0
27.0794 27.0
27.1631 28.0
27.2468 21.0
27.3305 36.0
27.4142 31.0
27.4979 18.0
27.5816 26.0
27.6653 21.0
27.749 32.0
27.8327 30.0
27.9165 28.0
28.0002 21.0
28.0839 24.0
28.1676 22.0
28.2513 29.0
28.335 32.0
28.4187 29.0
28.5024 23.0
28.5861 19.0
28.6698 25.0
28.7535 21.0
28.8372 21.0
28.9209 17.0
29.0046 19.0
29.0883 24.0
29.172 25.0
29.2557 24.0
29.3394 26.0
29.4232 26.0
29.5069 22.0
29.5906 29.0
29.6743 30.0
29.758 20.0
29.8417 21.0
29.9254 20.0
30.0091 22.0
30.0928 22.0
30.1765 23.0
30.2602 25.0
30.3439 24.0
30.4276 21.0
30.5113 32.0
30.595 19.0
30.6787 18.0
30.7624 19.0
30.8461 34.0
30.9298 21.0
31.0136 27.0
31.0973 21.0
31.181 27.0
31.2647 21.0
31.3484 21.0
31.4321 25.0
31.5158 34.0
31.5995 26.0
31.6832 25.0
31.7669 28.0
31.8506 32.0
31.9343 26.0
32.018 13.0
32.1017 22.0
32.1854 19.0
32.2691 23.0
32.3528 19.0
32.4365 25.0
32.5203 40.0
32.604 21.0
32.6877 20.0
32.7714 25.0
32.8551 30.0
32.9388 33.0
33.0225 20.0
33.1062 14.0
33.1899 33.0
33.2736 25.0
33.3573 21.0
33.441 23.0
33.5247 31.0
33.6084 20.0
33.6921 30.0
33.7758 25.0
33.8595 30.0
33.9432 29.0
34.027 14.0
34.1107 27.0
34.1944 23.0
34.2781 27.0
34.3618 23.0
34.4455 32.0
34.5292 18.0
34.6129 30.0
34.6966 15.0
34.7803 27.0
34.864 28.0
34.9477 27.0
35.0314 28.0
35.1151 22.0
35.1988 20.0
35.2825 28.0
35.3662 34.0
35.4499 37.0
35.5337 32.0
35.6174 24.0
35.7011 33.0
35.7848 24.0
35.8685 19.0
35.9522 28.0
36.0359 24.0
36.1196 40.0
36.2033 25.0
36.287 26.0
36.3707 23.0
36.4544 21.0
36.5381 31.0
36.6218 24.0
36.7055 14.0
36.7892 26.0
36.8729 29.0
36.9566 31.0
37.0404 18.0
37.1241 28.0
37.2078 21.0
37.2915 24.0
37.3752 37.0
37.4589 58.0
37.5426 35.0
37.6263 24.0
37.71 30.0
37.7937 38.0
37.8774 20.0
37.9611 33.0
38.0448 30.0
38.1285 24.0
38.2122 24.0
38.2959 29.0
38.3796 48.0
38.4633 32.0
38.5471 35.0
38.6308 40.0
38.7145 35.0
38.7982 44.0
38.8819 47.0
38.9656 52.0
39.0493 57.0
39.133 61.0
39.2167 105.0
39.3004 185.0
39.3841 381.0
39.4678 822.0
39.5515 1489.0
39.6352 1529.0
39.7189 913.0
39.8026 416.0
39.8863 330.0
39.97 464.0
40.0538 1248.0
40.1375 4602.0
40.2212 2250.0
40.3049 557.0
40.3886 119.0
40.4723 81.0
40.556 50.0
40.6397 49.0
40.7234 57.0
40.8071 43.0
40.8908 30.0
40.9745 46.0
41.0582 36.0
41.1419 59.0
41.2256 48.0
41.3093 68.0
41.393 87.0
41.4767 166.0
41.5605 501.0
41.6442 10041.0
41.7279 5461.0
41.8116 311.0
41.8953 85.0
41.979 68.0
42.0627 41.0
42.1464 48.0
42.2301 39.0
42.3138 37.0
42.3975 43.0
42.4812 36.0
42.5649 44.0
42.6486 32.0
42.7323 27.0
42.816 33.0
42.8997 30.0
42.9834 30.0
43.0672 34.0
43.1509 28.0
43.2346 27.0
43.3183 26.0
43.402 21.0
43.4857 28.0
43.5694 26.0
43.6531 35.0
43.7368 37.0
43.8205 34.0
43.9042 31.0
43.9879 30.0
44.0716 36.0
44.1553 42.0
44.239 39.0
44.3227 51.0
44.4064 46.0
44.4901 41.0
44.5739 45.0
44.6576 48.0
44.7413 49.0
44.825 33.0
44.9087 26.0
44.9924 31.0
45.0761 30.0
45.1598 27.0
45.2435 29.0
45.3272 26.0
45.4109 23.0
45.4946 21.0
45.5783 40.0
45.662 31.0
45.7457 20.0
45.8294 27.0
45.9131 20.0
45.9968 24.0
46.0806 36.0
46.1643 29.0
46.248 29.0
46.3317 23.0
46.4154 29.0
46.4991 31.0
46.5828 29.0
46.6665 28.0
46.7502 27.0
46.8339 24.0
46.9176 33.0
47.0013 32.0
47.085 24.0
47.1687 30.0
47.2524 31.0
47.3361 24.0
47.4198 32.0
47.5035 36.0
47.5873 36.0
47.671 32.0
47.7547 38.0
47.8384 29.0
47.9221 18.0
48.0058 29.0
48.0895 29.0
48.1732 27.0
48.2569 31.0
48.3406 30.0
48.4243 27.0
48.508 36.0
48.5917 33.0
48.6754 42.0
48.7591 36.0
48.8428 21.0
48.9265 27.0
49.0102 25.0
49.094 22.0
49.1777 24.0
49.2614 35.0
49.3451 23.0
49.4288 37.0
49.5125 24.0
49.5962 22.0
49.6799 25.0
49.7636 19.0
49.8473 27.0
49.931 30.0
50.0147 31.0
50.0984 26.0
50.1821 22.0
50.2658 26.0
50.3495 30.0
50.4332 33.0
50.5169 20.0
50.6007 31.0
50.6844 33.0
50.7681 31.0
50.8518 21.0
50.9355 28.0
51.0192 38.0
51.1029 29.0
51.1866 35.0
51.2703 33.0
51.354 21.0
51.4377 34.0
51.5214 33.0
51.6051 32.0
51.6888 32.0
51.7725 18.0
51.8562 22.0
51.9399 25.0
52.0236 20.0
52.1074 29.0
52.1911 26.0
52.2748 37.0
52.3585 21.0
52.4422 38.0
52.5259 35.0
52.6096 23.0
52.6933 28.0
52.777 26.0
52.8607 35.0
52.9444 23.0
53.0281 27.0
53.1118 26.0
53.1955 24.0
53.2792 37.0
53.3629 33.0
53.4466 32.0
53.5303 30.0
53.6141 29.0
53.6978 16.0
53.7815 21.0
53.8652 23.0
53.9489 29.0
54.0326 35.0
54.1163 31.0
54.2 27.0
54.2837 28.0
54.3674 23.0
54.4511 28.0
54.5348 32.0
54.6185 38.0
54.7022 26.0
54.7859 26.0
54.8696 24.0
54.9533 22.0
55.037 24.0
55.1208 26.0
55.2045 25.0
55.2882 27.0
55.3719 24.0
55.4556 33.0
55.5393 28.0
55.623 33.0
55.7067 33.0
55.7904 23.0
55.8741 25.0
55.9578 30.0
56.0415 22.0
56.1252 31.0
56.2089 18.0
56.2926 36.0
56.3763 34.0
56.46 25.0
56.5437 23.0
56.6275 27.0
56.7112 29.0
56.7949 31.0
56.8786 29.0
56.9623 29.0
57.046 30.0
57.1297 27.0
57.2134 27.0
57.2971 25.0
57.3808 34.0
57.4645 32.0
57.5482 22.0
57.6319 26.0
57.7156 33.0
57.7993 30.0
57.883 18.0
57.9667 33.0
58.0504 29.0
58.1342 29.0
58.2179 34.0
58.3016 29.0
58.3853 26.0
58.469 38.0
58.5527 26.0
58.6364 29.0
58.7201 23.0
58.8038 27.0
58.8875 38.0
58.9712 31.0
59.0549 16.0
59.1386 28.0
59.2223 28.0
59.306 28.0
59.3897 31.0
59.4734 30.0
59.5571 33.0
59.6409 30.0
59.7246 26.0
59.8083 26.0
59.892 40.0
59.9757 36.0
60.0594 23.0
60.1431 30.0
60.2268 38.0
60.3105 36.0
60.3942 29.0
60.4779 30.0
60.5616 34.0
60.6453 27.0
60.729 35.0
60.8127 32.0
60.8964 31.0
60.9801 38.0
61.0638 33.0
61.1476 24.0
61.2313 20.0
61.315 28.0
61.3987 35.0
61.4824 27.0
61.5661 35.0
61.6498 24.0
61.7335 32.0
61.8172 28.0
61.9009 31.0
61.9846 41.0
62.0683 29.0
62.152 31.0
62.2357 28.0
62.3194 31.0
62.4031 16.0
62.4868 25.0
62.5705 33.0
62.6543 23.0
62.738 32.0
62.8217 31.0
62.9054 34.0
62.9891 37.0
63.0728 36.0
63.1565 37.0
63.2402 33.0
63.3239 36.0
63.4076 19.0
63.4913 19.0
63.575 34.0
63.6587 34.0
63.7424 26.0
63.8261 34.0
63.9098 24.0
63.9935 27.0
64.0772 40.0
64.161 20.0
64.2447 28.0
64.3284 26.0
64.4121 30.0
64.4958 25.0
64.5795 31.0
64.6632 38.0
64.7469 23.0
64.8306 25.0
64.9143 29.0
64.998 23.0
65.0817 23.0
65.1654 29.0
65.2491 24.0
65.3328 29.0
65.4165 29.0
65.5002 33.0
65.5839 45.0
65.6677 24.0
65.7514 34.0
65.8351 30.0
65.9188 23.0
66.0025 33.0
66.0862 23.0
66.1699 40.0
66.2536 36.0
66.3373 29.0
66.421 33.0
66.5047 31.0
66.5884 31.0
66.6721 24.0
66.7558 20.0
66.8395 31.0
66.9232 30.0
67.0069 40.0
67.0906 28.0
67.1744 37.0
67.2581 36.0
67.3418 28.0
67.4255 24.0
67.5092 37.0
67.5929 25.0
67.6766 34.0
67.7603 34.0
67.844 18.0
67.9277 29.0
68.0114 28.0
68.0951 31.0
68.1788 30.0
68.2625 26.0
68.3462 29.0
68.4299 32.0
68.5136 32.0
68.5973 29.0
68.6811 25.0
68.7648 32.0
68.8485 37.0
68.9322 30.0
69.0159 36.0
69.0996 31.0
69.1833 38.0
69.267 20.0
69.3507 21.0
69.4344 34.0
69.5181 30.0
69.6018 31.0
69.6855 23.0
69.7692 29.0
69.8529 22.0
69.9366 32.0
70.0203 43.0
70.104 29.0
70.1878 45.0
70.2715 29.0
70.3552 30.0
70.4389 35.0
70.5226 33.0
70.6063 37.0
70.69 28.0
70.7737 35.0
70.8574 23.0
70.9411 27.0
71.0248 24.0
71.1085 30.0
71.1922 27.0
71.2759 30.0
71.3596 30.0
71.4433 36.0
71.527 19.0
71.6107 41.0
71.6945 32.0
71.7782 36.0
71.8619 24.0
71.9456 31.0
72.0293 30.0
72.113 36.0
72.1967 30.0
72.2804 31.0
72.3641 37.0
72.4478 38.0
72.5315 33.0
72.6152 35.0
72.6989 28.0
72.7826 30.0
72.8663 27.0
72.95 29.0
73.0337 23.0
73.1174 25.0
73.2012 22.0
73.2849 32.0
73.3686 26.0
73.4523 27.0
73.536 23.0
73.6197 28.0
73.7034 24.0
73.7871 32.0
73.8708 28.0
73.9545 32.0
74.0382 39.0
74.1219 32.0
74.2056 24.0
74.2893 29.0
74.373 40.0
74.4567 24.0
74.5404 33.0
74.6241 25.0
74.7079 32.0
74.7916 29.0
74.8753 34.0
74.959 25.0
75.0427 33.0
75.1264 38.0
75.2101 27.0
75.2938 24.0
75.3775 29.0
75.4612 36.0
75.5449 29.0
75.6286 20.0
75.7123 27.0
75.796 36.0
75.8797 28.0
75.9634 35.0
76.0471 33.0
76.1308 20.0
76.2146 33.0
76.2983 30.0
76.382 21.0
76.4657 35.0
76.5494 33.0
76.6331 23.0
76.7168 39.0
76.8005 33.0
76.8842 23.0
76.9679 25.0
77.0516 32.0
77.1353 22.0
77.219 25.0
77.3027 45.0
77.3864 26.0
77.4701 27.0
77.5538 35.0
77.6375 28.0
77.7213 30.0
77.805 36.0
77.8887 29.0
77.9724 38.0
78.0561 25.0
78.1398 31.0
78.2235 29.0
78.3072 36.0
78.3909 36.0
78.4746 29.0
78.5583 26.0
78.642 29.0
78.7257 34.0
78.8094 42.0
78.8931 25.0
78.9768 29.0
79.0605 27.0
79.1442 30.0
79.228 31.0
79.3117 30.0
79.3954 20.0
79.4791 31.0
79.5628 24.0
79.6465 24.0
79.7302 44.0
79.8139 31.0
79.8976 26.0
79.9813 55.0
80.065 47.0
80.1487 40.0
80.2324 31.0
80.3161 30.0
80.3998 21.0
80.4835 30.0
80.5672 32.0
80.6509 22.0
80.7347 27.0
80.8184 33.0
80.9021 31.0
80.9858 27.0
81.0695 17.0
81.1532 38.0
81.2369 36.0
81.3206 27.0
81.4043 32.0
81.488 37.0
81.5717 24.0
81.6554 41.0
81.7391 39.0
81.8228 34.0
81.9065 37.0
81.9902 38.0
82.0739 39.0
82.1576 33.0
82.2414 36.0
82.3251 44.0
82.4088 33.0
82.4925 20.0
82.5762 33.0
82.6599 31.0
82.7436 36.0
82.8273 41.0
82.911 42.0
82.9947 32.0
83.0784 37.0
83.1621 28.0
83.2458 33.0
83.3295 34.0
83.4132 33.0
83.4969 22.0
83.5806 28.0
83.6643 32.0
83.7481 38.0
83.8318 33.0
83.9155 46.0
83.9992 27.0
84.0829 27.0
84.1666 42.0
84.2503 35.0
84.334 38.0
84.4177 34.0
84.5014 42.0
84.5851 54.0
84.6688 67.0
84.7525 83.0
84.8362 81.0
84.9199 118.0
85.0036 138.0
85.0873 163.0
85.171 184.0
85.2548 238.0
85.3385 255.0
85.4222 296.0
85.5059 246.0
85.5896 211.0
85.6733 150.0
85.757 146.0
85.8407 75.0
85.9244 74.0
86.0081 53.0
86.0918 32.0
86.1755 55.0
86.2592 35.0
86.3429 41.0
86.4266 51.0
86.5103 42.0
86.594 49.0
86.6777 53.0
86.7615 82.0
86.8452 55.0
86.9289 47.0
87.0126 47.0
87.0963 48.0
87.18 45.0
87.2637 27.0
87.3474 32.0
87.4311 33.0
87.5148 38.0
87.5985 30.0
87.6822 44.0
87.7659 30.0
87.8496 34.0
87.9333 35.0
88.017 32.0
88.1007 33.0
88.1844 27.0
88.2682 31.0
88.3519 47.0
88.4356 49.0
88.5193 47.0
88.603 43.0
88.6867 43.0
88.7704 45.0
88.8541 51.0
88.9378 40.0
89.0215 37.0
89.1052 42.0
89.1889 36.0
89.2726 50.0
89.3563 53.0
89.44 40.0
89.5237 48.0
89.6074 42.0
89.6911 40.0
89.7749 43.0
89.8586 66.0
89.9423 76.0
90.026 78.0
90.1097 104.0
90.1934 145.0
90.2771 134.0
90.3608 138.0
90.4445 185.0
90.5282 429.0
90.6119 1800.0
90.6956 14841.0
90.7793 1359.0
90.863 631.0
90.9467 5127.0
91.0304 2229.0
91.1141 304.0
91.1978 148.0
91.2816 95.0
91.3653 90.0
91.449 68.0
91.5327 84.0
91.6164 47.0
91.7001 74.0
91.7838 57.0
91.8675 56.0
91.9512 48.0
92.0349 49.0
92.1186 43.0
92.2023 49.0
92.286 37.0
92.3697 48.0
92.4534 49.0
92.5371 37.0
92.6208 26.0
92.7045 23.0
92.7883 42.0
92.872 26.0
92.9557 35.0
93.0394 38.0
93.1231 44.0
93.2068 38.0
93.2905 36.0
93.3742 24.0
93.4579 36.0
93.5416 31.0
93.6253 42.0
93.709 35.0
93.7927 28.0
93.8764 31.0
93.9601 30.0
94.0438 34.0
94.1275 36.0
94.2112 24.0
94.295 23.0
94.3787 25.0
94.4624 32.0
94.5461 44.0
94.6298 27.0
94.7135 40.0
94.7972 41.0
94.8809 35.0
94.9646 24.0
95.0483 32.0
95.132 35.0
95.2157 40.0
95.2994 29.0
95.3831 30.0
95.4668 29.0
95.5505 30.0
95.6342 48.0
95.7179 29.0
95.8017 31.0
95.8854 25.0
95.9691 26.0
96.0528 30.0
96.1365 36.0
96.2202 27.0
96.3039 40.0
96.3876 26.0
96.4713 43.0
96.555 25.0
96.6387 30.0
96.7224 30.0
96.8061 29.0
96.8898 36.0
96.9735 34.0
97.0572 43.0
97.1409 22.0
97.2246 48.0
97.3084 28.0
97.3921 39.0
97.4758 35.0
97.5595 23.0
97.6432 29.0
97.7269 31.0
97.8106 36.0
97.8943 36.0
97.978 34.0
98.0617 33.0
98.1454 31.0
98.2291 29.0
98.3128 26.0
98.3965 31.0
98.4802 24.0
98.5639 40.0
98.6476 29.0
98.7313 31.0
98.8151 39.0
98.8988 20.0
98.9825 28.0
99.0662 36.0
99.1499 39.0
99.2336 39.0
99.3173 33.0
99.401 32.0
99.4847 34.0
99.5684 30.0
99.6521 31.0
99.7358 29.0
99.8195 34.0
99.9032 26.0
99.9869 29.0
100.071 40.0
100.154 27.0
100.238 31.0
100.322 42.0
100.405 33.0
100.489 40.0
100.573 33.0
100.657 33.0
100.74 25.0
100.824 28.0
100.908 25.0
100.991 25.0
101.075 32.0
101.159 23.0
101.243 22.0
101.326 33.0
101.41 31.0
101.494 25.0
101.577 37.0
101.661 40.0
101.745 27.0
101.828 29.0
101.912 24.0
101.996 31.0
102.08 27.0
102.163 28.0
102.247 46.0
102.331 38.0
102.414 23.0
102.498 39.0
102.582 31.0
102.666 33.0
102.749 40.0
102.833 18.0
102.917 30.0
103 29.0
103.084 41.0
103.168 29.0
103.251 33.0
103.335 24.0
103.419 24.0
103.503 33.0
103.586 26.0
103.67 24.0
103.754 50.0
103.837 30.0
103.921 33.0
104.005 29.0
104.089 34.0
104.172 28.0
104.256 30.0
104.34 30.0
104.423 31.0
104.507 40.0
104.591 34.0
104.674 42.0
104.758 34.0
104.842 23.0
104.926 32.0
105.009 31.0
105.093 29.0
105.177 27.0
105.26 27.0
105.344 36.0
105.428 27.0
105.511 29.0
105.595 28.0
105.679 36.0
105.763 33.0
105.846 19.0
105.93 31.0
106.014 35.0
106.097 33.0
106.181 25.0
106.265 33.0
106.349 35.0
106.432 39.0
106.516 29.0
106.6 29.0
106.683 38.0
106.767 27.0
106.851 38.0
106.934 27.0
107.018 36.0
107.102 28.0
107.186 28.0
107.269 36.0
107.353 33.0
107.437 31.0
107.52 29.0
107.604 22.0
107.688 44.0
107.772 34.0
107.855 29.0
107.939 44.0
108.023 31.0
108.106 42.0
108.19 32.0
108.274 25.0
108.357 39.0
108.441 24.0
108.525 28.0
108.609 24.0
108.692 27.0
108.776 31.0
108.86 39.0
108.943 25.0
109.027 33.0
109.111 32.0
109.195 32.0
109.278 32.0
109.362 35.0
109.446 22.0
109.529 37.0
109.613 27.0
109.697 21.0
109.78 31.0
109.864 27.0
109.948 34.0
110.032 37.0
110.115 30.0
110.199 28.0
110.283 25.0
110.366 22.0
110.45 40.0
110.534 29.0
110.618 34.0
110.701 30.0
110.785 32.0
110.869 28.0
110.952 49.0
111.036 34.0
111.12 26.0
111.203 25.0
111.287 26.0
111.371 30.0
111.455 32.0
111.538 39.0
111.622 40.0
111.706 33.0
111.789 33.0
111.873 41.0
111.957 24.0
112.041 42.0
112.124 25.0
112.208 27.0
112.292 24.0
112.375 36.0
112.459 33.0
112.543 37.0
112.626 26.0
112.71 34.0
112.794 33.0
112.878 24.0
112.961 28.0
113.045 32.0
113.129 30.0
113.212 28.0
113.296 34.0
113.38 44.0
113.464 20.0
113.547 30.0
113.631 30.0
113.715 36.0
113.798 34.0
113.882 32.0
113.966 30.0
114.049 37.0
114.133 38.0
114.217 27.0
114.301 29.0
114.384 34.0
114.468 29.0
114.552 25.0
114.635 31.0
114.719 30.0
114.803 23.0
114.887 26.0
114.97 39.0
115.054 28.0
115.138 33.0
115.221 28.0
115.305 32.0
115.389 32.0
115.472 42.0
115.556 31.0
115.64 32.0
115.724 37.0
115.807 35.0
115.891 43.0
115.975 33.0
116.058 28.0
116.142 35.0
116.226 27.0
116.31 39.0
116.393 34.0
116.477 42.0
116.561 24.0
116.644 41.0
116.728 35.0
116.812 26.0
116.895 34.0
116.979 29.0
117.063 37.0
117.147 28.0
117.23 23.0
117.314 27.0
117.398 35.0
117.481 24.0
117.565 32.0
117.649 27.0
117.733 35.0
117.816 32.0
117.9 29.0
117.984 23.0
118.067 23.0
118.151 27.0
118.235 38.0
118.318 31.0
118.402 32.0
118.486 40.0
118.57 33.0
118.653 32.0
118.737 33.0
118.821 30.0
118.904 44.0
118.988 42.0
119.072 34.0
119.156 24.0
119.239 29.0
119.323 29.0
119.407 28.0
119.49 26.0
119.574 38.0
119.658 33.0
119.741 35.0
119.825 22.0
119.909 33.0
119.993 36.0
120.076 28.0
120.16 34.0
120.244 42.0
120.327 33.0
120.411 41.0
120.495 19.0
120.578 35.0
120.662 35.0
120.746 36.0
120.83 23.0
120.913 37.0
120.997 26.0
121.081 39.0
121.164 28.0
121.248 32.0
121.332 26.0
121.416 34.0
121.499 32.0
121.583 42.0
121.667 40.0
121.75 37.0
121.834 46.0
121.918 25.0
122.001 25.0
122.085 38.0
122.169 33.0
122.253 34.0
122.336 25.0
122.42 25.0
122.504 27.0
122.587 22.0
122.671 26.0
122.755 21.0
122.839 30.0
122.922 32.0
123.006 23.0
123.09 22.0
123.173 33.0
123.257 30.0
123.341 24.0
123.424 31.0
123.508 32.0
123.592 33.0
123.676 38.0
123.759 33.0
123.843 34.0
123.927 25.0
124.01 25.0
124.094 37.0
124.178 36.0
124.262 34.0
124.345 31.0
124.429 31.0
124.513 28.0
124.596 34.0
124.68 26.0
124.764 35.0
124.847 27.0
124.931 35.0
125.015 26.0
125.099 35.0
125.182 40.0
125.266 33.0
125.35 32.0
125.433 31.0
125.517 25.0
125.601 40.0
125.685 30.0
125.768 32.0
125.852 27.0
125.936 41.0
126.019 41.0
126.103 29.0
126.187 30.0
126.27 30.0
126.354 37.0
126.438 37.0
126.522 41.0
126.605 38.0
126.689 26.0
126.773 37.0
126.856 35.0
126.94 38.0
127.024 32.0
127.108 33.0
127.191 35.0
127.275 25.0
127.359 35.0
127.442 38.0
127.526 33.0
127.61 30.0
127.693 28.0
127.777 35.0
127.861 38.0
127.945 24.0
128.028 35.0
128.112 21.0
128.196 39.0
128.279 29.0
128.363 27.0
128.447 21.0
128.531 31.0
128.614 26.0
128.698 24.0
128.782 32.0
128.865 18.0
128.949 37.0
129.033 40.0
129.116 33.0
129.2 32.0
129.284 28.0
129.368 32.0
129.451 32.0
129.535 30.0
129.619 37.0
129.702 36.0
129.786 38.0
129.87 31.0
129.954 29.0
129.998 30.0