File: data/W6910c/XRD_Omega/w6910c_c-Cr2O3_scan_omega_4deg_step_0.005deg0_1.xy
17.80490 68.0
17.80990 62.0
17.81490 67.0
17.81990 62.0
17.82490 64.0
17.82990 75.0
17.83490 67.0
17.83990 66.0
17.84490 47.0
17.84990 70.0
17.85490 69.0
17.85990 78.0
17.86490 70.0
17.86990 64.0
17.87490 74.0
17.87990 73.0
17.88490 67.0
17.88990 73.0
17.89490 80.0
17.89990 55.0
17.90490 64.0
17.90990 69.0
17.91490 64.0
17.91990 66.0
17.92490 68.0
17.92990 53.0
17.93490 80.0
17.93990 61.0
17.94490 63.0
17.94990 63.0
17.95490 74.0
17.95990 79.0
17.96490 76.0
17.96990 70.0
17.97490 70.0
17.97990 71.0
17.98490 60.0
17.98990 51.0
17.99490 63.0
17.99990 71.0
18.00490 68.0
18.00990 72.0
18.01490 70.0
18.01990 89.0
18.02490 62.0
18.02990 80.0
18.03490 78.0
18.03990 66.0
18.04490 78.0
18.04990 62.0
18.05490 68.0
18.05990 64.0
18.06490 71.0
18.06990 59.0
18.07490 77.0
18.07990 78.0
18.08490 71.0
18.08990 73.0
18.09490 66.0
18.09990 83.0
18.10490 70.0
18.10990 76.0
18.11490 65.0
18.11990 81.0
18.12490 87.0
18.12990 80.0
18.13490 82.0
18.13990 73.0
18.14490 88.0
18.14990 61.0
18.15490 67.0
18.15990 74.0
18.16490 78.0
18.16990 66.0
18.17490 59.0
18.17990 72.0
18.18490 66.0
18.18990 70.0
18.19490 67.0
18.19990 89.0
18.20490 70.0
18.20990 84.0
18.21490 80.0
18.21990 59.0
18.22490 62.0
18.22990 81.0
18.23490 65.0
18.23990 66.0
18.24490 90.0
18.24990 65.0
18.25490 64.0
18.25990 80.0
18.26490 81.0
18.26990 69.0
18.27490 80.0
18.27990 89.0
18.28490 81.0
18.28990 78.0
18.29490 82.0
18.29990 83.0
18.30490 71.0
18.30990 83.0
18.31490 89.0
18.31990 70.0
18.32490 76.0
18.32990 84.0
18.33490 57.0
18.33990 62.0
18.34490 71.0
18.34990 70.0
18.35490 68.0
18.35990 86.0
18.36490 85.0
18.36990 67.0
18.37490 65.0
18.37990 87.0
18.38490 78.0
18.38990 64.0
18.39490 95.0
18.39990 68.0
18.40490 81.0
18.40990 92.0
18.41490 85.0
18.41990 70.0
18.42490 79.0
18.42990 82.0
18.43490 81.0
18.43990 87.0
18.44490 75.0
18.44990 67.0
18.45490 80.0
18.45990 62.0
18.46490 73.0
18.46990 83.0
18.47490 106.0
18.47990 73.0
18.48490 88.0
18.48990 85.0
18.49490 71.0
18.49990 97.0
18.50490 90.0
18.50990 84.0
18.51490 71.0
18.51990 88.0
18.52490 81.0
18.52990 76.0
18.53490 92.0
18.53990 81.0
18.54490 105.0
18.54990 88.0
18.55490 102.0
18.55990 92.0
18.56490 73.0
18.56990 85.0
18.57490 90.0
18.57990 85.0
18.58490 87.0
18.58990 104.0
18.59490 96.0
18.59990 85.0
18.60490 105.0
18.60990 96.0
18.61490 97.0
18.61990 97.0
18.62490 86.0
18.62990 103.0
18.63490 79.0
18.63990 94.0
18.64490 107.0
18.64990 112.0
18.65490 77.0
18.65990 103.0
18.66490 98.0
18.66990 83.0
18.67490 96.0
18.67990 99.0
18.68490 110.0
18.68990 101.0
18.69490 120.0
18.69990 100.0
18.70490 110.0
18.70990 97.0
18.71490 116.0
18.71990 101.0
18.72490 99.0
18.72990 129.0
18.73490 103.0
18.73990 124.0
18.74490 109.0
18.74990 118.0
18.75490 126.0
18.75990 128.0
18.76490 127.0
18.76990 131.0
18.77490 108.0
18.77990 141.0
18.78490 132.0
18.78990 123.0
18.79490 114.0
18.79990 143.0
18.80490 130.0
18.80990 131.0
18.81490 137.0
18.81990 155.0
18.82490 129.0
18.82990 131.0
18.83490 142.0
18.83990 149.0
18.84490 131.0
18.84990 165.0
18.85490 137.0
18.85990 177.0
18.86490 173.0
18.86990 147.0
18.87490 164.0
18.87990 162.0
18.88490 138.0
18.88990 152.0
18.89490 181.0
18.89990 170.0
18.90490 179.0
18.90990 185.0
18.91490 144.0
18.91990 176.0
18.92490 201.0
18.92990 213.0
18.93490 183.0
18.93990 203.0
18.94490 217.0
18.94990 175.0
18.95490 223.0
18.95990 212.0
18.96490 220.0
18.96990 200.0
18.97490 225.0
18.97990 236.0
18.98490 250.0
18.98990 246.0
18.99490 223.0
18.99990 214.0
19.00490 266.0
19.00990 247.0
19.01490 254.0
19.01990 260.0
19.02490 299.0
19.02990 272.0
19.03490 263.0
19.03990 282.0
19.04490 311.0
19.04990 301.0
19.05490 303.0
19.05990 338.0
19.06490 309.0
19.06990 338.0
19.07490 324.0
19.07990 336.0
19.08490 323.0
19.08990 317.0
19.09490 353.0
19.09990 367.0
19.10490 344.0
19.10990 420.0
19.11490 411.0
19.11990 412.0
19.12490 387.0
19.12990 433.0
19.13490 418.0
19.13990 402.0
19.14490 416.0
19.14990 487.0
19.15490 460.0
19.15990 475.0
19.16490 498.0
19.16990 482.0
19.17490 491.0
19.17990 476.0
19.18490 526.0
19.18990 591.0
19.19490 526.0
19.19990 580.0
19.20490 584.0
19.20990 578.0
19.21490 619.0
19.21990 616.0
19.22490 676.0
19.22990 643.0
19.23490 676.0
19.23990 659.0
19.24490 718.0
19.24990 725.0
19.25490 757.0
19.25990 793.0
19.26490 743.0
19.26990 839.0
19.27490 801.0
19.27990 864.0
19.28490 851.0
19.28990 834.0
19.29490 858.0
19.29990 906.0
19.30490 949.0
19.30990 963.0
19.31490 956.0
19.31990 998.0
19.32490 1111.0
19.32990 1088.0
19.33490 1096.0
19.33990 1109.0
19.34490 1108.0
19.34990 1198.0
19.35490 1176.0
19.35990 1251.0
19.36490 1270.0
19.36990 1342.0
19.37490 1293.0
19.37990 1354.0
19.38490 1413.0
19.38990 1435.0
19.39490 1435.0
19.39990 1518.0
19.40490 1493.0
19.40990 1521.0
19.41490 1591.0
19.41990 1597.0
19.42490 1693.0
19.42990 1690.0
19.43490 1748.0
19.43990 1720.0
19.44490 1830.0
19.44990 1887.0
19.45490 1860.0
19.45990 2070.0
19.46490 2012.0
19.46990 2039.0
19.47490 2104.0
19.47990 2148.0
19.48490 2289.0
19.48990 2314.0
19.49490 2291.0
19.49990 2356.0
19.50490 2434.0
19.50990 2447.0
19.51490 2516.0
19.51990 2546.0
19.52490 2605.0
19.52990 2673.0
19.53490 2758.0
19.53990 2789.0
19.54490 2916.0
19.54990 2943.0
19.55490 3031.0
19.55990 3108.0
19.56490 3004.0
19.56990 3123.0
19.57490 3154.0
19.57990 3270.0
19.58490 3396.0
19.58990 3391.0
19.59490 3325.0
19.59990 3400.0
19.60490 3606.0
19.60990 3610.0
19.61490 3629.0
19.61990 3802.0
19.62490 3778.0
19.62990 3832.0
19.63490 3896.0
19.63990 3882.0
19.64490 4073.0
19.64990 3987.0
19.65490 4168.0
19.65990 4234.0
19.66490 4308.0
19.66990 4198.0
19.67490 4447.0
19.67990 4435.0
19.68490 4485.0
19.68990 4489.0
19.69490 4614.0
19.69990 4712.0
19.70490 4563.0
19.70990 4723.0
19.71490 4893.0
19.71990 4745.0
19.72490 4885.0
19.72990 4944.0
19.73490 4818.0
19.73990 4907.0
19.74490 4960.0
19.74990 4937.0
19.75490 4838.0
19.75990 4886.0
19.76490 5036.0
19.76990 4980.0
19.77490 4939.0
19.77990 4984.0
19.78490 4997.0
19.78990 5016.0
19.79490 5063.0
19.79990 5164.0
19.80490 5025.0
19.80990 5051.0
19.81490 4845.0
19.81990 4979.0
19.82490 4794.0
19.82990 4835.0
19.83490 4830.0
19.83990 4821.0
19.84490 4699.0
19.84990 4606.0
19.85490 4614.0
19.85990 4565.0
19.86490 4465.0
19.86990 4567.0
19.87490 4495.0
19.87990 4345.0
19.88490 4349.0
19.88990 4352.0
19.89490 4226.0
19.89990 4113.0
19.90490 4261.0
19.90990 4158.0
19.91490 4071.0
19.91990 3939.0
19.92490 3950.0
19.92990 3988.0
19.93490 3774.0
19.93990 3783.0
19.94490 3777.0
19.94990 3593.0
19.95490 3504.0
19.95990 3437.0
19.96490 3436.0
19.96990 3418.0
19.97490 3353.0
19.97990 3357.0
19.98490 3237.0
19.98990 3203.0
19.99490 3074.0
19.99990 3011.0
20.00490 3035.0
20.00990 2886.0
20.01490 2922.0
20.01990 2798.0
20.02490 2676.0
20.02990 2674.0
20.03490 2617.0
20.03990 2608.0
20.04490 2526.0
20.04990 2333.0
20.05490 2410.0
20.05990 2220.0
20.06490 2291.0
20.06990 2245.0
20.07490 2145.0
20.07990 2146.0
20.08490 2108.0
20.08990 1977.0
20.09490 1943.0
20.09990 1872.0
20.10490 1846.0
20.10990 1784.0
20.11490 1749.0
20.11990 1756.0
20.12490 1692.0
20.12990 1691.0
20.13490 1555.0
20.13990 1551.0
20.14490 1531.0
20.14990 1564.0
20.15490 1473.0
20.15990 1419.0
20.16490 1373.0
20.16990 1459.0
20.17490 1338.0
20.17990 1289.0
20.18490 1248.0
20.18990 1277.0
20.19490 1247.0
20.19990 1248.0
20.20490 1129.0
20.20990 1150.0
20.21490 1177.0
20.21990 1067.0
20.22490 1070.0
20.22990 970.0
20.23490 934.0
20.23990 974.0
20.24490 941.0
20.24990 872.0
20.25490 857.0
20.25990 841.0
20.26490 835.0
20.26990 840.0
20.27490 785.0
20.27990 764.0
20.28490 788.0
20.28990 723.0
20.29490 692.0
20.29990 682.0
20.30490 694.0
20.30990 655.0
20.31490 578.0
20.31990 615.0
20.32490 629.0
20.32990 617.0
20.33490 582.0
20.33990 565.0
20.34490 557.0
20.34990 522.0
20.35490 590.0
20.35990 535.0
20.36490 508.0
20.36990 528.0
20.37490 483.0
20.37990 501.0
20.38490 472.0
20.38990 467.0
20.39490 424.0
20.39990 403.0
20.40490 429.0
20.40990 401.0
20.41490 379.0
20.41990 424.0
20.42490 385.0
20.42990 389.0
20.43490 351.0
20.43990 311.0
20.44490 345.0
20.44990 354.0
20.45490 359.0
20.45990 320.0
20.46490 335.0
20.46990 315.0
20.47490 296.0
20.47990 319.0
20.48490 296.0
20.48990 292.0
20.49490 289.0
20.49990 255.0
20.50490 271.0
20.50990 277.0
20.51490 276.0
20.51990 266.0
20.52490 255.0
20.52990 283.0
20.53490 251.0
20.53990 226.0
20.54490 245.0
20.54990 237.0
20.55490 236.0
20.55990 209.0
20.56490 180.0
20.56990 213.0
20.57490 201.0
20.57990 186.0
20.58490 197.0
20.58990 210.0
20.59490 199.0
20.59990 189.0
20.60490 178.0
20.60990 224.0
20.61490 192.0
20.61990 169.0
20.62490 187.0
20.62990 194.0
20.63490 189.0
20.63990 177.0
20.64490 178.0
20.64990 165.0
20.65490 127.0
20.65990 137.0
20.66490 169.0
20.66990 134.0
20.67490 140.0
20.67990 159.0
20.68490 150.0
20.68990 153.0
20.69490 150.0
20.69990 141.0
20.70490 153.0
20.70990 129.0
20.71490 138.0
20.71990 145.0
20.72490 118.0
20.72990 124.0
20.73490 102.0
20.73990 136.0
20.74490 134.0
20.74990 124.0
20.75490 96.0
20.75990 104.0
20.76490 119.0
20.76990 119.0
20.77490 96.0
20.77990 113.0
20.78490 99.0
20.78990 105.0
20.79490 112.0
20.79990 110.0
20.80490 130.0
20.80990 112.0
20.81490 116.0
20.81990 112.0
20.82490 110.0
20.82990 113.0
20.83490 100.0
20.83990 121.0
20.84490 98.0
20.84990 96.0
20.85490 99.0
20.85990 97.0
20.86490 112.0
20.86990 111.0
20.87490 107.0
20.87990 98.0
20.88490 84.0
20.88990 97.0
20.89490 87.0
20.89990 90.0
20.90490 108.0
20.90990 86.0
20.91490 101.0
20.91990 93.0
20.92490 100.0
20.92990 71.0
20.93490 70.0
20.93990 80.0
20.94490 91.0
20.94990 90.0
20.95490 93.0
20.95990 97.0
20.96490 86.0
20.96990 76.0
20.97490 102.0
20.97990 86.0
20.98490 80.0
20.98990 80.0
20.99490 99.0
20.99990 78.0
21.00490 93.0
21.00990 94.0
21.01490 85.0
21.01990 77.0
21.02490 72.0
21.02990 90.0
21.03490 82.0
21.03990 95.0
21.04490 67.0
21.04990 84.0
21.05490 69.0
21.05990 79.0
21.06490 73.0
21.06990 58.0
21.07490 86.0
21.07990 54.0
21.08490 78.0
21.08990 90.0
21.09490 72.0
21.09990 87.0
21.10490 68.0
21.10990 77.0
21.11490 88.0
21.11990 76.0
21.12490 76.0
21.12990 71.0
21.13490 74.0
21.13990 85.0
21.14490 59.0
21.14990 74.0
21.15490 62.0
21.15990 78.0
21.16490 62.0
21.16990 56.0
21.17490 69.0
21.17990 64.0
21.18490 66.0
21.18990 58.0
21.19490 61.0
21.19990 63.0
21.20490 80.0
21.20990 65.0
21.21490 69.0
21.21990 72.0
21.22490 65.0
21.22990 78.0
21.23490 57.0
21.23990 68.0
21.24490 62.0
21.24990 66.0
21.25490 79.0
21.25990 64.0
21.26490 79.0
21.26990 61.0
21.27490 74.0
21.27990 84.0
21.28490 68.0
21.28990 67.0
21.29490 73.0
21.29990 72.0
21.30490 61.0
21.30990 53.0
21.31490 61.0
21.31990 71.0
21.32490 67.0
21.32990 78.0
21.33490 82.0
21.33990 67.0
21.34490 71.0
21.34990 65.0
21.35490 72.0
21.35990 57.0
21.36490 65.0
21.36990 70.0
21.37490 75.0
21.37990 66.0
21.38490 52.0
21.38990 82.0
21.39490 45.0
21.39990 64.0
21.40490 69.0
21.40990 67.0
21.41490 61.0
21.41990 61.0
21.42490 57.0
21.42990 59.0
21.43490 59.0
21.43990 63.0
21.44490 59.0
21.44990 62.0
21.45490 57.0
21.45990 63.0
21.46490 47.0
21.46990 46.0
21.47490 53.0
21.47990 59.0
21.48490 53.0
21.48990 67.0
21.49490 71.0
21.49990 66.0
21.50490 59.0
21.50990 65.0
21.51490 60.0
21.51990 49.0
21.52490 51.0
21.52990 62.0
21.53490 53.0
21.53990 57.0
21.54490 58.0
21.54990 61.0
21.55490 57.0
21.55990 52.0
21.56490 64.0
21.56990 60.0
21.57490 66.0
21.57990 51.0
21.58490 59.0
21.58990 68.0
21.59490 67.0
21.59990 70.0
21.60490 53.0
21.60990 53.0
21.61490 63.0
21.61990 63.0
21.62490 68.0
21.62990 48.0
21.63490 61.0
21.63990 73.0
21.64490 63.0
21.64990 65.0
21.65490 55.0
21.65990 72.0
21.66490 52.0
21.66990 62.0
21.67490 72.0
21.67990 65.0
21.68490 66.0
21.68990 61.0
21.69490 65.0
21.69990 65.0
21.70490 48.0
21.70990 49.0
21.71490 52.0
21.71990 49.0
21.72490 67.0
21.72990 71.0
21.73490 51.0
21.73990 58.0
21.74490 49.0
21.74990 71.0
21.75490 72.0
21.75990 58.0
21.76490 67.0