File: data/W6933a/XRD_Omega/film_a_scan_omega_4deg_step_0.005deg0.xy
16.27940 87.0
16.28440 87.0
16.28940 87.0
16.29440 87.0
16.29940 79.0
16.30440 89.0
16.30940 86.0
16.31440 82.0
16.31940 73.0
16.32440 81.0
16.32940 79.0
16.33440 82.0
16.33940 71.0
16.34440 87.0
16.34940 76.0
16.35440 86.0
16.35940 80.0
16.36440 78.0
16.36940 86.0
16.37440 64.0
16.37940 75.0
16.38440 90.0
16.38940 79.0
16.39440 74.0
16.39940 74.0
16.40440 74.0
16.40940 74.0
16.41440 79.0
16.41940 73.0
16.42440 73.0
16.42940 76.0
16.43440 91.0
16.43940 104.0
16.44440 66.0
16.44940 101.0
16.45440 86.0
16.45940 71.0
16.46440 83.0
16.46940 83.0
16.47440 84.0
16.47940 88.0
16.48440 92.0
16.48940 85.0
16.49440 88.0
16.49940 95.0
16.50440 86.0
16.50940 88.0
16.51440 84.0
16.51940 89.0
16.52440 96.0
16.52940 88.0
16.53440 92.0
16.53940 83.0
16.54440 104.0
16.54940 83.0
16.55440 103.0
16.55940 102.0
16.56440 103.0
16.56940 78.0
16.57440 100.0
16.57940 97.0
16.58440 93.0
16.58940 109.0
16.59440 85.0
16.59940 107.0
16.60440 83.0
16.60940 99.0
16.61440 96.0
16.61940 103.0
16.62440 89.0
16.62940 95.0
16.63440 101.0
16.63940 99.0
16.64440 111.0
16.64940 109.0
16.65440 100.0
16.65940 109.0
16.66440 101.0
16.66940 105.0
16.67440 99.0
16.67940 106.0
16.68440 114.0
16.68940 119.0
16.69440 94.0
16.69940 107.0
16.70440 94.0
16.70940 107.0
16.71440 125.0
16.71940 105.0
16.72440 133.0
16.72940 124.0
16.73440 115.0
16.73940 112.0
16.74440 92.0
16.74940 101.0
16.75440 107.0
16.75940 107.0
16.76440 126.0
16.76940 116.0
16.77440 123.0
16.77940 118.0
16.78440 106.0
16.78940 132.0
16.79440 120.0
16.79940 120.0
16.80440 128.0
16.80940 142.0
16.81440 115.0
16.81940 130.0
16.82440 136.0
16.82940 117.0
16.83440 140.0
16.83940 114.0
16.84440 139.0
16.84940 148.0
16.85440 142.0
16.85940 135.0
16.86440 121.0
16.86940 128.0
16.87440 127.0
16.87940 141.0
16.88440 146.0
16.88940 120.0
16.89440 145.0
16.89940 145.0
16.90440 135.0
16.90940 144.0
16.91440 134.0
16.91940 132.0
16.92440 132.0
16.92940 156.0
16.93440 120.0
16.93940 149.0
16.94440 149.0
16.94940 173.0
16.95440 145.0
16.95940 199.0
16.96440 152.0
16.96940 149.0
16.97440 152.0
16.97940 142.0
16.98440 167.0
16.98940 158.0
16.99440 152.0
16.99940 153.0
17.00440 177.0
17.00940 167.0
17.01440 198.0
17.01940 168.0
17.02440 175.0
17.02940 178.0
17.03440 172.0
17.03940 165.0
17.04440 184.0
17.04940 192.0
17.05440 219.0
17.05940 202.0
17.06440 151.0
17.06940 223.0
17.07440 175.0
17.07940 194.0
17.08440 187.0
17.08940 200.0
17.09440 215.0
17.09940 204.0
17.10440 228.0
17.10940 198.0
17.11440 210.0
17.11940 194.0
17.12440 228.0
17.12940 232.0
17.13440 222.0
17.13940 235.0
17.14440 230.0
17.14940 239.0
17.15440 234.0
17.15940 239.0
17.16440 217.0
17.16940 237.0
17.17440 236.0
17.17940 256.0
17.18440 244.0
17.18940 237.0
17.19440 283.0
17.19940 252.0
17.20440 242.0
17.20940 275.0
17.21440 268.0
17.21940 253.0
17.22440 244.0
17.22940 267.0
17.23440 305.0
17.23940 283.0
17.24440 307.0
17.24940 292.0
17.25440 298.0
17.25940 304.0
17.26440 303.0
17.26940 309.0
17.27440 306.0
17.27940 322.0
17.28440 295.0
17.28940 294.0
17.29440 336.0
17.29940 328.0
17.30440 383.0
17.30940 350.0
17.31440 323.0
17.31940 358.0
17.32440 358.0
17.32940 344.0
17.33440 352.0
17.33940 367.0
17.34440 387.0
17.34940 386.0
17.35440 416.0
17.35940 386.0
17.36440 407.0
17.36940 404.0
17.37440 376.0
17.37940 413.0
17.38440 436.0
17.38940 448.0
17.39440 417.0
17.39940 500.0
17.40440 489.0
17.40940 455.0
17.41440 476.0
17.41940 444.0
17.42440 472.0
17.42940 507.0
17.43440 502.0
17.43940 516.0
17.44440 560.0
17.44940 510.0
17.45440 549.0
17.45940 535.0
17.46440 581.0
17.46940 539.0
17.47440 585.0
17.47940 559.0
17.48440 610.0
17.48940 570.0
17.49440 606.0
17.49940 645.0
17.50440 598.0
17.50940 610.0
17.51440 675.0
17.51940 699.0
17.52440 662.0
17.52940 717.0
17.53440 698.0
17.53940 721.0
17.54440 767.0
17.54940 686.0
17.55440 764.0
17.55940 752.0
17.56440 784.0
17.56940 745.0
17.57440 824.0
17.57940 896.0
17.58440 835.0
17.58940 868.0
17.59440 871.0
17.59940 915.0
17.60440 911.0
17.60940 940.0
17.61440 929.0
17.61940 938.0
17.62440 1037.0
17.62940 946.0
17.63440 1095.0
17.63940 1061.0
17.64440 1061.0
17.64940 1068.0
17.65440 1044.0
17.65940 1114.0
17.66440 1169.0
17.66940 1213.0
17.67440 1126.0
17.67940 1266.0
17.68440 1218.0
17.68940 1236.0
17.69440 1328.0
17.69940 1278.0
17.70440 1326.0
17.70940 1367.0
17.71440 1437.0
17.71940 1448.0
17.72440 1459.0
17.72940 1476.0
17.73440 1556.0
17.73940 1557.0
17.74440 1599.0
17.74940 1682.0
17.75440 1643.0
17.75940 1696.0
17.76440 1767.0
17.76940 1790.0
17.77440 1821.0
17.77940 1847.0
17.78440 1929.0
17.78940 1965.0
17.79440 1990.0
17.79940 2044.0
17.80440 2089.0
17.80940 2072.0
17.81440 2216.0
17.81940 2279.0
17.82440 2275.0
17.82940 2319.0
17.83440 2331.0
17.83940 2386.0
17.84440 2381.0
17.84940 2592.0
17.85440 2533.0
17.85940 2512.0
17.86440 2581.0
17.86940 2655.0
17.87440 2678.0
17.87940 2938.0
17.88440 2877.0
17.88940 2971.0
17.89440 3114.0
17.89940 3062.0
17.90440 3169.0
17.90940 3163.0
17.91440 3172.0
17.91940 3476.0
17.92440 3446.0
17.92940 3563.0
17.93440 3593.0
17.93940 3640.0
17.94440 3597.0
17.94940 3742.0
17.95440 3886.0
17.95940 4021.0
17.96440 4030.0
17.96940 4214.0
17.97440 4231.0
17.97940 4409.0
17.98440 4440.0
17.98940 4649.0
17.99440 4621.0
17.99940 4768.0
18.00440 4844.0
18.00940 4974.0
18.01440 5108.0
18.01940 5038.0
18.02440 5437.0
18.02940 5438.0
18.03440 5529.0
18.03940 5697.0
18.04440 5785.0
18.04940 5936.0
18.05440 6036.0
18.05940 6093.0
18.06440 6192.0
18.06940 6355.0
18.07440 6496.0
18.07940 6642.0
18.08440 6755.0
18.08940 6959.0
18.09440 7123.0
18.09940 7161.0
18.10440 7428.0
18.10940 7537.0
18.11440 7650.0
18.11940 8049.0
18.12440 8128.0
18.12940 8282.0
18.13440 8452.0
18.13940 8775.0
18.14440 8963.0
18.14940 9011.0
18.15440 9306.0
18.15940 9711.0
18.16440 9856.0
18.16940 9755.0
18.17440 10028.0
18.17940 10393.0
18.18440 10330.0
18.18940 10804.0
18.19440 10794.0
18.19940 11306.0
18.20440 11572.0
18.20940 11975.0
18.21440 12258.0
18.21940 12859.0
18.22440 13231.0
18.22940 13516.0
18.23440 13924.0
18.23940 14556.0
18.24440 14856.0
18.24940 14993.0
18.25440 14795.0
18.25940 14610.0
18.26440 14253.0
18.26940 14056.0
18.27440 13908.0
18.27940 13768.0
18.28440 13624.0
18.28940 13850.0
18.29440 13444.0
18.29940 13339.0
18.30440 13100.0
18.30940 12839.0
18.31440 12280.0
18.31940 11963.0
18.32440 11530.0
18.32940 11339.0
18.33440 11564.0
18.33940 11000.0
18.34440 10556.0
18.34940 10533.0
18.35440 10521.0
18.35940 10083.0
18.36440 10230.0
18.36940 9815.0
18.37440 9570.0
18.37940 9275.0
18.38440 9346.0
18.38940 9009.0
18.39440 8719.0
18.39940 8628.0
18.40440 8552.0
18.40940 8301.0
18.41440 8170.0
18.41940 7998.0
18.42440 7695.0
18.42940 7569.0
18.43440 7484.0
18.43940 7228.0
18.44440 7083.0
18.44940 7063.0
18.45440 6991.0
18.45940 6784.0
18.46440 6647.0
18.46940 6618.0
18.47440 6375.0
18.47940 6246.0
18.48440 6054.0
18.48940 5984.0
18.49440 5823.0
18.49940 5881.0
18.50440 5779.0
18.50940 5556.0
18.51440 5389.0
18.51940 5249.0
18.52440 5248.0
18.52940 4996.0
18.53440 4989.0
18.53940 4854.0
18.54440 4761.0
18.54940 4641.0
18.55440 4409.0
18.55940 4440.0
18.56440 4342.0
18.56940 4254.0
18.57440 4121.0
18.57940 4080.0
18.58440 3986.0
18.58940 3889.0
18.59440 3735.0
18.59940 3689.0
18.60440 3787.0
18.60940 3547.0
18.61440 3454.0
18.61940 3548.0
18.62440 3390.0
18.62940 3271.0
18.63440 3177.0
18.63940 3131.0
18.64440 3004.0
18.64940 3040.0
18.65440 2903.0
18.65940 2914.0
18.66440 2805.0
18.66940 2837.0
18.67440 2690.0
18.67940 2604.0
18.68440 2614.0
18.68940 2465.0
18.69440 2362.0
18.69940 2361.0
18.70440 2361.0
18.70940 2247.0
18.71440 2204.0
18.71940 2207.0
18.72440 2132.0
18.72940 2087.0
18.73440 2057.0
18.73940 2000.0
18.74440 1932.0
18.74940 1803.0
18.75440 1924.0
18.75940 1860.0
18.76440 1771.0
18.76940 1778.0
18.77440 1743.0
18.77940 1710.0
18.78440 1596.0
18.78940 1596.0
18.79440 1621.0
18.79940 1579.0
18.80440 1458.0
18.80940 1456.0
18.81440 1484.0
18.81940 1386.0
18.82440 1428.0
18.82940 1392.0
18.83440 1317.0
18.83940 1308.0
18.84440 1309.0
18.84940 1254.0
18.85440 1285.0
18.85940 1285.0
18.86440 1134.0
18.86940 1086.0
18.87440 1132.0
18.87940 1196.0
18.88440 1061.0
18.88940 1061.0
18.89440 1055.0
18.89940 1086.0
18.90440 1000.0
18.90940 1037.0
18.91440 1008.0
18.91940 947.0
18.92440 927.0
18.92940 859.0
18.93440 864.0
18.93940 883.0
18.94440 919.0
18.94940 880.0
18.95440 936.0
18.95940 736.0
18.96440 777.0
18.96940 844.0
18.97440 768.0
18.97940 776.0
18.98440 788.0
18.98940 721.0
18.99440 702.0
18.99940 733.0
19.00440 732.0
19.00940 705.0
19.01440 684.0
19.01940 639.0
19.02440 688.0
19.02940 624.0
19.03440 668.0
19.03940 591.0
19.04440 573.0
19.04940 573.0
19.05440 592.0
19.05940 578.0
19.06440 527.0
19.06940 530.0
19.07440 527.0
19.07940 533.0
19.08440 521.0
19.08940 544.0
19.09440 541.0
19.09940 431.0
19.10440 450.0
19.10940 449.0
19.11440 478.0
19.11940 477.0
19.12440 495.0
19.12940 436.0
19.13440 477.0
19.13940 446.0
19.14440 477.0
19.14940 405.0
19.15440 388.0
19.15940 420.0
19.16440 382.0
19.16940 373.0
19.17440 388.0
19.17940 394.0
19.18440 346.0
19.18940 377.0
19.19440 359.0
19.19940 352.0
19.20440 347.0
19.20940 349.0
19.21440 355.0
19.21940 333.0
19.22440 335.0
19.22940 322.0
19.23440 312.0
19.23940 297.0
19.24440 318.0
19.24940 314.0
19.25440 307.0
19.25940 266.0
19.26440 258.0
19.26940 286.0
19.27440 283.0
19.27940 266.0
19.28440 282.0
19.28940 296.0
19.29440 265.0
19.29940 254.0
19.30440 259.0
19.30940 266.0
19.31440 240.0
19.31940 252.0
19.32440 238.0
19.32940 246.0
19.33440 252.0
19.33940 246.0
19.34440 254.0
19.34940 231.0
19.35440 212.0
19.35940 233.0
19.36440 241.0
19.36940 199.0
19.37440 199.0
19.37940 223.0
19.38440 238.0
19.38940 196.0
19.39440 227.0
19.39940 202.0
19.40440 193.0
19.40940 194.0
19.41440 205.0
19.41940 216.0
19.42440 196.0
19.42940 210.0
19.43440 189.0
19.43940 184.0
19.44440 178.0
19.44940 189.0
19.45440 162.0
19.45940 189.0
19.46440 155.0
19.46940 162.0
19.47440 184.0
19.47940 185.0
19.48440 177.0
19.48940 160.0
19.49440 156.0
19.49940 189.0
19.50440 152.0
19.50940 162.0
19.51440 142.0
19.51940 160.0
19.52440 171.0
19.52940 132.0
19.53440 158.0
19.53940 156.0
19.54440 155.0
19.54940 156.0
19.55440 154.0
19.55940 140.0
19.56440 143.0
19.56940 144.0
19.57440 155.0
19.57940 133.0
19.58440 134.0
19.58940 135.0
19.59440 137.0
19.59940 139.0
19.60440 146.0
19.60940 129.0
19.61440 154.0
19.61940 127.0
19.62440 121.0
19.62940 131.0
19.63440 118.0
19.63940 122.0
19.64440 123.0
19.64940 127.0
19.65440 112.0
19.65940 107.0
19.66440 146.0
19.66940 120.0
19.67440 113.0
19.67940 131.0
19.68440 104.0
19.68940 116.0
19.69440 123.0
19.69940 124.0
19.70440 106.0
19.70940 108.0
19.71440 101.0
19.71940 112.0
19.72440 118.0
19.72940 109.0
19.73440 97.0
19.73940 119.0
19.74440 99.0
19.74940 117.0
19.75440 110.0
19.75940 108.0
19.76440 108.0
19.76940 100.0
19.77440 104.0
19.77940 103.0
19.78440 93.0
19.78940 104.0
19.79440 103.0
19.79940 105.0
19.80440 108.0
19.80940 91.0
19.81440 100.0
19.81940 98.0
19.82440 103.0
19.82940 100.0
19.83440 83.0
19.83940 94.0
19.84440 88.0
19.84940 102.0
19.85440 112.0
19.85940 117.0
19.86440 87.0
19.86940 109.0
19.87440 95.0
19.87940 78.0
19.88440 109.0
19.88940 92.0
19.89440 94.0
19.89940 89.0
19.90440 88.0
19.90940 93.0
19.91440 97.0
19.91940 89.0
19.92440 91.0
19.92940 85.0
19.93440 88.0
19.93940 85.0
19.94440 97.0
19.94940 86.0
19.95440 92.0
19.95940 73.0
19.96440 72.0
19.96940 107.0
19.97440 81.0
19.97940 80.0
19.98440 87.0
19.98940 71.0
19.99440 96.0
19.99940 70.0
20.00440 83.0
20.00940 48.0
20.01440 76.0
20.01940 78.0
20.02440 72.0
20.02940 83.0
20.03440 60.0
20.03940 74.0
20.04440 83.0
20.04940 70.0
20.05440 71.0
20.05940 80.0
20.06440 85.0
20.06940 67.0
20.07440 71.0
20.07940 89.0
20.08440 80.0
20.08940 76.0
20.09440 66.0
20.09940 69.0
20.10440 79.0
20.10940 81.0
20.11440 87.0
20.11940 63.0
20.12440 69.0
20.12940 72.0
20.13440 66.0
20.13940 62.0
20.14440 70.0
20.14940 72.0
20.15440 73.0
20.15940 81.0
20.16440 70.0
20.16940 80.0
20.17440 84.0
20.17940 81.0
20.18440 73.0
20.18940 82.0
20.19440 77.0
20.19940 77.0
20.20440 77.0
20.20940 82.0
20.21440 65.0
20.21940 70.0
20.22440 65.0
20.22940 92.0
20.23440 66.0
20.23940 69.0