File: data/W6911r/XRD_Omega/w6911r_r-Cr2O3_scan_omega_4deg_step_0.005deg0_C1.xy
22.94040 58.0
22.94540 53.0
22.95040 63.0
22.95540 46.0
22.96040 51.0
22.96540 66.0
22.97040 57.0
22.97540 52.0
22.98040 66.0
22.98540 70.0
22.99040 44.0
22.99540 68.0
23.00040 52.0
23.00540 59.0
23.01040 66.0
23.01540 58.0
23.02040 62.0
23.02540 46.0
23.03040 54.0
23.03540 66.0
23.04040 63.0
23.04540 75.0
23.05040 64.0
23.05540 64.0
23.06040 68.0
23.06540 65.0
23.07040 59.0
23.07540 63.0
23.08040 59.0
23.08540 60.0
23.09040 61.0
23.09540 54.0
23.10040 63.0
23.10540 71.0
23.11040 56.0
23.11540 62.0
23.12040 63.0
23.12540 55.0
23.13040 77.0
23.13540 58.0
23.14040 70.0
23.14540 77.0
23.15040 69.0
23.15540 56.0
23.16040 55.0
23.16540 72.0
23.17040 65.0
23.17540 67.0
23.18040 66.0
23.18540 71.0
23.19040 64.0
23.19540 67.0
23.20040 69.0
23.20540 65.0
23.21040 46.0
23.21540 57.0
23.22040 63.0
23.22540 62.0
23.23040 54.0
23.23540 62.0
23.24040 62.0
23.24540 59.0
23.25040 65.0
23.25540 57.0
23.26040 56.0
23.26540 67.0
23.27040 62.0
23.27540 69.0
23.28040 54.0
23.28540 60.0
23.29040 56.0
23.29540 67.0
23.30040 72.0
23.30540 75.0
23.31040 64.0
23.31540 68.0
23.32040 68.0
23.32540 67.0
23.33040 65.0
23.33540 64.0
23.34040 57.0
23.34540 66.0
23.35040 77.0
23.35540 57.0
23.36040 69.0
23.36540 62.0
23.37040 63.0
23.37540 70.0
23.38040 75.0
23.38540 66.0
23.39040 92.0
23.39540 66.0
23.40040 73.0
23.40540 62.0
23.41040 59.0
23.41540 66.0
23.42040 72.0
23.42540 68.0
23.43040 64.0
23.43540 70.0
23.44040 67.0
23.44540 85.0
23.45040 85.0
23.45540 75.0
23.46040 74.0
23.46540 51.0
23.47040 81.0
23.47540 84.0
23.48040 72.0
23.48540 79.0
23.49040 73.0
23.49540 74.0
23.50040 86.0
23.50540 73.0
23.51040 68.0
23.51540 81.0
23.52040 77.0
23.52540 78.0
23.53040 90.0
23.53540 88.0
23.54040 77.0
23.54540 88.0
23.55040 85.0
23.55540 74.0
23.56040 72.0
23.56540 86.0
23.57040 82.0
23.57540 74.0
23.58040 74.0
23.58540 86.0
23.59040 84.0
23.59540 77.0
23.60040 74.0
23.60540 89.0
23.61040 83.0
23.61540 90.0
23.62040 83.0
23.62540 83.0
23.63040 78.0
23.63540 62.0
23.64040 84.0
23.64540 97.0
23.65040 83.0
23.65540 98.0
23.66040 100.0
23.66540 98.0
23.67040 79.0
23.67540 103.0
23.68040 103.0
23.68540 117.0
23.69040 80.0
23.69540 96.0
23.70040 92.0
23.70540 109.0
23.71040 110.0
23.71540 101.0
23.72040 95.0
23.72540 98.0
23.73040 96.0
23.73540 97.0
23.74040 106.0
23.74540 125.0
23.75040 93.0
23.75540 102.0
23.76040 99.0
23.76540 114.0
23.77040 113.0
23.77540 112.0
23.78040 108.0
23.78540 120.0
23.79040 110.0
23.79540 117.0
23.80040 122.0
23.80540 124.0
23.81040 112.0
23.81540 116.0
23.82040 117.0
23.82540 107.0
23.83040 123.0
23.83540 109.0
23.84040 108.0
23.84540 129.0
23.85040 133.0
23.85540 131.0
23.86040 122.0
23.86540 159.0
23.87040 104.0
23.87540 130.0
23.88040 135.0
23.88540 151.0
23.89040 122.0
23.89540 131.0
23.90040 131.0
23.90540 154.0
23.91040 139.0
23.91540 167.0
23.92040 138.0
23.92540 147.0
23.93040 130.0
23.93540 163.0
23.94040 134.0
23.94540 164.0
23.95040 162.0
23.95540 162.0
23.96040 163.0
23.96540 162.0
23.97040 147.0
23.97540 160.0
23.98040 191.0
23.98540 185.0
23.99040 181.0
23.99540 190.0
24.00040 179.0
24.00540 183.0
24.01040 199.0
24.01540 183.0
24.02040 198.0
24.02540 195.0
24.03040 189.0
24.03540 175.0
24.04040 219.0
24.04540 202.0
24.05040 202.0
24.05540 243.0
24.06040 217.0
24.06540 245.0
24.07040 237.0
24.07540 213.0
24.08040 228.0
24.08540 238.0
24.09040 233.0
24.09540 244.0
24.10040 252.0
24.10540 251.0
24.11040 256.0
24.11540 258.0
24.12040 278.0
24.12540 290.0
24.13040 274.0
24.13540 322.0
24.14040 312.0
24.14540 304.0
24.15040 294.0
24.15540 289.0
24.16040 316.0
24.16540 297.0
24.17040 326.0
24.17540 302.0
24.18040 328.0
24.18540 301.0
24.19040 317.0
24.19540 364.0
24.20040 344.0
24.20540 362.0
24.21040 342.0
24.21540 353.0
24.22040 368.0
24.22540 398.0
24.23040 354.0
24.23540 338.0
24.24040 360.0
24.24540 379.0
24.25040 373.0
24.25540 402.0
24.26040 374.0
24.26540 418.0
24.27040 399.0
24.27540 421.0
24.28040 452.0
24.28540 471.0
24.29040 423.0
24.29540 473.0
24.30040 431.0
24.30540 470.0
24.31040 460.0
24.31540 480.0
24.32040 481.0
24.32540 489.0
24.33040 469.0
24.33540 530.0
24.34040 527.0
24.34540 540.0
24.35040 563.0
24.35540 543.0
24.36040 575.0
24.36540 567.0
24.37040 561.0
24.37540 625.0
24.38040 547.0
24.38540 581.0
24.39040 616.0
24.39540 605.0
24.40040 598.0
24.40540 642.0
24.41040 688.0
24.41540 646.0
24.42040 693.0
24.42540 675.0
24.43040 700.0
24.43540 697.0
24.44040 718.0
24.44540 678.0
24.45040 750.0
24.45540 680.0
24.46040 766.0
24.46540 693.0
24.47040 712.0
24.47540 759.0
24.48040 791.0
24.48540 807.0
24.49040 746.0
24.49540 829.0
24.50040 825.0
24.50540 886.0
24.51040 843.0
24.51540 864.0
24.52040 862.0
24.52540 857.0
24.53040 824.0
24.53540 862.0
24.54040 861.0
24.54540 875.0
24.55040 856.0
24.55540 941.0
24.56040 1012.0
24.56540 958.0
24.57040 917.0
24.57540 986.0
24.58040 1014.0
24.58540 961.0
24.59040 987.0
24.59540 937.0
24.60040 1021.0
24.60540 1020.0
24.61040 999.0
24.61540 1010.0
24.62040 990.0
24.62540 1127.0
24.63040 1073.0
24.63540 1078.0
24.64040 1008.0
24.64540 1061.0
24.65040 1098.0
24.65540 1082.0
24.66040 1146.0
24.66540 1129.0
24.67040 1104.0
24.67540 1162.0
24.68040 1133.0
24.68540 1058.0
24.69040 1109.0
24.69540 1241.0
24.70040 1169.0
24.70540 1169.0
24.71040 1159.0
24.71540 1196.0
24.72040 1131.0
24.72540 1227.0
24.73040 1217.0
24.73540 1219.0
24.74040 1197.0
24.74540 1188.0
24.75040 1223.0
24.75540 1272.0
24.76040 1282.0
24.76540 1232.0
24.77040 1257.0
24.77540 1285.0
24.78040 1243.0
24.78540 1228.0
24.79040 1330.0
24.79540 1322.0
24.80040 1274.0
24.80540 1296.0
24.81040 1291.0
24.81540 1287.0
24.82040 1307.0
24.82540 1276.0
24.83040 1344.0
24.83540 1313.0
24.84040 1368.0
24.84540 1412.0
24.85040 1307.0
24.85540 1357.0
24.86040 1388.0
24.86540 1368.0
24.87040 1392.0
24.87540 1378.0
24.88040 1343.0
24.88540 1353.0
24.89040 1381.0
24.89540 1371.0
24.90040 1323.0
24.90540 1416.0
24.91040 1398.0
24.91540 1413.0
24.92040 1399.0
24.92540 1374.0
24.93040 1385.0
24.93540 1353.0
24.94040 1448.0
24.94540 1381.0
24.95040 1362.0
24.95540 1393.0
24.96040 1416.0
24.96540 1370.0
24.97040 1411.0
24.97540 1436.0
24.98040 1385.0
24.98540 1473.0
24.99040 1428.0
24.99540 1393.0
25.00040 1388.0
25.00540 1443.0
25.01040 1456.0
25.01540 1398.0
25.02040 1448.0
25.02540 1356.0
25.03040 1420.0
25.03540 1385.0
25.04040 1371.0
25.04540 1456.0
25.05040 1416.0
25.05540 1394.0
25.06040 1350.0
25.06540 1295.0
25.07040 1328.0
25.07540 1328.0
25.08040 1305.0
25.08540 1306.0
25.09040 1263.0
25.09540 1295.0
25.10040 1279.0
25.10540 1274.0
25.11040 1267.0
25.11540 1239.0
25.12040 1260.0
25.12540 1232.0
25.13040 1246.0
25.13540 1196.0
25.14040 1170.0
25.14540 1107.0
25.15040 1128.0
25.15540 1103.0
25.16040 1044.0
25.16540 1092.0
25.17040 979.0
25.17540 1059.0
25.18040 993.0
25.18540 1002.0
25.19040 1027.0
25.19540 944.0
25.20040 976.0
25.20540 952.0
25.21040 898.0
25.21540 943.0
25.22040 926.0
25.22540 923.0
25.23040 869.0
25.23540 859.0
25.24040 896.0
25.24540 843.0
25.25040 839.0
25.25540 886.0
25.26040 821.0
25.26540 839.0
25.27040 820.0
25.27540 796.0
25.28040 824.0
25.28540 810.0
25.29040 802.0
25.29540 741.0
25.30040 770.0
25.30540 740.0
25.31040 727.0
25.31540 710.0
25.32040 729.0
25.32540 689.0
25.33040 671.0
25.33540 688.0
25.34040 678.0
25.34540 686.0
25.35040 687.0
25.35540 664.0
25.36040 650.0
25.36540 639.0
25.37040 638.0
25.37540 652.0
25.38040 602.0
25.38540 614.0
25.39040 596.0
25.39540 549.0
25.40040 588.0
25.40540 581.0
25.41040 567.0
25.41540 568.0
25.42040 554.0
25.42540 495.0
25.43040 542.0
25.43540 500.0
25.44040 528.0
25.44540 497.0
25.45040 497.0
25.45540 476.0
25.46040 488.0
25.46540 471.0
25.47040 454.0
25.47540 452.0
25.48040 456.0
25.48540 454.0
25.49040 382.0
25.49540 441.0
25.50040 420.0
25.50540 402.0
25.51040 386.0
25.51540 377.0
25.52040 417.0
25.52540 384.0
25.53040 447.0
25.53540 362.0
25.54040 371.0
25.54540 370.0
25.55040 386.0
25.55540 345.0
25.56040 349.0
25.56540 343.0
25.57040 338.0
25.57540 331.0
25.58040 349.0
25.58540 318.0
25.59040 323.0
25.59540 320.0
25.60040 309.0
25.60540 331.0
25.61040 314.0
25.61540 308.0
25.62040 310.0
25.62540 285.0
25.63040 262.0
25.63540 331.0
25.64040 254.0
25.64540 274.0
25.65040 256.0
25.65540 251.0
25.66040 253.0
25.66540 266.0
25.67040 249.0
25.67540 236.0
25.68040 236.0
25.68540 214.0
25.69040 264.0
25.69540 234.0
25.70040 230.0
25.70540 252.0
25.71040 230.0
25.71540 214.0
25.72040 219.0
25.72540 192.0
25.73040 198.0
25.73540 213.0
25.74040 196.0
25.74540 199.0
25.75040 221.0
25.75540 205.0
25.76040 192.0
25.76540 181.0
25.77040 204.0
25.77540 178.0
25.78040 194.0
25.78540 184.0
25.79040 190.0
25.79540 202.0
25.80040 191.0
25.80540 163.0
25.81040 168.0
25.81540 172.0
25.82040 164.0
25.82540 160.0
25.83040 172.0
25.83540 167.0
25.84040 163.0
25.84540 162.0
25.85040 185.0
25.85540 143.0
25.86040 152.0
25.86540 133.0
25.87040 149.0
25.87540 134.0
25.88040 138.0
25.88540 148.0
25.89040 149.0
25.89540 138.0
25.90040 127.0
25.90540 139.0
25.91040 131.0
25.91540 122.0
25.92040 126.0
25.92540 134.0
25.93040 114.0
25.93540 128.0
25.94040 135.0
25.94540 116.0
25.95040 138.0
25.95540 128.0
25.96040 115.0
25.96540 123.0
25.97040 114.0
25.97540 111.0
25.98040 118.0
25.98540 94.0
25.99040 107.0
25.99540 116.0
26.00040 119.0
26.00540 93.0
26.01040 111.0
26.01540 100.0
26.02040 98.0
26.02540 118.0
26.03040 117.0
26.03540 78.0
26.04040 108.0
26.04540 91.0
26.05040 106.0
26.05540 121.0
26.06040 87.0
26.06540 108.0
26.07040 115.0
26.07540 96.0
26.08040 97.0
26.08540 100.0
26.09040 85.0
26.09540 106.0
26.10040 101.0
26.10540 106.0
26.11040 78.0
26.11540 76.0
26.12040 88.0
26.12540 80.0
26.13040 107.0
26.13540 97.0
26.14040 84.0
26.14540 64.0
26.15040 94.0
26.15540 93.0
26.16040 77.0
26.16540 77.0
26.17040 79.0
26.17540 99.0
26.18040 100.0
26.18540 93.0
26.19040 80.0
26.19540 100.0
26.20040 90.0
26.20540 90.0
26.21040 80.0
26.21540 88.0
26.22040 80.0
26.22540 68.0
26.23040 82.0
26.23540 80.0
26.24040 83.0
26.24540 81.0
26.25040 75.0
26.25540 91.0
26.26040 74.0
26.26540 86.0
26.27040 101.0
26.27540 79.0
26.28040 96.0
26.28540 69.0
26.29040 65.0
26.29540 76.0
26.30040 62.0
26.30540 87.0
26.31040 76.0
26.31540 71.0
26.32040 80.0
26.32540 79.0
26.33040 81.0
26.33540 72.0
26.34040 69.0
26.34540 72.0
26.35040 68.0
26.35540 64.0
26.36040 86.0
26.36540 61.0
26.37040 66.0
26.37540 65.0
26.38040 66.0
26.38540 66.0
26.39040 58.0
26.39540 66.0
26.40040 66.0
26.40540 61.0
26.41040 79.0
26.41540 67.0
26.42040 77.0
26.42540 60.0
26.43040 69.0
26.43540 60.0
26.44040 54.0
26.44540 60.0
26.45040 73.0
26.45540 52.0
26.46040 63.0
26.46540 69.0
26.47040 50.0
26.47540 71.0
26.48040 81.0
26.48540 65.0
26.49040 56.0
26.49540 63.0
26.50040 60.0
26.50540 62.0
26.51040 65.0
26.51540 72.0
26.52040 58.0
26.52540 65.0
26.53040 67.0
26.53540 55.0
26.54040 62.0
26.54540 60.0
26.55040 70.0
26.55540 76.0
26.56040 75.0
26.56540 69.0
26.57040 52.0
26.57540 71.0
26.58040 52.0
26.58540 63.0
26.59040 62.0
26.59540 70.0
26.60040 64.0
26.60540 59.0
26.61040 65.0
26.61540 56.0
26.62040 46.0
26.62540 59.0
26.63040 71.0
26.63540 63.0
26.64040 69.0
26.64540 58.0
26.65040 52.0
26.65540 57.0
26.66040 49.0
26.66540 57.0
26.67040 58.0
26.67540 55.0
26.68040 74.0
26.68540 59.0
26.69040 81.0
26.69540 56.0
26.70040 54.0
26.70540 59.0
26.71040 48.0
26.71540 69.0
26.72040 62.0
26.72540 67.0
26.73040 63.0
26.73540 55.0
26.74040 71.0
26.74540 47.0
26.75040 54.0
26.75540 69.0
26.76040 53.0
26.76540 61.0
26.77040 56.0
26.77540 65.0
26.78040 59.0
26.78540 60.0
26.79040 53.0
26.79540 55.0
26.80040 66.0
26.80540 64.0
26.81040 65.0
26.81540 44.0
26.82040 51.0
26.82540 51.0
26.83040 57.0
26.83540 55.0
26.84040 58.0
26.84540 51.0
26.85040 71.0
26.85540 60.0
26.86040 49.0
26.86540 60.0
26.87040 48.0
26.87540 64.0
26.88040 54.0
26.88540 52.0
26.89040 52.0
26.89540 37.0
26.90040 42.0