File: data/W6928c/XRD_Omega/film_c_scan_omega_4deg_step_0.005deg0_C1.xy
17.85270 33.0
17.85770 45.0
17.86270 41.0
17.86770 29.0
17.87270 40.0
17.87770 38.0
17.88270 29.0
17.88770 38.0
17.89270 37.0
17.89770 31.0
17.90270 22.0
17.90770 38.0
17.91270 21.0
17.91770 21.0
17.92270 32.0
17.92770 30.0
17.93270 21.0
17.93770 27.0
17.94270 39.0
17.94770 33.0
17.95270 35.0
17.95770 36.0
17.96270 36.0
17.96770 34.0
17.97270 30.0
17.97770 29.0
17.98270 29.0
17.98770 35.0
17.99270 22.0
17.99770 34.0
18.00270 35.0
18.00770 32.0
18.01270 38.0
18.01770 30.0
18.02270 35.0
18.02770 29.0
18.03270 33.0
18.03770 42.0
18.04270 33.0
18.04770 38.0
18.05270 21.0
18.05770 39.0
18.06270 46.0
18.06770 30.0
18.07270 28.0
18.07770 29.0
18.08270 42.0
18.08770 28.0
18.09270 33.0
18.09770 27.0
18.10270 29.0
18.10770 34.0
18.11270 30.0
18.11770 43.0
18.12270 29.0
18.12770 33.0
18.13270 24.0
18.13770 39.0
18.14270 32.0
18.14770 36.0
18.15270 32.0
18.15770 35.0
18.16270 34.0
18.16770 46.0
18.17270 27.0
18.17770 52.0
18.18270 30.0
18.18770 32.0
18.19270 39.0
18.19770 44.0
18.20270 21.0
18.20770 33.0
18.21270 36.0
18.21770 31.0
18.22270 29.0
18.22770 40.0
18.23270 35.0
18.23770 32.0
18.24270 29.0
18.24770 39.0
18.25270 38.0
18.25770 39.0
18.26270 28.0
18.26770 29.0
18.27270 28.0
18.27770 42.0
18.28270 40.0
18.28770 35.0
18.29270 25.0
18.29770 34.0
18.30270 37.0
18.30770 37.0
18.31270 35.0
18.31770 31.0
18.32270 26.0
18.32770 37.0
18.33270 42.0
18.33770 40.0
18.34270 40.0
18.34770 51.0
18.35270 27.0
18.35770 28.0
18.36270 26.0
18.36770 36.0
18.37270 45.0
18.37770 34.0
18.38270 36.0
18.38770 29.0
18.39270 48.0
18.39770 35.0
18.40270 41.0
18.40770 33.0
18.41270 45.0
18.41770 22.0
18.42270 36.0
18.42770 27.0
18.43270 41.0
18.43770 35.0
18.44270 30.0
18.44770 28.0
18.45270 41.0
18.45770 35.0
18.46270 34.0
18.46770 32.0
18.47270 25.0
18.47770 48.0
18.48270 31.0
18.48770 30.0
18.49270 29.0
18.49770 50.0
18.50270 28.0
18.50770 40.0
18.51270 35.0
18.51770 36.0
18.52270 32.0
18.52770 32.0
18.53270 44.0
18.53770 37.0
18.54270 32.0
18.54770 33.0
18.55270 36.0
18.55770 34.0
18.56270 46.0
18.56770 29.0
18.57270 31.0
18.57770 38.0
18.58270 37.0
18.58770 28.0
18.59270 36.0
18.59770 46.0
18.60270 41.0
18.60770 42.0
18.61270 38.0
18.61770 38.0
18.62270 52.0
18.62770 45.0
18.63270 39.0
18.63770 40.0
18.64270 44.0
18.64770 48.0
18.65270 27.0
18.65770 39.0
18.66270 41.0
18.66770 49.0
18.67270 40.0
18.67770 47.0
18.68270 44.0
18.68770 41.0
18.69270 44.0
18.69770 41.0
18.70270 26.0
18.70770 40.0
18.71270 42.0
18.71770 32.0
18.72270 47.0
18.72770 47.0
18.73270 47.0
18.73770 40.0
18.74270 36.0
18.74770 43.0
18.75270 45.0
18.75770 52.0
18.76270 46.0
18.76770 58.0
18.77270 59.0
18.77770 45.0
18.78270 54.0
18.78770 48.0
18.79270 58.0
18.79770 57.0
18.80270 53.0
18.80770 44.0
18.81270 57.0
18.81770 54.0
18.82270 54.0
18.82770 48.0
18.83270 53.0
18.83770 47.0
18.84270 52.0
18.84770 40.0
18.85270 67.0
18.85770 44.0
18.86270 61.0
18.86770 39.0
18.87270 56.0
18.87770 59.0
18.88270 56.0
18.88770 49.0
18.89270 59.0
18.89770 60.0
18.90270 44.0
18.90770 57.0
18.91270 65.0
18.91770 67.0
18.92270 62.0
18.92770 58.0
18.93270 66.0
18.93770 56.0
18.94270 58.0
18.94770 62.0
18.95270 54.0
18.95770 65.0
18.96270 86.0
18.96770 83.0
18.97270 64.0
18.97770 57.0
18.98270 71.0
18.98770 63.0
18.99270 81.0
18.99770 60.0
19.00270 75.0
19.00770 72.0
19.01270 59.0
19.01770 80.0
19.02270 81.0
19.02770 84.0
19.03270 74.0
19.03770 75.0
19.04270 89.0
19.04770 75.0
19.05270 82.0
19.05770 92.0
19.06270 86.0
19.06770 95.0
19.07270 91.0
19.07770 87.0
19.08270 94.0
19.08770 85.0
19.09270 97.0
19.09770 114.0
19.10270 94.0
19.10770 85.0
19.11270 92.0
19.11770 118.0
19.12270 93.0
19.12770 119.0
19.13270 127.0
19.13770 136.0
19.14270 119.0
19.14770 124.0
19.15270 126.0
19.15770 117.0
19.16270 116.0
19.16770 119.0
19.17270 141.0
19.17770 129.0
19.18270 137.0
19.18770 142.0
19.19270 153.0
19.19770 136.0
19.20270 146.0
19.20770 124.0
19.21270 135.0
19.21770 152.0
19.22270 184.0
19.22770 155.0
19.23270 154.0
19.23770 181.0
19.24270 185.0
19.24770 197.0
19.25270 190.0
19.25770 205.0
19.26270 191.0
19.26770 187.0
19.27270 207.0
19.27770 208.0
19.28270 216.0
19.28770 207.0
19.29270 248.0
19.29770 258.0
19.30270 226.0
19.30770 239.0
19.31270 258.0
19.31770 268.0
19.32270 272.0
19.32770 271.0
19.33270 297.0
19.33770 284.0
19.34270 301.0
19.34770 299.0
19.35270 312.0
19.35770 339.0
19.36270 335.0
19.36770 351.0
19.37270 320.0
19.37770 363.0
19.38270 389.0
19.38770 398.0
19.39270 391.0
19.39770 403.0
19.40270 432.0
19.40770 428.0
19.41270 415.0
19.41770 450.0
19.42270 493.0
19.42770 470.0
19.43270 499.0
19.43770 548.0
19.44270 517.0
19.44770 554.0
19.45270 568.0
19.45770 607.0
19.46270 597.0
19.46770 593.0
19.47270 650.0
19.47770 692.0
19.48270 697.0
19.48770 665.0
19.49270 726.0
19.49770 730.0
19.50270 761.0
19.50770 823.0
19.51270 788.0
19.51770 855.0
19.52270 833.0
19.52770 849.0
19.53270 889.0
19.53770 930.0
19.54270 967.0
19.54770 934.0
19.55270 1013.0
19.55770 1087.0
19.56270 1049.0
19.56770 1040.0
19.57270 1098.0
19.57770 1125.0
19.58270 1106.0
19.58770 1211.0
19.59270 1167.0
19.59770 1206.0
19.60270 1283.0
19.60770 1310.0
19.61270 1316.0
19.61770 1390.0
19.62270 1363.0
19.62770 1398.0
19.63270 1464.0
19.63770 1487.0
19.64270 1525.0
19.64770 1512.0
19.65270 1520.0
19.65770 1639.0
19.66270 1643.0
19.66770 1640.0
19.67270 1709.0
19.67770 1723.0
19.68270 1769.0
19.68770 1867.0
19.69270 1909.0
19.69770 1805.0
19.70270 1809.0
19.70770 1926.0
19.71270 1934.0
19.71770 1913.0
19.72270 1958.0
19.72770 1908.0
19.73270 2019.0
19.73770 2037.0
19.74270 1987.0
19.74770 2069.0
19.75270 2078.0
19.75770 2109.0
19.76270 2272.0
19.76770 2114.0
19.77270 2063.0
19.77770 2197.0
19.78270 2108.0
19.78770 2150.0
19.79270 2164.0
19.79770 2181.0
19.80270 2189.0
19.80770 2246.0
19.81270 2260.0
19.81770 2202.0
19.82270 2196.0
19.82770 2225.0
19.83270 2186.0
19.83770 2198.0
19.84270 2220.0
19.84770 2198.0
19.85270 2227.0
19.85770 2319.0
19.86270 2112.0
19.86770 2157.0
19.87270 2044.0
19.87770 2116.0
19.88270 2128.0
19.88770 2098.0
19.89270 2104.0
19.89770 2033.0
19.90270 2128.0
19.90770 2050.0
19.91270 1963.0
19.91770 1988.0
19.92270 1983.0
19.92770 2028.0
19.93270 1886.0
19.93770 1852.0
19.94270 1885.0
19.94770 1898.0
19.95270 1812.0
19.95770 1818.0
19.96270 1729.0
19.96770 1797.0
19.97270 1669.0
19.97770 1662.0
19.98270 1660.0
19.98770 1611.0
19.99270 1639.0
19.99770 1517.0
20.00270 1476.0
20.00770 1550.0
20.01270 1552.0
20.01770 1483.0
20.02270 1455.0
20.02770 1368.0
20.03270 1365.0
20.03770 1438.0
20.04270 1345.0
20.04770 1362.0
20.05270 1354.0
20.05770 1224.0
20.06270 1186.0
20.06770 1186.0
20.07270 1141.0
20.07770 1148.0
20.08270 1096.0
20.08770 1083.0
20.09270 1003.0
20.09770 1032.0
20.10270 966.0
20.10770 1009.0
20.11270 998.0
20.11770 904.0
20.12270 876.0
20.12770 860.0
20.13270 867.0
20.13770 785.0
20.14270 806.0
20.14770 779.0
20.15270 815.0
20.15770 760.0
20.16270 723.0
20.16770 667.0
20.17270 646.0
20.17770 620.0
20.18270 635.0
20.18770 622.0
20.19270 545.0
20.19770 623.0
20.20270 606.0
20.20770 546.0
20.21270 550.0
20.21770 485.0
20.22270 516.0
20.22770 471.0
20.23270 461.0
20.23770 478.0
20.24270 444.0
20.24770 435.0
20.25270 439.0
20.25770 433.0
20.26270 418.0
20.26770 398.0
20.27270 398.0
20.27770 373.0
20.28270 368.0
20.28770 354.0
20.29270 329.0
20.29770 326.0
20.30270 303.0
20.30770 302.0
20.31270 304.0
20.31770 287.0
20.32270 274.0
20.32770 279.0
20.33270 283.0
20.33770 274.0
20.34270 268.0
20.34770 257.0
20.35270 219.0
20.35770 247.0
20.36270 232.0
20.36770 218.0
20.37270 233.0
20.37770 211.0
20.38270 221.0
20.38770 208.0
20.39270 217.0
20.39770 189.0
20.40270 192.0
20.40770 184.0
20.41270 194.0
20.41770 189.0
20.42270 177.0
20.42770 163.0
20.43270 171.0
20.43770 164.0
20.44270 157.0
20.44770 137.0
20.45270 146.0
20.45770 153.0
20.46270 152.0
20.46770 117.0
20.47270 151.0
20.47770 142.0
20.48270 141.0
20.48770 149.0
20.49270 138.0
20.49770 111.0
20.50270 127.0
20.50770 118.0
20.51270 120.0
20.51770 116.0
20.52270 117.0
20.52770 125.0
20.53270 107.0
20.53770 107.0
20.54270 104.0
20.54770 94.0
20.55270 103.0
20.55770 111.0
20.56270 98.0
20.56770 87.0
20.57270 102.0
20.57770 97.0
20.58270 91.0
20.58770 67.0
20.59270 96.0
20.59770 90.0
20.60270 89.0
20.60770 78.0
20.61270 71.0
20.61770 80.0
20.62270 90.0
20.62770 72.0
20.63270 63.0
20.63770 84.0
20.64270 71.0
20.64770 75.0
20.65270 77.0
20.65770 79.0
20.66270 69.0
20.66770 73.0
20.67270 71.0
20.67770 78.0
20.68270 63.0
20.68770 72.0
20.69270 66.0
20.69770 62.0
20.70270 54.0
20.70770 75.0
20.71270 59.0
20.71770 46.0
20.72270 64.0
20.72770 59.0
20.73270 67.0
20.73770 69.0
20.74270 57.0
20.74770 60.0
20.75270 47.0
20.75770 55.0
20.76270 64.0
20.76770 54.0
20.77270 56.0
20.77770 46.0
20.78270 60.0
20.78770 58.0
20.79270 42.0
20.79770 55.0
20.80270 50.0
20.80770 54.0
20.81270 41.0
20.81770 40.0
20.82270 39.0
20.82770 47.0
20.83270 55.0
20.83770 44.0
20.84270 34.0
20.84770 51.0
20.85270 51.0
20.85770 48.0
20.86270 43.0
20.86770 46.0
20.87270 48.0
20.87770 48.0
20.88270 46.0
20.88770 53.0
20.89270 44.0
20.89770 34.0
20.90270 39.0
20.90770 33.0
20.91270 64.0
20.91770 38.0
20.92270 47.0
20.92770 41.0
20.93270 52.0
20.93770 45.0
20.94270 42.0
20.94770 30.0
20.95270 40.0
20.95770 65.0
20.96270 41.0
20.96770 41.0
20.97270 43.0
20.97770 42.0
20.98270 39.0
20.98770 36.0
20.99270 50.0
20.99770 54.0
21.00270 41.0
21.00770 36.0
21.01270 41.0
21.01770 33.0
21.02270 35.0
21.02770 35.0
21.03270 45.0
21.03770 46.0
21.04270 25.0
21.04770 31.0
21.05270 33.0
21.05770 34.0
21.06270 26.0
21.06770 38.0
21.07270 37.0
21.07770 30.0
21.08270 35.0
21.08770 43.0
21.09270 37.0
21.09770 39.0
21.10270 42.0
21.10770 45.0
21.11270 31.0
21.11770 35.0
21.12270 41.0
21.12770 28.0
21.13270 28.0
21.13770 35.0
21.14270 31.0
21.14770 31.0
21.15270 28.0
21.15770 38.0
21.16270 32.0
21.16770 45.0
21.17270 31.0
21.17770 28.0
21.18270 34.0
21.18770 30.0
21.19270 25.0
21.19770 37.0
21.20270 29.0
21.20770 25.0
21.21270 42.0
21.21770 44.0
21.22270 28.0
21.22770 37.0
21.23270 32.0
21.23770 30.0
21.24270 29.0
21.24770 31.0
21.25270 35.0
21.25770 37.0
21.26270 36.0
21.26770 36.0
21.27270 29.0
21.27770 29.0
21.28270 39.0
21.28770 34.0
21.29270 33.0
21.29770 26.0
21.30270 28.0
21.30770 28.0
21.31270 29.0
21.31770 27.0
21.32270 25.0
21.32770 32.0
21.33270 17.0
21.33770 30.0
21.34270 33.0
21.34770 27.0
21.35270 42.0
21.35770 45.0
21.36270 30.0
21.36770 28.0
21.37270 25.0
21.37770 39.0
21.38270 39.0
21.38770 37.0
21.39270 28.0
21.39770 29.0
21.40270 26.0
21.40770 34.0
21.41270 36.0
21.41770 40.0
21.42270 25.0
21.42770 29.0
21.43270 27.0
21.43770 36.0
21.44270 24.0
21.44770 29.0
21.45270 36.0
21.45770 31.0
21.46270 32.0
21.46770 31.0
21.47270 34.0
21.47770 29.0
21.48270 35.0
21.48770 25.0
21.49270 29.0
21.49770 30.0
21.50270 26.0
21.50770 23.0
21.51270 34.0
21.51770 36.0
21.52270 32.0
21.52770 31.0
21.53270 23.0
21.53770 33.0
21.54270 24.0
21.54770 41.0
21.55270 22.0
21.55770 33.0
21.56270 23.0
21.56770 28.0
21.57270 24.0
21.57770 28.0
21.58270 26.0
21.58770 25.0
21.59270 39.0
21.59770 47.0
21.60270 26.0
21.60770 33.0
21.61270 42.0
21.61770 26.0
21.62270 31.0
21.62770 32.0
21.63270 33.0
21.63770 26.0
21.64270 22.0
21.64770 27.0
21.65270 19.0
21.65770 24.0
21.66270 18.0
21.66770 32.0
21.67270 35.0
21.67770 27.0
21.68270 25.0
21.68770 32.0
21.69270 29.0
21.69770 34.0
21.70270 30.0
21.70770 29.0
21.71270 32.0
21.71770 27.0
21.72270 22.0
21.72770 26.0
21.73270 31.0
21.73770 35.0
21.74270 26.0
21.74770 31.0
21.75270 30.0
21.75770 30.0
21.76270 25.0
21.76770 29.0
21.77270 35.0
21.77770 26.0
21.78270 24.0
21.78770 24.0
21.79270 23.0
21.79770 33.0
21.80270 39.0
21.80770 33.0
21.81270 25.0