File: data/W6907r/XRD_Omega/scan_omega_4deg_step_0.005deg0_C8.xy
22.76010 57.0
22.76510 72.0
22.77010 73.0
22.77510 71.0
22.78010 73.0
22.78510 72.0
22.79010 62.0
22.79510 66.0
22.80010 66.0
22.80510 67.0
22.81010 79.0
22.81510 72.0
22.82010 54.0
22.82510 59.0
22.83010 71.0
22.83510 72.0
22.84010 73.0
22.84510 61.0
22.85010 70.0
22.85510 64.0
22.86010 59.0
22.86510 52.0
22.87010 69.0
22.87510 81.0
22.88010 77.0
22.88510 56.0
22.89010 70.0
22.89510 79.0
22.90010 62.0
22.90510 70.0
22.91010 59.0
22.91510 74.0
22.92010 76.0
22.92510 56.0
22.93010 68.0
22.93510 76.0
22.94010 74.0
22.94510 58.0
22.95010 64.0
22.95510 74.0
22.96010 65.0
22.96510 59.0
22.97010 78.0
22.97510 63.0
22.98010 80.0
22.98510 68.0
22.99010 78.0
22.99510 60.0
23.00010 78.0
23.00510 75.0
23.01010 81.0
23.01510 89.0
23.02010 62.0
23.02510 76.0
23.03010 57.0
23.03510 60.0
23.04010 69.0
23.04510 74.0
23.05010 81.0
23.05510 66.0
23.06010 62.0
23.06510 66.0
23.07010 70.0
23.07510 78.0
23.08010 65.0
23.08510 81.0
23.09010 78.0
23.09510 75.0
23.10010 64.0
23.10510 80.0
23.11010 89.0
23.11510 75.0
23.12010 75.0
23.12510 59.0
23.13010 61.0
23.13510 88.0
23.14010 75.0
23.14510 72.0
23.15010 92.0
23.15510 74.0
23.16010 79.0
23.16510 76.0
23.17010 86.0
23.17510 83.0
23.18010 81.0
23.18510 75.0
23.19010 62.0
23.19510 69.0
23.20010 80.0
23.20510 64.0
23.21010 82.0
23.21510 81.0
23.22010 73.0
23.22510 63.0
23.23010 73.0
23.23510 75.0
23.24010 88.0
23.24510 75.0
23.25010 78.0
23.25510 77.0
23.26010 78.0
23.26510 78.0
23.27010 71.0
23.27510 94.0
23.28010 87.0
23.28510 61.0
23.29010 84.0
23.29510 57.0
23.30010 91.0
23.30510 66.0
23.31010 87.0
23.31510 88.0
23.32010 94.0
23.32510 82.0
23.33010 94.0
23.33510 66.0
23.34010 89.0
23.34510 88.0
23.35010 85.0
23.35510 78.0
23.36010 87.0
23.36510 75.0
23.37010 87.0
23.37510 67.0
23.38010 84.0
23.38510 85.0
23.39010 90.0
23.39510 105.0
23.40010 81.0
23.40510 82.0
23.41010 86.0
23.41510 91.0
23.42010 91.0
23.42510 76.0
23.43010 78.0
23.43510 95.0
23.44010 95.0
23.44510 97.0
23.45010 95.0
23.45510 91.0
23.46010 100.0
23.46510 83.0
23.47010 98.0
23.47510 107.0
23.48010 116.0
23.48510 82.0
23.49010 96.0
23.49510 106.0
23.50010 121.0
23.50510 93.0
23.51010 97.0
23.51510 95.0
23.52010 105.0
23.52510 97.0
23.53010 114.0
23.53510 113.0
23.54010 102.0
23.54510 104.0
23.55010 129.0
23.55510 114.0
23.56010 115.0
23.56510 111.0
23.57010 111.0
23.57510 112.0
23.58010 95.0
23.58510 129.0
23.59010 129.0
23.59510 121.0
23.60010 95.0
23.60510 126.0
23.61010 111.0
23.61510 112.0
23.62010 117.0
23.62510 121.0
23.63010 130.0
23.63510 135.0
23.64010 109.0
23.64510 124.0
23.65010 125.0
23.65510 113.0
23.66010 103.0
23.66510 139.0
23.67010 121.0
23.67510 130.0
23.68010 128.0
23.68510 122.0
23.69010 133.0
23.69510 137.0
23.70010 126.0
23.70510 137.0
23.71010 134.0
23.71510 141.0
23.72010 153.0
23.72510 131.0
23.73010 174.0
23.73510 148.0
23.74010 140.0
23.74510 153.0
23.75010 140.0
23.75510 135.0
23.76010 141.0
23.76510 168.0
23.77010 153.0
23.77510 150.0
23.78010 147.0
23.78510 154.0
23.79010 157.0
23.79510 161.0
23.80010 152.0
23.80510 172.0
23.81010 167.0
23.81510 183.0
23.82010 184.0
23.82510 176.0
23.83010 174.0
23.83510 173.0
23.84010 198.0
23.84510 190.0
23.85010 196.0
23.85510 182.0
23.86010 180.0
23.86510 207.0
23.87010 224.0
23.87510 205.0
23.88010 222.0
23.88510 194.0
23.89010 216.0
23.89510 207.0
23.90010 237.0
23.90510 215.0
23.91010 203.0
23.91510 200.0
23.92010 231.0
23.92510 223.0
23.93010 223.0
23.93510 216.0
23.94010 216.0
23.94510 232.0
23.95010 256.0
23.95510 229.0
23.96010 255.0
23.96510 204.0
23.97010 276.0
23.97510 238.0
23.98010 235.0
23.98510 260.0
23.99010 250.0
23.99510 226.0
24.00010 253.0
24.00510 268.0
24.01010 257.0
24.01510 281.0
24.02010 250.0
24.02510 291.0
24.03010 285.0
24.03510 248.0
24.04010 306.0
24.04510 315.0
24.05010 297.0
24.05510 280.0
24.06010 333.0
24.06510 310.0
24.07010 325.0
24.07510 337.0
24.08010 334.0
24.08510 306.0
24.09010 332.0
24.09510 359.0
24.10010 330.0
24.10510 383.0
24.11010 358.0
24.11510 364.0
24.12010 300.0
24.12510 382.0
24.13010 366.0
24.13510 329.0
24.14010 340.0
24.14510 334.0
24.15010 362.0
24.15510 391.0
24.16010 360.0
24.16510 335.0
24.17010 389.0
24.17510 391.0
24.18010 409.0
24.18510 400.0
24.19010 448.0
24.19510 438.0
24.20010 420.0
24.20510 411.0
24.21010 458.0
24.21510 397.0
24.22010 443.0
24.22510 438.0
24.23010 430.0
24.23510 456.0
24.24010 429.0
24.24510 461.0
24.25010 476.0
24.25510 475.0
24.26010 469.0
24.26510 471.0
24.27010 476.0
24.27510 482.0
24.28010 500.0
24.28510 461.0
24.29010 542.0
24.29510 488.0
24.30010 515.0
24.30510 497.0
24.31010 516.0
24.31510 507.0
24.32010 543.0
24.32510 525.0
24.33010 561.0
24.33510 572.0
24.34010 532.0
24.34510 523.0
24.35010 599.0
24.35510 495.0
24.36010 588.0
24.36510 574.0
24.37010 563.0
24.37510 566.0
24.38010 528.0
24.38510 581.0
24.39010 619.0
24.39510 583.0
24.40010 580.0
24.40510 658.0
24.41010 562.0
24.41510 689.0
24.42010 625.0
24.42510 642.0
24.43010 579.0
24.43510 636.0
24.44010 637.0
24.44510 625.0
24.45010 594.0
24.45510 615.0
24.46010 624.0
24.46510 665.0
24.47010 676.0
24.47510 646.0
24.48010 661.0
24.48510 631.0
24.49010 690.0
24.49510 655.0
24.50010 652.0
24.50510 717.0
24.51010 702.0
24.51510 665.0
24.52010 697.0
24.52510 694.0
24.53010 678.0
24.53510 700.0
24.54010 701.0
24.54510 724.0
24.55010 751.0
24.55510 679.0
24.56010 669.0
24.56510 734.0
24.57010 721.0
24.57510 788.0
24.58010 724.0
24.58510 660.0
24.59010 744.0
24.59510 703.0
24.60010 712.0
24.60510 752.0
24.61010 741.0
24.61510 703.0
24.62010 778.0
24.62510 753.0
24.63010 760.0
24.63510 763.0
24.64010 727.0
24.64510 796.0
24.65010 789.0
24.65510 795.0
24.66010 781.0
24.66510 772.0
24.67010 777.0
24.67510 840.0
24.68010 845.0
24.68510 845.0
24.69010 870.0
24.69510 813.0
24.70010 828.0
24.70510 790.0
24.71010 795.0
24.71510 768.0
24.72010 843.0
24.72510 868.0
24.73010 855.0
24.73510 836.0
24.74010 889.0
24.74510 876.0
24.75010 838.0
24.75510 835.0
24.76010 804.0
24.76510 867.0
24.77010 849.0
24.77510 861.0
24.78010 870.0
24.78510 837.0
24.79010 821.0
24.79510 853.0
24.80010 832.0
24.80510 855.0
24.81010 847.0
24.81510 836.0
24.82010 833.0
24.82510 819.0
24.83010 821.0
24.83510 851.0
24.84010 802.0
24.84510 870.0
24.85010 862.0
24.85510 816.0
24.86010 805.0
24.86510 763.0
24.87010 814.0
24.87510 817.0
24.88010 839.0
24.88510 736.0
24.89010 833.0
24.89510 782.0
24.90010 730.0
24.90510 740.0
24.91010 717.0
24.91510 724.0
24.92010 716.0
24.92510 688.0
24.93010 735.0
24.93510 724.0
24.94010 687.0
24.94510 731.0
24.95010 707.0
24.95510 666.0
24.96010 651.0
24.96510 650.0
24.97010 666.0
24.97510 675.0
24.98010 659.0
24.98510 631.0
24.99010 623.0
24.99510 668.0
25.00010 639.0
25.00510 629.0
25.01010 642.0
25.01510 620.0
25.02010 643.0
25.02510 601.0
25.03010 615.0
25.03510 585.0
25.04010 623.0
25.04510 553.0
25.05010 531.0
25.05510 570.0
25.06010 556.0
25.06510 584.0
25.07010 549.0
25.07510 558.0
25.08010 524.0
25.08510 536.0
25.09010 540.0
25.09510 510.0
25.10010 534.0
25.10510 538.0
25.11010 560.0
25.11510 519.0
25.12010 503.0
25.12510 506.0
25.13010 524.0
25.13510 493.0
25.14010 530.0
25.14510 473.0
25.15010 477.0
25.15510 487.0
25.16010 481.0
25.16510 475.0
25.17010 500.0
25.17510 484.0
25.18010 483.0
25.18510 483.0
25.19010 460.0
25.19510 426.0
25.20010 422.0
25.20510 478.0
25.21010 427.0
25.21510 450.0
25.22010 459.0
25.22510 403.0
25.23010 415.0
25.23510 392.0
25.24010 430.0
25.24510 401.0
25.25010 416.0
25.25510 387.0
25.26010 414.0
25.26510 381.0
25.27010 419.0
25.27510 417.0
25.28010 419.0
25.28510 363.0
25.29010 365.0
25.29510 373.0
25.30010 378.0
25.30510 374.0
25.31010 359.0
25.31510 329.0
25.32010 388.0
25.32510 307.0
25.33010 341.0
25.33510 298.0
25.34010 320.0
25.34510 326.0
25.35010 316.0
25.35510 318.0
25.36010 295.0
25.36510 323.0
25.37010 320.0
25.37510 333.0
25.38010 271.0
25.38510 301.0
25.39010 342.0
25.39510 280.0
25.40010 290.0
25.40510 264.0
25.41010 278.0
25.41510 301.0
25.42010 272.0
25.42510 242.0
25.43010 256.0
25.43510 256.0
25.44010 272.0
25.44510 270.0
25.45010 284.0
25.45510 257.0
25.46010 265.0
25.46510 259.0
25.47010 240.0
25.47510 266.0
25.48010 246.0
25.48510 229.0
25.49010 251.0
25.49510 233.0
25.50010 247.0
25.50510 238.0
25.51010 212.0
25.51510 226.0
25.52010 237.0
25.52510 216.0
25.53010 219.0
25.53510 199.0
25.54010 240.0
25.54510 196.0
25.55010 197.0
25.55510 184.0
25.56010 198.0
25.56510 168.0
25.57010 199.0
25.57510 214.0
25.58010 202.0
25.58510 187.0
25.59010 192.0
25.59510 182.0
25.60010 178.0
25.60510 153.0
25.61010 182.0
25.61510 193.0
25.62010 155.0
25.62510 182.0
25.63010 185.0
25.63510 169.0
25.64010 164.0
25.64510 167.0
25.65010 168.0
25.65510 171.0
25.66010 181.0
25.66510 152.0
25.67010 145.0
25.67510 151.0
25.68010 159.0
25.68510 175.0
25.69010 166.0
25.69510 156.0
25.70010 141.0
25.70510 158.0
25.71010 134.0
25.71510 157.0
25.72010 143.0
25.72510 130.0
25.73010 111.0
25.73510 122.0
25.74010 108.0
25.74510 151.0
25.75010 137.0
25.75510 142.0
25.76010 132.0
25.76510 115.0
25.77010 115.0
25.77510 111.0
25.78010 138.0
25.78510 144.0
25.79010 113.0
25.79510 125.0
25.80010 139.0
25.80510 115.0
25.81010 112.0
25.81510 115.0
25.82010 101.0
25.82510 105.0
25.83010 125.0
25.83510 115.0
25.84010 111.0
25.84510 83.0
25.85010 103.0
25.85510 97.0
25.86010 97.0
25.86510 103.0
25.87010 113.0
25.87510 83.0
25.88010 93.0
25.88510 100.0
25.89010 94.0
25.89510 91.0
25.90010 114.0
25.90510 105.0
25.91010 102.0
25.91510 94.0
25.92010 109.0
25.92510 106.0
25.93010 80.0
25.93510 108.0
25.94010 82.0
25.94510 93.0
25.95010 90.0
25.95510 82.0
25.96010 76.0
25.96510 95.0
25.97010 96.0
25.97510 88.0
25.98010 102.0
25.98510 85.0
25.99010 96.0
25.99510 95.0
26.00010 74.0
26.00510 74.0
26.01010 111.0
26.01510 77.0
26.02010 83.0
26.02510 106.0
26.03010 85.0
26.03510 82.0
26.04010 90.0
26.04510 88.0
26.05010 78.0
26.05510 76.0
26.06010 70.0
26.06510 69.0
26.07010 78.0
26.07510 92.0
26.08010 82.0
26.08510 83.0
26.09010 84.0
26.09510 76.0
26.10010 92.0
26.10510 93.0
26.11010 83.0
26.11510 81.0
26.12010 81.0
26.12510 74.0
26.13010 82.0
26.13510 81.0
26.14010 80.0
26.14510 74.0
26.15010 71.0
26.15510 63.0
26.16010 80.0
26.16510 83.0
26.17010 70.0
26.17510 72.0
26.18010 60.0
26.18510 89.0
26.19010 68.0
26.19510 78.0
26.20010 69.0
26.20510 61.0
26.21010 73.0
26.21510 85.0
26.22010 78.0
26.22510 64.0
26.23010 85.0
26.23510 52.0
26.24010 65.0
26.24510 82.0
26.25010 77.0
26.25510 69.0
26.26010 85.0
26.26510 77.0
26.27010 65.0
26.27510 82.0
26.28010 62.0
26.28510 72.0
26.29010 60.0
26.29510 67.0
26.30010 81.0
26.30510 78.0
26.31010 48.0
26.31510 65.0
26.32010 75.0
26.32510 62.0
26.33010 46.0
26.33510 63.0
26.34010 53.0
26.34510 66.0
26.35010 53.0
26.35510 60.0
26.36010 71.0
26.36510 72.0
26.37010 70.0
26.37510 61.0
26.38010 77.0
26.38510 67.0
26.39010 52.0
26.39510 60.0
26.40010 51.0
26.40510 80.0
26.41010 76.0
26.41510 75.0
26.42010 57.0
26.42510 66.0
26.43010 70.0
26.43510 67.0
26.44010 78.0
26.44510 60.0
26.45010 62.0
26.45510 73.0
26.46010 69.0
26.46510 68.0
26.47010 67.0
26.47510 56.0
26.48010 50.0
26.48510 67.0
26.49010 63.0
26.49510 56.0
26.50010 69.0
26.50510 66.0
26.51010 55.0
26.51510 63.0
26.52010 58.0
26.52510 70.0
26.53010 62.0
26.53510 60.0
26.54010 69.0
26.54510 64.0
26.55010 67.0
26.55510 53.0
26.56010 68.0
26.56510 72.0
26.57010 66.0
26.57510 53.0
26.58010 57.0
26.58510 63.0
26.59010 61.0
26.59510 64.0
26.60010 59.0
26.60510 69.0
26.61010 52.0
26.61510 66.0
26.62010 55.0
26.62510 61.0
26.63010 65.0
26.63510 53.0
26.64010 60.0
26.64510 71.0
26.65010 52.0
26.65510 60.0
26.66010 63.0
26.66510 52.0
26.67010 63.0
26.67510 52.0
26.68010 52.0
26.68510 62.0
26.69010 62.0
26.69510 62.0
26.70010 49.0
26.70510 76.0
26.71010 76.0
26.71510 62.0
26.72010 51.0