File: data/W6932a/XRD_Omega/film_a_scan_omega_4deg_step_0.005deg0.xy
16.10060 247.0
16.10560 269.0
16.11060 281.0
16.11560 255.0
16.12060 263.0
16.12560 254.0
16.13060 266.0
16.13560 233.0
16.14060 258.0
16.14560 281.0
16.15060 242.0
16.15560 268.0
16.16060 247.0
16.16560 244.0
16.17060 254.0
16.17560 257.0
16.18060 271.0
16.18560 251.0
16.19060 284.0
16.19560 305.0
16.20060 268.0
16.20560 304.0
16.21060 289.0
16.21560 286.0
16.22060 310.0
16.22560 294.0
16.23060 275.0
16.23560 299.0
16.24060 288.0
16.24560 267.0
16.25060 246.0
16.25560 311.0
16.26060 300.0
16.26560 322.0
16.27060 292.0
16.27560 310.0
16.28060 294.0
16.28560 306.0
16.29060 328.0
16.29560 308.0
16.30060 327.0
16.30560 317.0
16.31060 319.0
16.31560 349.0
16.32060 296.0
16.32560 306.0
16.33060 332.0
16.33560 375.0
16.34060 333.0
16.34560 349.0
16.35060 319.0
16.35560 379.0
16.36060 320.0
16.36560 347.0
16.37060 366.0
16.37560 345.0
16.38060 357.0
16.38560 341.0
16.39060 330.0
16.39560 351.0
16.40060 290.0
16.40560 331.0
16.41060 391.0
16.41560 365.0
16.42060 349.0
16.42560 371.0
16.43060 374.0
16.43560 371.0
16.44060 361.0
16.44560 373.0
16.45060 369.0
16.45560 397.0
16.46060 393.0
16.46560 374.0
16.47060 363.0
16.47560 393.0
16.48060 406.0
16.48560 405.0
16.49060 402.0
16.49560 405.0
16.50060 391.0
16.50560 379.0
16.51060 393.0
16.51560 432.0
16.52060 409.0
16.52560 450.0
16.53060 421.0
16.53560 433.0
16.54060 385.0
16.54560 413.0
16.55060 436.0
16.55560 429.0
16.56060 448.0
16.56560 414.0
16.57060 448.0
16.57560 393.0
16.58060 444.0
16.58560 428.0
16.59060 447.0
16.59560 463.0
16.60060 426.0
16.60560 468.0
16.61060 446.0
16.61560 461.0
16.62060 465.0
16.62560 460.0
16.63060 446.0
16.63560 487.0
16.64060 484.0
16.64560 468.0
16.65060 480.0
16.65560 461.0
16.66060 498.0
16.66560 446.0
16.67060 478.0
16.67560 480.0
16.68060 504.0
16.68560 486.0
16.69060 457.0
16.69560 506.0
16.70060 479.0
16.70560 490.0
16.71060 516.0
16.71560 523.0
16.72060 568.0
16.72560 524.0
16.73060 548.0
16.73560 518.0
16.74060 557.0
16.74560 594.0
16.75060 551.0
16.75560 577.0
16.76060 557.0
16.76560 554.0
16.77060 526.0
16.77560 593.0
16.78060 508.0
16.78560 572.0
16.79060 560.0
16.79560 571.0
16.80060 599.0
16.80560 622.0
16.81060 589.0
16.81560 588.0
16.82060 617.0
16.82560 637.0
16.83060 599.0
16.83560 617.0
16.84060 583.0
16.84560 641.0
16.85060 609.0
16.85560 615.0
16.86060 674.0
16.86560 613.0
16.87060 634.0
16.87560 651.0
16.88060 607.0
16.88560 656.0
16.89060 630.0
16.89560 669.0
16.90060 657.0
16.90560 659.0
16.91060 652.0
16.91560 664.0
16.92060 656.0
16.92560 654.0
16.93060 654.0
16.93560 663.0
16.94060 718.0
16.94560 663.0
16.95060 701.0
16.95560 672.0
16.96060 708.0
16.96560 737.0
16.97060 661.0
16.97560 706.0
16.98060 723.0
16.98560 700.0
16.99060 719.0
16.99560 756.0
17.00060 714.0
17.00560 780.0
17.01060 746.0
17.01560 766.0
17.02060 796.0
17.02560 829.0
17.03060 779.0
17.03560 761.0
17.04060 809.0
17.04560 760.0
17.05060 782.0
17.05560 785.0
17.06060 901.0
17.06560 817.0
17.07060 820.0
17.07560 786.0
17.08060 805.0
17.08560 852.0
17.09060 833.0
17.09560 805.0
17.10060 871.0
17.10560 821.0
17.11060 809.0
17.11560 902.0
17.12060 888.0
17.12560 884.0
17.13060 877.0
17.13560 898.0
17.14060 939.0
17.14560 910.0
17.15060 933.0
17.15560 875.0
17.16060 886.0
17.16560 943.0
17.17060 958.0
17.17560 992.0
17.18060 957.0
17.18560 921.0
17.19060 925.0
17.19560 981.0
17.20060 992.0
17.20560 953.0
17.21060 1003.0
17.21560 1039.0
17.22060 1056.0
17.22560 1033.0
17.23060 1021.0
17.23560 1074.0
17.24060 1026.0
17.24560 1024.0
17.25060 1102.0
17.25560 1050.0
17.26060 1073.0
17.26560 1049.0
17.27060 1050.0
17.27560 1094.0
17.28060 1094.0
17.28560 1128.0
17.29060 1093.0
17.29560 1146.0
17.30060 1144.0
17.30560 1154.0
17.31060 1149.0
17.31560 1210.0
17.32060 1156.0
17.32560 1187.0
17.33060 1148.0
17.33560 1255.0
17.34060 1194.0
17.34560 1256.0
17.35060 1253.0
17.35560 1281.0
17.36060 1267.0
17.36560 1258.0
17.37060 1230.0
17.37560 1271.0
17.38060 1286.0
17.38560 1248.0
17.39060 1392.0
17.39560 1324.0
17.40060 1340.0
17.40560 1343.0
17.41060 1328.0
17.41560 1317.0
17.42060 1363.0
17.42560 1413.0
17.43060 1425.0
17.43560 1395.0
17.44060 1421.0
17.44560 1394.0
17.45060 1387.0
17.45560 1420.0
17.46060 1393.0
17.46560 1446.0
17.47060 1481.0
17.47560 1505.0
17.48060 1479.0
17.48560 1560.0
17.49060 1458.0
17.49560 1549.0
17.50060 1528.0
17.50560 1632.0
17.51060 1639.0
17.51560 1596.0
17.52060 1627.0
17.52560 1649.0
17.53060 1624.0
17.53560 1564.0
17.54060 1643.0
17.54560 1566.0
17.55060 1671.0
17.55560 1628.0
17.56060 1726.0
17.56560 1716.0
17.57060 1720.0
17.57560 1724.0
17.58060 1749.0
17.58560 1755.0
17.59060 1722.0
17.59560 1818.0
17.60060 1924.0
17.60560 1840.0
17.61060 1813.0
17.61560 1922.0
17.62060 1867.0
17.62560 1844.0
17.63060 1919.0
17.63560 1914.0
17.64060 1880.0
17.64560 1919.0
17.65060 1909.0
17.65560 1970.0
17.66060 1968.0
17.66560 2003.0
17.67060 1982.0
17.67560 2054.0
17.68060 2009.0
17.68560 2026.0
17.69060 2055.0
17.69560 2182.0
17.70060 2008.0
17.70560 2111.0
17.71060 2177.0
17.71560 2132.0
17.72060 2189.0
17.72560 2188.0
17.73060 2231.0
17.73560 2175.0
17.74060 2212.0
17.74560 2237.0
17.75060 2269.0
17.75560 2304.0
17.76060 2275.0
17.76560 2259.0
17.77060 2290.0
17.77560 2394.0
17.78060 2378.0
17.78560 2278.0
17.79060 2346.0
17.79560 2320.0
17.80060 2406.0
17.80560 2426.0
17.81060 2498.0
17.81560 2498.0
17.82060 2525.0
17.82560 2518.0
17.83060 2603.0
17.83560 2600.0
17.84060 2665.0
17.84560 2706.0
17.85060 2470.0
17.85560 2652.0
17.86060 2623.0
17.86560 2763.0
17.87060 2637.0
17.87560 2675.0
17.88060 2761.0
17.88560 2722.0
17.89060 2701.0
17.89560 2879.0
17.90060 2786.0
17.90560 2840.0
17.91060 2896.0
17.91560 2887.0
17.92060 2844.0
17.92560 2991.0
17.93060 2866.0
17.93560 2969.0
17.94060 3000.0
17.94560 2950.0
17.95060 3054.0
17.95560 3075.0
17.96060 3090.0
17.96560 3284.0
17.97060 3123.0
17.97560 3237.0
17.98060 3141.0
17.98560 3256.0
17.99060 3382.0
17.99560 3377.0
18.00060 3327.0
18.00560 3360.0
18.01060 3465.0
18.01560 3457.0
18.02060 3658.0
18.02560 3618.0
18.03060 3570.0
18.03560 3807.0
18.04060 3813.0
18.04560 4085.0
18.05060 4199.0
18.05560 4312.0
18.06060 4348.0
18.06560 4619.0
18.07060 4555.0
18.07560 4613.0
18.08060 4419.0
18.08560 4391.0
18.09060 4191.0
18.09560 4025.0
18.10060 4094.0
18.10560 4122.0
18.11060 4163.0
18.11560 4012.0
18.12060 4102.0
18.12560 4013.0
18.13060 3805.0
18.13560 3713.0
18.14060 3628.0
18.14560 3624.0
18.15060 3584.0
18.15560 3496.0
18.16060 3493.0
18.16560 3445.0
18.17060 3469.0
18.17560 3390.0
18.18060 3330.0
18.18560 3334.0
18.19060 3291.0
18.19560 3253.0
18.20060 3249.0
18.20560 3202.0
18.21060 3099.0
18.21560 3035.0
18.22060 3006.0
18.22560 2951.0
18.23060 2857.0
18.23560 2917.0
18.24060 2771.0
18.24560 2822.0
18.25060 2886.0
18.25560 2797.0
18.26060 2721.0
18.26560 2711.0
18.27060 2687.0
18.27560 2840.0
18.28060 2693.0
18.28560 2624.0
18.29060 2614.0
18.29560 2685.0
18.30060 2613.0
18.30560 2644.0
18.31060 2656.0
18.31560 2598.0
18.32060 2543.0
18.32560 2528.0
18.33060 2515.0
18.33560 2511.0
18.34060 2458.0
18.34560 2389.0
18.35060 2346.0
18.35560 2424.0
18.36060 2426.0
18.36560 2345.0
18.37060 2376.0
18.37560 2481.0
18.38060 2354.0
18.38560 2301.0
18.39060 2325.0
18.39560 2209.0
18.40060 2344.0
18.40560 2200.0
18.41060 2213.0
18.41560 2224.0
18.42060 2108.0
18.42560 2147.0
18.43060 2194.0
18.43560 2152.0
18.44060 2084.0
18.44560 2137.0
18.45060 2108.0
18.45560 1981.0
18.46060 2012.0
18.46560 1974.0
18.47060 1989.0
18.47560 2011.0
18.48060 1926.0
18.48560 1938.0
18.49060 1944.0
18.49560 1865.0
18.50060 1963.0
18.50560 1863.0
18.51060 2035.0
18.51560 1949.0
18.52060 1817.0
18.52560 1913.0
18.53060 1876.0
18.53560 1726.0
18.54060 1827.0
18.54560 1811.0
18.55060 1742.0
18.55560 1785.0
18.56060 1690.0
18.56560 1736.0
18.57060 1708.0
18.57560 1709.0
18.58060 1726.0
18.58560 1678.0
18.59060 1705.0
18.59560 1570.0
18.60060 1719.0
18.60560 1601.0
18.61060 1562.0
18.61560 1557.0
18.62060 1559.0
18.62560 1616.0
18.63060 1567.0
18.63560 1494.0
18.64060 1501.0
18.64560 1508.0
18.65060 1476.0
18.65560 1435.0
18.66060 1470.0
18.66560 1412.0
18.67060 1443.0
18.67560 1498.0
18.68060 1461.0
18.68560 1381.0
18.69060 1444.0
18.69560 1474.0
18.70060 1415.0
18.70560 1341.0
18.71060 1392.0
18.71560 1387.0
18.72060 1342.0
18.72560 1307.0
18.73060 1311.0
18.73560 1268.0
18.74060 1278.0
18.74560 1309.0
18.75060 1210.0
18.75560 1247.0
18.76060 1213.0
18.76560 1264.0
18.77060 1274.0
18.77560 1189.0
18.78060 1212.0
18.78560 1253.0
18.79060 1177.0
18.79560 1165.0
18.80060 1157.0
18.80560 1213.0
18.81060 1180.0
18.81560 1155.0
18.82060 1135.0
18.82560 1165.0
18.83060 1063.0
18.83560 1178.0
18.84060 1172.0
18.84560 1130.0
18.85060 1113.0
18.85560 1011.0
18.86060 1039.0
18.86560 1054.0
18.87060 1049.0
18.87560 1108.0
18.88060 1024.0
18.88560 1083.0
18.89060 1009.0
18.89560 952.0
18.90060 995.0
18.90560 935.0
18.91060 1046.0
18.91560 990.0
18.92060 945.0
18.92560 950.0
18.93060 945.0
18.93560 1028.0
18.94060 978.0
18.94560 919.0
18.95060 889.0
18.95560 911.0
18.96060 988.0
18.96560 894.0
18.97060 907.0
18.97560 925.0
18.98060 844.0
18.98560 912.0
18.99060 896.0
18.99560 860.0
19.00060 846.0
19.00560 872.0
19.01060 864.0
19.01560 869.0
19.02060 842.0
19.02560 861.0
19.03060 841.0
19.03560 829.0
19.04060 822.0
19.04560 823.0
19.05060 787.0
19.05560 746.0
19.06060 714.0
19.06560 752.0
19.07060 729.0
19.07560 750.0
19.08060 748.0
19.08560 778.0
19.09060 739.0
19.09560 734.0
19.10060 723.0
19.10560 763.0
19.11060 691.0
19.11560 705.0
19.12060 721.0
19.12560 739.0
19.13060 690.0
19.13560 710.0
19.14060 732.0
19.14560 742.0
19.15060 698.0
19.15560 658.0
19.16060 660.0
19.16560 629.0
19.17060 618.0
19.17560 675.0
19.18060 648.0
19.18560 661.0
19.19060 645.0
19.19560 653.0
19.20060 626.0
19.20560 603.0
19.21060 622.0
19.21560 622.0
19.22060 629.0
19.22560 607.0
19.23060 585.0
19.23560 615.0
19.24060 624.0
19.24560 632.0
19.25060 622.0
19.25560 599.0
19.26060 637.0
19.26560 602.0
19.27060 583.0
19.27560 584.0
19.28060 576.0
19.28560 587.0
19.29060 582.0
19.29560 557.0
19.30060 538.0
19.30560 548.0
19.31060 518.0
19.31560 606.0
19.32060 552.0
19.32560 522.0
19.33060 542.0
19.33560 516.0
19.34060 570.0
19.34560 536.0
19.35060 505.0
19.35560 507.0
19.36060 451.0
19.36560 503.0
19.37060 478.0
19.37560 454.0
19.38060 497.0
19.38560 488.0
19.39060 458.0
19.39560 515.0
19.40060 538.0
19.40560 491.0
19.41060 439.0
19.41560 466.0
19.42060 467.0
19.42560 470.0
19.43060 456.0
19.43560 467.0
19.44060 453.0
19.44560 463.0
19.45060 454.0
19.45560 463.0
19.46060 457.0
19.46560 485.0
19.47060 439.0
19.47560 434.0
19.48060 450.0
19.48560 449.0
19.49060 408.0
19.49560 438.0
19.50060 438.0
19.50560 410.0
19.51060 415.0
19.51560 415.0
19.52060 429.0
19.52560 408.0
19.53060 394.0
19.53560 386.0
19.54060 362.0
19.54560 375.0
19.55060 400.0
19.55560 375.0
19.56060 387.0
19.56560 394.0
19.57060 381.0
19.57560 377.0
19.58060 402.0
19.58560 371.0
19.59060 379.0
19.59560 375.0
19.60060 345.0
19.60560 404.0
19.61060 365.0
19.61560 360.0
19.62060 349.0
19.62560 358.0
19.63060 362.0
19.63560 311.0
19.64060 368.0
19.64560 339.0
19.65060 344.0
19.65560 298.0
19.66060 384.0
19.66560 340.0
19.67060 325.0
19.67560 312.0
19.68060 366.0
19.68560 344.0
19.69060 331.0
19.69560 312.0
19.70060 314.0
19.70560 323.0
19.71060 322.0
19.71560 312.0
19.72060 302.0
19.72560 315.0
19.73060 306.0
19.73560 301.0
19.74060 311.0
19.74560 295.0
19.75060 342.0
19.75560 283.0
19.76060 301.0
19.76560 306.0
19.77060 282.0
19.77560 302.0
19.78060 325.0
19.78560 308.0
19.79060 294.0
19.79560 270.0
19.80060 275.0
19.80560 291.0
19.81060 295.0
19.81560 284.0
19.82060 282.0
19.82560 261.0
19.83060 270.0
19.83560 260.0
19.84060 282.0
19.84560 279.0
19.85060 264.0
19.85560 249.0
19.86060 273.0
19.86560 251.0
19.87060 292.0
19.87560 271.0
19.88060 260.0
19.88560 255.0
19.89060 263.0
19.89560 261.0
19.90060 228.0
19.90560 225.0
19.91060 257.0
19.91560 254.0
19.92060 235.0
19.92560 236.0
19.93060 230.0
19.93560 239.0
19.94060 237.0
19.94560 225.0
19.95060 221.0
19.95560 204.0
19.96060 231.0
19.96560 216.0
19.97060 237.0
19.97560 214.0
19.98060 256.0
19.98560 225.0
19.99060 219.0
19.99560 223.0
20.00060 213.0
20.00560 221.0
20.01060 238.0
20.01560 227.0
20.02060 265.0
20.02560 195.0
20.03060 201.0
20.03560 237.0
20.04060 204.0
20.04560 200.0
20.05060 210.0
20.05560 196.0
20.06060 188.0