File: data/W6853r/XRD_2ThetaOmega/W6853r_absolute_2th-om_10-130deg_PIXscan_17min_5.xy
10.0035 22.0
10.0872 19.0
10.1709 29.0
10.2546 35.0
10.3383 17.0
10.422 18.0
10.5057 26.0
10.5894 18.0
10.6731 18.0
10.7568 15.0
10.8405 30.0
10.9242 18.0
11.0079 15.0
11.0916 25.0
11.1753 22.0
11.259 27.0
11.3428 18.0
11.4265 20.0
11.5102 26.0
11.5939 29.0
11.6776 14.0
11.7613 9.0
11.845 22.0
11.9287 15.0
12.0124 24.0
12.0961 21.0
12.1798 24.0
12.2635 25.0
12.3472 23.0
12.4309 22.0
12.5146 15.0
12.5983 15.0
12.682 23.0
12.7657 23.0
12.8495 26.0
12.9332 28.0
13.0169 24.0
13.1006 15.0
13.1843 16.0
13.268 17.0
13.3517 15.0
13.4354 26.0
13.5191 13.0
13.6028 11.0
13.6865 18.0
13.7702 21.0
13.8539 22.0
13.9376 11.0
14.0213 9.0
14.105 17.0
14.1887 17.0
14.2724 19.0
14.3562 20.0
14.4399 18.0
14.5236 13.0
14.6073 21.0
14.691 17.0
14.7747 17.0
14.8584 19.0
14.9421 12.0
15.0258 20.0
15.1095 14.0
15.1932 11.0
15.2769 17.0
15.3606 13.0
15.4443 16.0
15.528 21.0
15.6117 16.0
15.6954 13.0
15.7791 22.0
15.8629 19.0
15.9466 18.0
16.0303 23.0
16.114 20.0
16.1977 17.0
16.2814 24.0
16.3651 19.0
16.4488 18.0
16.5325 15.0
16.6162 23.0
16.6999 16.0
16.7836 14.0
16.8673 23.0
16.951 15.0
17.0347 17.0
17.1184 16.0
17.2021 16.0
17.2858 9.0
17.3696 14.0
17.4533 9.0
17.537 25.0
17.6207 25.0
17.7044 25.0
17.7881 14.0
17.8718 18.0
17.9555 21.0
18.0392 17.0
18.1229 13.0
18.2066 16.0
18.2903 18.0
18.374 13.0
18.4577 16.0
18.5414 16.0
18.6251 11.0
18.7088 22.0
18.7925 13.0
18.8763 14.0
18.96 16.0
19.0437 13.0
19.1274 15.0
19.2111 17.0
19.2948 8.0
19.3785 11.0
19.4622 12.0
19.5459 18.0
19.6296 14.0
19.7133 13.0
19.797 15.0
19.8807 18.0
19.9644 15.0
20.0481 16.0
20.1318 15.0
20.2155 13.0
20.2992 14.0
20.383 14.0
20.4667 11.0
20.5504 24.0
20.6341 14.0
20.7178 12.0
20.8015 9.0
20.8852 15.0
20.9689 11.0
21.0526 15.0
21.1363 18.0
21.22 11.0
21.3037 14.0
21.3874 16.0
21.4711 13.0
21.5548 15.0
21.6385 9.0
21.7222 20.0
21.8059 17.0
21.8897 20.0
21.9734 16.0
22.0571 16.0
22.1408 14.0
22.2245 8.0
22.3082 18.0
22.3919 22.0
22.4756 13.0
22.5593 13.0
22.643 13.0
22.7267 11.0
22.8104 10.0
22.8941 19.0
22.9778 12.0
23.0615 42.0
23.1452 26.0
23.2289 20.0
23.3126 24.0
23.3964 25.0
23.4801 18.0
23.5638 20.0
23.6475 28.0
23.7312 35.0
23.8149 45.0
23.8986 57.0
23.9823 115.0
24.066 198.0
24.1497 360.0
24.2334 397.0
24.3171 257.0
24.4008 197.0
24.4845 193.0
24.5682 77.0
24.6519 99.0
24.7356 58.0
24.8193 47.0
24.9031 51.0
24.9868 56.0
25.0705 58.0
25.1542 84.0
25.2379 110.0
25.3216 160.0
25.4053 459.0
25.489 4350.0
25.5727 18157.0
25.6564 970.0
25.7401 341.0
25.8238 205.0
25.9075 188.0
25.9912 150.0
26.0749 112.0
26.1586 94.0
26.2423 80.0
26.326 51.0
26.4098 48.0
26.4935 37.0
26.5772 30.0
26.6609 37.0
26.7446 27.0
26.8283 18.0
26.912 22.0
26.9957 24.0
27.0794 23.0
27.1631 12.0
27.2468 16.0
27.3305 12.0
27.4142 20.0
27.4979 26.0
27.5816 22.0
27.6653 20.0
27.749 6.0
27.8327 19.0
27.9165 22.0
28.0002 12.0
28.0839 18.0
28.1676 13.0
28.2513 12.0
28.335 10.0
28.4187 14.0
28.5024 11.0
28.5861 10.0
28.6698 11.0
28.7535 9.0
28.8372 9.0
28.9209 19.0
29.0046 13.0
29.0883 12.0
29.172 9.0
29.2557 6.0
29.3394 11.0
29.4232 15.0
29.5069 9.0
29.5906 10.0
29.6743 17.0
29.758 13.0
29.8417 10.0
29.9254 12.0
30.0091 8.0
30.0928 12.0
30.1765 14.0
30.2602 15.0
30.3439 7.0
30.4276 10.0
30.5113 15.0
30.595 20.0
30.6787 14.0
30.7624 12.0
30.8461 10.0
30.9298 8.0
31.0136 6.0
31.0973 13.0
31.181 10.0
31.2647 13.0
31.3484 23.0
31.4321 19.0
31.5158 11.0
31.5995 8.0
31.6832 9.0
31.7669 12.0
31.8506 13.0
31.9343 10.0
32.018 6.0
32.1017 10.0
32.1854 9.0
32.2691 11.0
32.3528 18.0
32.4365 8.0
32.5203 9.0
32.604 11.0
32.6877 17.0
32.7714 10.0
32.8551 11.0
32.9388 5.0
33.0225 9.0
33.1062 13.0
33.1899 12.0
33.2736 15.0
33.3573 14.0
33.441 10.0
33.5247 15.0
33.6084 15.0
33.6921 4.0
33.7758 13.0
33.8595 10.0
33.9432 10.0
34.027 7.0
34.1107 17.0
34.1944 11.0
34.2781 11.0
34.3618 10.0
34.4455 12.0
34.5292 10.0
34.6129 10.0
34.6966 7.0
34.7803 9.0
34.864 15.0
34.9477 10.0
35.0314 13.0
35.1151 11.0
35.1988 13.0
35.2825 14.0
35.3662 17.0
35.4499 9.0
35.5337 15.0
35.6174 14.0
35.7011 9.0
35.7848 12.0
35.8685 10.0
35.9522 19.0
36.0359 13.0
36.1196 9.0
36.2033 12.0
36.287 9.0
36.3707 20.0
36.4544 14.0
36.5381 6.0
36.6218 8.0
36.7055 8.0
36.7892 14.0
36.8729 14.0
36.9566 10.0
37.0404 14.0
37.1241 7.0
37.2078 16.0
37.2915 13.0
37.3752 8.0
37.4589 13.0
37.5426 8.0
37.6263 14.0
37.71 13.0
37.7937 13.0
37.8774 17.0
37.9611 9.0
38.0448 14.0
38.1285 6.0
38.2122 6.0
38.2959 5.0
38.3796 15.0
38.4633 14.0
38.5471 14.0
38.6308 8.0
38.7145 14.0
38.7982 8.0
38.8819 8.0
38.9656 7.0
39.0493 8.0
39.133 7.0
39.2167 9.0
39.3004 14.0
39.3841 11.0
39.4678 15.0
39.5515 10.0
39.6352 11.0
39.7189 13.0
39.8026 9.0
39.8863 4.0
39.97 6.0
40.0538 14.0
40.1375 2.0
40.2212 15.0
40.3049 7.0
40.3886 11.0
40.4723 12.0
40.556 14.0
40.6397 8.0
40.7234 12.0
40.8071 15.0
40.8908 5.0
40.9745 7.0
41.0582 12.0
41.1419 14.0
41.2256 12.0
41.3093 15.0
41.393 9.0
41.4767 11.0
41.5605 6.0
41.6442 13.0
41.7279 7.0
41.8116 8.0
41.8953 13.0
41.979 8.0
42.0627 10.0
42.1464 13.0
42.2301 14.0
42.3138 17.0
42.3975 12.0
42.4812 11.0
42.5649 13.0
42.6486 10.0
42.7323 7.0
42.816 8.0
42.8997 8.0
42.9834 14.0
43.0672 17.0
43.1509 13.0
43.2346 8.0
43.3183 11.0
43.402 8.0
43.4857 13.0
43.5694 17.0
43.6531 11.0
43.7368 9.0
43.8205 14.0
43.9042 18.0
43.9879 18.0
44.0716 15.0
44.1553 16.0
44.239 23.0
44.3227 22.0
44.4064 24.0
44.4901 31.0
44.5739 18.0
44.6576 20.0
44.7413 12.0
44.825 17.0
44.9087 16.0
44.9924 15.0
45.0761 7.0
45.1598 14.0
45.2435 18.0
45.3272 12.0
45.4109 14.0
45.4946 15.0
45.5783 12.0
45.662 11.0
45.7457 6.0
45.8294 8.0
45.9131 11.0
45.9968 10.0
46.0806 13.0
46.1643 15.0
46.248 15.0
46.3317 11.0
46.4154 8.0
46.4991 8.0
46.5828 16.0
46.6665 13.0
46.7502 12.0
46.8339 11.0
46.9176 17.0
47.0013 10.0
47.085 64.0
47.1687 37.0
47.2524 19.0
47.3361 8.0
47.4198 20.0
47.5035 17.0
47.5873 13.0
47.671 12.0
47.7547 14.0
47.8384 19.0
47.9221 13.0
48.0058 11.0
48.0895 16.0
48.1732 8.0
48.2569 7.0
48.3406 14.0
48.4243 10.0
48.508 17.0
48.5917 14.0
48.6754 16.0
48.7591 16.0
48.8428 17.0
48.9265 15.0
49.0102 9.0
49.094 18.0
49.1777 18.0
49.2614 16.0
49.3451 23.0
49.4288 10.0
49.5125 23.0
49.5962 16.0
49.6799 12.0
49.7636 17.0
49.8473 25.0
49.931 17.0
50.0147 23.0
50.0984 49.0
50.1821 178.0
50.2658 26.0
50.3495 19.0
50.4332 20.0
50.5169 27.0
50.6007 34.0
50.6844 20.0
50.7681 25.0
50.8518 7.0
50.9355 27.0
51.0192 15.0
51.1029 16.0
51.1866 19.0
51.2703 30.0
51.354 15.0
51.4377 27.0
51.5214 32.0
51.6051 32.0
51.6888 36.0
51.7725 42.0
51.8562 54.0
51.9399 41.0
52.0236 67.0
52.1074 90.0
52.1911 134.0
52.2748 411.0
52.3585 438.0
52.4422 2253.0
52.5259 29546.0
52.6096 5955.0
52.6933 3848.0
52.777 505.0
52.8607 276.0
52.9444 183.0
53.0281 137.0
53.1118 117.0
53.1955 105.0
53.2792 84.0
53.3629 90.0
53.4466 85.0
53.5303 69.0
53.6141 64.0
53.6978 67.0
53.7815 45.0
53.8652 46.0
53.9489 37.0
54.0326 41.0
54.1163 46.0
54.2 30.0
54.2837 27.0
54.3674 36.0
54.4511 20.0
54.5348 18.0
54.6185 19.0
54.7022 21.0
54.7859 21.0
54.8696 19.0
54.9533 20.0
55.037 20.0
55.1208 9.0
55.2045 20.0
55.2882 15.0
55.3719 12.0
55.4556 15.0
55.5393 18.0
55.623 17.0
55.7067 13.0
55.7904 13.0
55.8741 16.0
55.9578 9.0
56.0415 9.0
56.1252 14.0
56.2089 17.0
56.2926 15.0
56.3763 14.0
56.46 19.0
56.5437 9.0
56.6275 11.0
56.7112 6.0
56.7949 8.0
56.8786 19.0
56.9623 6.0
57.046 16.0
57.1297 14.0
57.2134 15.0
57.2971 16.0
57.3808 9.0
57.4645 13.0
57.5482 17.0
57.6319 20.0
57.7156 8.0
57.7993 12.0
57.883 11.0
57.9667 10.0
58.0504 8.0
58.1342 14.0
58.2179 17.0
58.3016 16.0
58.3853 5.0
58.469 10.0
58.5527 7.0
58.6364 12.0
58.7201 6.0
58.8038 9.0
58.8875 14.0
58.9712 9.0
59.0549 10.0
59.1386 21.0
59.2223 26.0
59.306 7.0
59.3897 15.0
59.4734 11.0
59.5571 7.0
59.6409 7.0
59.7246 14.0
59.8083 5.0
59.892 11.0
59.9757 10.0
60.0594 10.0
60.1431 11.0
60.2268 15.0
60.3105 8.0
60.3942 8.0
60.4779 17.0
60.5616 6.0
60.6453 19.0
60.729 12.0
60.8127 7.0
60.8964 10.0
60.9801 7.0
61.0638 15.0
61.1476 7.0
61.2313 11.0
61.315 18.0
61.3987 15.0
61.4824 11.0
61.5661 8.0
61.6498 2.0
61.7335 10.0
61.8172 13.0
61.9009 10.0
61.9846 9.0
62.0683 9.0
62.152 13.0
62.2357 13.0
62.3194 7.0
62.4031 13.0
62.4868 15.0
62.5705 16.0
62.6543 5.0
62.738 13.0
62.8217 17.0
62.9054 8.0
62.9891 9.0
63.0728 1.0
63.1565 8.0
63.2402 7.0
63.3239 8.0
63.4076 12.0
63.4913 15.0
63.575 13.0
63.6587 12.0
63.7424 13.0
63.8261 11.0
63.9098 7.0
63.9935 10.0
64.0772 11.0
64.161 13.0
64.2447 6.0
64.3284 10.0
64.4121 16.0
64.4958 13.0
64.5795 12.0
64.6632 17.0
64.7469 10.0
64.8306 12.0
64.9143 14.0
64.998 9.0
65.0817 13.0
65.1654 12.0
65.2491 21.0
65.3328 17.0
65.4165 18.0
65.5002 11.0
65.5839 14.0
65.6677 10.0
65.7514 6.0
65.8351 10.0
65.9188 11.0
66.0025 12.0
66.0862 11.0
66.1699 16.0
66.2536 8.0
66.3373 14.0
66.421 10.0
66.5047 18.0
66.5884 10.0
66.6721 12.0
66.7558 9.0
66.8395 9.0
66.9232 7.0
67.0069 12.0
67.0906 4.0
67.1744 13.0
67.2581 12.0
67.3418 12.0
67.4255 4.0
67.5092 6.0
67.5929 16.0
67.6766 15.0
67.7603 10.0
67.844 10.0
67.9277 9.0
68.0114 11.0
68.0951 9.0
68.1788 8.0
68.2625 8.0
68.3462 6.0
68.4299 10.0
68.5136 1.0
68.5973 14.0
68.6811 15.0
68.7648 11.0
68.8485 10.0
68.9322 17.0
69.0159 9.0
69.0996 9.0
69.1833 8.0
69.267 8.0
69.3507 16.0
69.4344 8.0
69.5181 11.0
69.6018 10.0
69.6855 11.0
69.7692 8.0
69.8529 17.0
69.9366 12.0
70.0203 18.0
70.104 7.0
70.1878 13.0
70.2715 12.0
70.3552 8.0
70.4389 14.0
70.5226 15.0
70.6063 14.0
70.69 11.0
70.7737 15.0
70.8574 9.0
70.9411 6.0
71.0248 9.0
71.1085 18.0
71.1922 16.0
71.2759 19.0
71.3596 16.0
71.4433 14.0
71.527 10.0
71.6107 16.0
71.6945 11.0
71.7782 16.0
71.8619 8.0
71.9456 11.0
72.0293 6.0
72.113 9.0
72.1967 13.0
72.2804 6.0
72.3641 9.0
72.4478 14.0
72.5315 20.0
72.6152 13.0
72.6989 12.0
72.7826 8.0
72.8663 17.0
72.95 14.0
73.0337 11.0
73.1174 13.0
73.2012 10.0
73.2849 13.0
73.3686 12.0
73.4523 8.0
73.536 15.0
73.6197 8.0
73.7034 14.0
73.7871 10.0
73.8708 11.0
73.9545 15.0
74.0382 8.0
74.1219 7.0
74.2056 13.0
74.2893 12.0
74.373 8.0
74.4567 14.0
74.5404 12.0
74.6241 6.0
74.7079 15.0
74.7916 16.0
74.8753 10.0
74.959 10.0
75.0427 10.0
75.1264 15.0
75.2101 7.0
75.2938 9.0
75.3775 11.0
75.4612 11.0
75.5449 12.0
75.6286 12.0
75.7123 14.0
75.796 8.0
75.8797 8.0
75.9634 4.0
76.0471 11.0
76.1308 12.0
76.2146 6.0
76.2983 9.0
76.382 14.0
76.4657 10.0
76.5494 12.0
76.6331 16.0
76.7168 8.0
76.8005 11.0
76.8842 11.0
76.9679 10.0
77.0516 7.0
77.1353 14.0
77.219 10.0
77.3027 12.0
77.3864 8.0
77.4701 11.0
77.5538 12.0
77.6375 15.0
77.7213 5.0
77.805 12.0
77.8887 13.0
77.9724 12.0
78.0561 20.0
78.1398 13.0
78.2235 9.0
78.3072 10.0
78.3909 12.0
78.4746 12.0
78.5583 12.0
78.642 15.0
78.7257 8.0
78.8094 8.0
78.8931 20.0
78.9768 20.0
79.0605 17.0
79.1442 13.0
79.228 7.0
79.3117 9.0
79.3954 11.0
79.4791 11.0
79.5628 8.0
79.6465 16.0
79.7302 11.0
79.8139 8.0
79.8976 13.0
79.9813 9.0
80.065 11.0
80.1487 16.0
80.2324 11.0
80.3161 13.0
80.3998 12.0
80.4835 15.0
80.5672 6.0
80.6509 12.0
80.7347 14.0
80.8184 6.0
80.9021 10.0
80.9858 7.0
81.0695 13.0
81.1532 4.0
81.2369 12.0
81.3206 6.0
81.4043 10.0
81.488 19.0
81.5717 14.0
81.6554 12.0
81.7391 9.0
81.8228 15.0
81.9065 13.0
81.9902 13.0
82.0739 10.0
82.1576 11.0
82.2414 17.0
82.3251 14.0
82.4088 10.0
82.4925 24.0
82.5762 11.0
82.6599 19.0
82.7436 15.0
82.8273 27.0
82.911 28.0
82.9947 36.0
83.0784 84.0
83.1621 1333.0
83.2458 265.0
83.3295 68.0
83.4132 679.0
83.4969 175.0
83.5806 22.0
83.6643 35.0
83.7481 27.0
83.8318 19.0
83.9155 18.0
83.9992 21.0
84.0829 16.0
84.1666 16.0
84.2503 18.0
84.334 15.0
84.4177 19.0
84.5014 12.0
84.5851 8.0
84.6688 8.0
84.7525 14.0
84.8362 12.0
84.9199 11.0
85.0036 13.0
85.0873 20.0
85.171 13.0
85.2548 16.0
85.3385 15.0
85.4222 9.0
85.5059 12.0
85.5896 14.0
85.6733 13.0
85.757 11.0
85.8407 11.0
85.9244 13.0
86.0081 14.0
86.0918 15.0
86.1755 12.0
86.2592 13.0
86.3429 21.0
86.4266 10.0
86.5103 12.0
86.594 13.0
86.6777 9.0
86.7615 9.0
86.8452 16.0
86.9289 8.0
87.0126 16.0
87.0963 10.0
87.18 13.0
87.2637 9.0
87.3474 10.0
87.4311 16.0
87.5148 14.0
87.5985 15.0
87.6822 10.0
87.7659 14.0
87.8496 13.0
87.9333 21.0
88.017 11.0
88.1007 11.0
88.1844 17.0
88.2682 4.0
88.3519 8.0
88.4356 10.0
88.5193 11.0
88.603 7.0
88.6867 10.0
88.7704 14.0
88.8541 8.0
88.9378 12.0
89.0215 9.0
89.1052 13.0
89.1889 10.0
89.2726 10.0
89.3563 14.0
89.44 10.0
89.5237 6.0
89.6074 10.0
89.6911 11.0
89.7749 8.0
89.8586 7.0
89.9423 17.0
90.026 15.0
90.1097 19.0
90.1934 14.0
90.2771 12.0
90.3608 10.0
90.4445 13.0
90.5282 8.0
90.6119 9.0
90.6956 9.0
90.7793 14.0
90.863 8.0
90.9467 12.0
91.0304 11.0
91.1141 11.0
91.1978 15.0
91.2816 17.0
91.3653 5.0
91.449 14.0
91.5327 14.0
91.6164 17.0
91.7001 12.0
91.7838 15.0
91.8675 12.0
91.9512 13.0
92.0349 14.0
92.1186 6.0
92.2023 13.0
92.286 8.0
92.3697 11.0
92.4534 12.0
92.5371 7.0
92.6208 15.0
92.7045 6.0
92.7883 16.0
92.872 12.0
92.9557 16.0
93.0394 20.0
93.1231 12.0
93.2068 8.0
93.2905 11.0
93.3742 10.0
93.4579 7.0
93.5416 10.0
93.6253 6.0
93.709 11.0
93.7927 10.0
93.8764 6.0
93.9601 8.0
94.0438 11.0
94.1275 9.0
94.2112 9.0
94.295 15.0
94.3787 10.0
94.4624 16.0
94.5461 8.0
94.6298 10.0
94.7135 13.0
94.7972 10.0
94.8809 14.0
94.9646 10.0
95.0483 7.0
95.132 4.0
95.2157 16.0
95.2994 3.0
95.3831 9.0
95.4668 8.0
95.5505 15.0
95.6342 12.0
95.7179 11.0
95.8017 15.0
95.8854 10.0
95.9691 11.0
96.0528 22.0
96.1365 12.0
96.2202 16.0
96.3039 9.0
96.3876 13.0
96.4713 16.0
96.555 10.0
96.6387 11.0
96.7224 12.0
96.8061 12.0
96.8898 12.0
96.9735 17.0
97.0572 16.0
97.1409 20.0
97.2246 5.0
97.3084 11.0
97.3921 12.0
97.4758 6.0
97.5595 12.0
97.6432 7.0
97.7269 8.0
97.8106 9.0
97.8943 16.0
97.978 14.0
98.0617 8.0
98.1454 14.0
98.2291 12.0
98.3128 8.0
98.3965 11.0
98.4802 9.0
98.5639 13.0
98.6476 13.0
98.7313 10.0
98.8151 17.0
98.8988 11.0
98.9825 12.0
99.0662 10.0
99.1499 15.0
99.2336 12.0
99.3173 5.0
99.401 15.0
99.4847 14.0
99.5684 18.0
99.6521 11.0
99.7358 8.0
99.8195 12.0
99.9032 8.0
99.9869 11.0
100.071 16.0
100.154 13.0
100.238 9.0
100.322 17.0
100.405 13.0
100.489 12.0
100.573 8.0
100.657 19.0
100.74 11.0
100.824 13.0
100.908 12.0
100.991 15.0
101.075 14.0
101.159 21.0
101.243 16.0
101.326 16.0
101.41 11.0
101.494 9.0
101.577 6.0
101.661 19.0
101.745 7.0
101.828 10.0
101.912 9.0
101.996 10.0
102.08 15.0
102.163 7.0
102.247 5.0
102.331 10.0
102.414 13.0
102.498 11.0
102.582 8.0
102.666 11.0
102.749 10.0
102.833 10.0
102.917 10.0
103 10.0
103.084 8.0
103.168 14.0
103.251 17.0
103.335 9.0
103.419 11.0
103.503 6.0
103.586 14.0
103.67 12.0
103.754 16.0
103.837 15.0
103.921 14.0
104.005 10.0
104.089 16.0
104.172 13.0
104.256 13.0
104.34 10.0
104.423 6.0
104.507 7.0
104.591 9.0
104.674 8.0
104.758 14.0
104.842 5.0
104.926 12.0
105.009 12.0
105.093 7.0
105.177 8.0
105.26 12.0
105.344 11.0
105.428 10.0
105.511 14.0
105.595 13.0
105.679 15.0
105.763 15.0
105.846 13.0
105.93 9.0
106.014 14.0
106.097 11.0
106.181 20.0
106.265 24.0
106.349 16.0
106.432 13.0
106.516 14.0
106.6 12.0
106.683 10.0
106.767 14.0
106.851 12.0
106.934 13.0
107.018 17.0
107.102 17.0
107.186 15.0
107.269 17.0
107.353 10.0
107.437 11.0
107.52 6.0
107.604 12.0
107.688 14.0
107.772 17.0
107.855 19.0
107.939 14.0
108.023 19.0
108.106 20.0
108.19 15.0
108.274 11.0
108.357 19.0
108.441 8.0
108.525 14.0
108.609 13.0
108.692 17.0
108.776 13.0
108.86 9.0
108.943 9.0
109.027 11.0
109.111 18.0
109.195 13.0
109.278 10.0
109.362 10.0
109.446 15.0
109.529 13.0
109.613 9.0
109.697 11.0
109.78 10.0
109.864 17.0
109.948 10.0
110.032 14.0
110.115 12.0
110.199 22.0
110.283 17.0
110.366 13.0
110.45 15.0
110.534 7.0
110.618 12.0
110.701 10.0
110.785 12.0
110.869 12.0
110.952 9.0
111.036 12.0
111.12 9.0
111.203 13.0
111.287 5.0
111.371 11.0
111.455 15.0
111.538 17.0
111.622 10.0
111.706 12.0
111.789 7.0
111.873 10.0
111.957 11.0
112.041 16.0
112.124 16.0
112.208 14.0
112.292 9.0
112.375 16.0
112.459 15.0
112.543 12.0
112.626 17.0
112.71 13.0
112.794 18.0
112.878 10.0
112.961 13.0
113.045 10.0
113.129 12.0
113.212 11.0
113.296 14.0
113.38 19.0
113.464 20.0
113.547 13.0
113.631 14.0
113.715 12.0
113.798 10.0
113.882 12.0
113.966 11.0
114.049 9.0
114.133 14.0
114.217 13.0
114.301 15.0
114.384 12.0
114.468 11.0
114.552 17.0
114.635 17.0
114.719 11.0
114.803 18.0
114.887 18.0
114.97 15.0
115.054 9.0
115.138 13.0
115.221 14.0
115.305 10.0
115.389 7.0
115.472 17.0
115.556 12.0
115.64 14.0
115.724 8.0
115.807 7.0
115.891 13.0
115.975 18.0
116.058 24.0
116.142 32.0
116.226 21.0
116.31 17.0
116.393 17.0
116.477 19.0
116.561 16.0
116.644 7.0
116.728 10.0
116.812 12.0
116.895 8.0
116.979 12.0
117.063 13.0
117.147 13.0
117.23 14.0
117.314 15.0
117.398 19.0
117.481 17.0
117.565 15.0
117.649 14.0
117.733 17.0
117.816 18.0
117.9 17.0
117.984 14.0
118.067 8.0
118.151 12.0
118.235 13.0
118.318 10.0
118.402 19.0
118.486 14.0
118.57 13.0
118.653 15.0
118.737 14.0
118.821 20.0
118.904 11.0
118.988 20.0
119.072 18.0
119.156 13.0
119.239 12.0
119.323 16.0
119.407 16.0
119.49 15.0
119.574 12.0
119.658 15.0
119.741 18.0
119.825 16.0
119.909 16.0
119.993 14.0
120.076 11.0
120.16 6.0
120.244 16.0
120.327 11.0
120.411 3.0
120.495 21.0
120.578 13.0
120.662 13.0
120.746 15.0
120.83 10.0
120.913 12.0
120.997 21.0
121.081 16.0
121.164 20.0
121.248 14.0
121.332 21.0
121.416 15.0
121.499 14.0
121.583 17.0
121.667 17.0
121.75 14.0
121.834 8.0
121.918 15.0
122.001 5.0
122.085 11.0
122.169 21.0
122.253 10.0
122.336 17.0
122.42 16.0
122.504 20.0
122.587 17.0
122.671 16.0
122.755 16.0
122.839 18.0
122.922 19.0
123.006 21.0
123.09 12.0
123.173 15.0
123.257 26.0
123.341 25.0
123.424 25.0
123.508 28.0
123.592 34.0
123.676 39.0
123.759 55.0
123.843 33.0
123.927 36.0
124.01 34.0
124.094 44.0
124.178 75.0
124.262 99.0
124.345 138.0
124.429 413.0
124.513 1499.0
124.596 6975.0
124.68 1693.0
124.764 479.0
124.847 265.0
124.931 268.0
125.015 483.0
125.099 2350.0
125.182 2179.0
125.266 527.0
125.35 177.0
125.433 108.0
125.517 79.0
125.601 58.0
125.685 44.0
125.768 43.0
125.852 44.0
125.936 30.0
126.019 26.0
126.103 26.0
126.187 32.0
126.27 34.0
126.354 22.0
126.438 30.0
126.522 27.0
126.605 32.0
126.689 26.0
126.773 32.0
126.856 19.0
126.94 19.0
127.024 28.0
127.108 27.0
127.191 28.0
127.275 20.0
127.359 17.0
127.442 25.0
127.526 24.0
127.61 24.0
127.693 13.0
127.777 24.0
127.861 28.0
127.945 15.0
128.028 25.0
128.112 20.0
128.196 17.0
128.279 13.0
128.363 14.0
128.447 14.0
128.531 21.0
128.614 12.0
128.698 15.0
128.782 17.0
128.865 20.0
128.949 12.0
129.033 16.0
129.116 22.0
129.2 20.0
129.284 22.0
129.368 14.0
129.451 19.0
129.535 18.0
129.619 12.0
129.702 22.0
129.786 23.0
129.87 16.0
129.954 14.0
129.998 19.0