File: data/W6788a/XRD_Omega/W6788a_Cr2O3_scan_omega_2deg_step_0.002deg0_17.xy
16.82550 3150.0
16.82750 3108.0
16.82950 3033.0
16.83150 3120.0
16.83350 3115.0
16.83550 3116.0
16.83750 3173.0
16.83950 3128.0
16.84150 3113.0
16.84350 3232.0
16.84550 3102.0
16.84750 3151.0
16.84950 3222.0
16.85150 3190.0
16.85350 3197.0
16.85550 3147.0
16.85750 3216.0
16.85950 3206.0
16.86150 3246.0
16.86350 3324.0
16.86550 3285.0
16.86750 3262.0
16.86950 3409.0
16.87150 3436.0
16.87350 3438.0
16.87550 3419.0
16.87750 3466.0
16.87950 3294.0
16.88150 3294.0
16.88350 3322.0
16.88550 3375.0
16.88750 3334.0
16.88950 3390.0
16.89150 3452.0
16.89350 3478.0
16.89550 3375.0
16.89750 3410.0
16.89950 3389.0
16.90150 3566.0
16.90350 3500.0
16.90550 3533.0
16.90750 3571.0
16.90950 3632.0
16.91150 3551.0
16.91350 3481.0
16.91550 3586.0
16.91750 3498.0
16.91950 3544.0
16.92150 3497.0
16.92350 3662.0
16.92550 3710.0
16.92750 3628.0
16.92950 3690.0
16.93150 3635.0
16.93350 3597.0
16.93550 3556.0
16.93750 3689.0
16.93950 3589.0
16.94150 3745.0
16.94350 3785.0
16.94550 3644.0
16.94750 3696.0
16.94950 3741.0
16.95150 3749.0
16.95350 3701.0
16.95550 3869.0
16.95750 3818.0
16.95950 3809.0
16.96150 3743.0
16.96350 3849.0
16.96550 3876.0
16.96750 3781.0
16.96950 3872.0
16.97150 3990.0
16.97350 3851.0
16.97550 4060.0
16.97750 3852.0
16.97950 4009.0
16.98150 4025.0
16.98350 4053.0
16.98550 3911.0
16.98750 4037.0
16.98950 4034.0
16.99150 4138.0
16.99350 4061.0
16.99550 4006.0
16.99750 4058.0
16.99950 4051.0
17.00150 4127.0
17.00350 4082.0
17.00550 4159.0
17.00750 4179.0
17.00950 4048.0
17.01150 4190.0
17.01350 4168.0
17.01550 4290.0
17.01750 4150.0
17.01950 4184.0
17.02150 4281.0
17.02350 4225.0
17.02550 4212.0
17.02750 4163.0
17.02950 4319.0
17.03150 4267.0
17.03350 4419.0
17.03550 4358.0
17.03750 4276.0
17.03950 4296.0
17.04150 4426.0
17.04350 4429.0
17.04550 4390.0
17.04750 4338.0
17.04950 4421.0
17.05150 4420.0
17.05350 4476.0
17.05550 4383.0
17.05750 4460.0
17.05950 4452.0
17.06150 4386.0
17.06350 4438.0
17.06550 4557.0
17.06750 4566.0
17.06950 4658.0
17.07150 4582.0
17.07350 4562.0
17.07550 4612.0
17.07750 4650.0
17.07950 4683.0
17.08150 4674.0
17.08350 4675.0
17.08550 4627.0
17.08750 4587.0
17.08950 4739.0
17.09150 4677.0
17.09350 4848.0
17.09550 4579.0
17.09750 4845.0
17.09950 4825.0
17.10150 4870.0
17.10350 4824.0
17.10550 4773.0
17.10750 4881.0
17.10950 4846.0
17.11150 4925.0
17.11350 4933.0
17.11550 4878.0
17.11750 5039.0
17.11950 4972.0
17.12150 5147.0
17.12350 5011.0
17.12550 4942.0
17.12750 5089.0
17.12950 4984.0
17.13150 5017.0
17.13350 5211.0
17.13550 5051.0
17.13750 5085.0
17.13950 4996.0
17.14150 5166.0
17.14350 5182.0
17.14550 5161.0
17.14750 5119.0
17.14950 5178.0
17.15150 5200.0
17.15350 5206.0
17.15550 5183.0
17.15750 5288.0
17.15950 5312.0
17.16150 5332.0
17.16350 5167.0
17.16550 5346.0
17.16750 5305.0
17.16950 5509.0
17.17150 5507.0
17.17350 5605.0
17.17550 5538.0
17.17750 5385.0
17.17950 5596.0
17.18150 5517.0
17.18350 5625.0
17.18550 5442.0
17.18750 5704.0
17.18950 5449.0
17.19150 5668.0
17.19350 5497.0
17.19550 5720.0
17.19750 5771.0
17.19950 5724.0
17.20150 5706.0
17.20350 5837.0
17.20550 5875.0
17.20750 5799.0
17.20950 5890.0
17.21150 5887.0
17.21350 5650.0
17.21550 5872.0
17.21750 5920.0
17.21950 5836.0
17.22150 5888.0
17.22350 6055.0
17.22550 5956.0
17.22750 5845.0
17.22950 6004.0
17.23150 6073.0
17.23350 6041.0
17.23550 6058.0
17.23750 6096.0
17.23950 6214.0
17.24150 6159.0
17.24350 6164.0
17.24550 6318.0
17.24750 6352.0
17.24950 6285.0
17.25150 6245.0
17.25350 6313.0
17.25550 6321.0
17.25750 6386.0
17.25950 6438.0
17.26150 6385.0
17.26350 6238.0
17.26550 6354.0
17.26750 6492.0
17.26950 6695.0
17.27150 6692.0
17.27350 6438.0
17.27550 6410.0
17.27750 6522.0
17.27950 6618.0
17.28150 6601.0
17.28350 6663.0
17.28550 6799.0
17.28750 6625.0
17.28950 6643.0
17.29150 6724.0
17.29350 6509.0
17.29550 6575.0
17.29750 6669.0
17.29950 6691.0
17.30150 6681.0
17.30350 6860.0
17.30550 6875.0
17.30750 6881.0
17.30950 6834.0
17.31150 6832.0
17.31350 6820.0
17.31550 6765.0
17.31750 6831.0
17.31950 7022.0
17.32150 6825.0
17.32350 6816.0
17.32550 7034.0
17.32750 6931.0
17.32950 6915.0
17.33150 7154.0
17.33350 7063.0
17.33550 6909.0
17.33750 7069.0
17.33950 7313.0
17.34150 7237.0
17.34350 7178.0
17.34550 7339.0
17.34750 7084.0
17.34950 7158.0
17.35150 7194.0
17.35350 7428.0
17.35550 7389.0
17.35750 7157.0
17.35950 7476.0
17.36150 7535.0
17.36350 7663.0
17.36550 7379.0
17.36750 7497.0
17.36950 7578.0
17.37150 7524.0
17.37350 7683.0
17.37550 7570.0
17.37750 7743.0
17.37950 7800.0
17.38150 7795.0
17.38350 7676.0
17.38550 7855.0
17.38750 7928.0
17.38950 7847.0
17.39150 7910.0
17.39350 7855.0
17.39550 7762.0
17.39750 7900.0
17.39950 8050.0
17.40150 7850.0
17.40350 7861.0
17.40550 8021.0
17.40750 7950.0
17.40950 8023.0
17.41150 7988.0
17.41350 7944.0
17.41550 8059.0
17.41750 8107.0
17.41950 8115.0
17.42150 8175.0
17.42350 8179.0
17.42550 8265.0
17.42750 8321.0
17.42950 8163.0
17.43150 8087.0
17.43350 8290.0
17.43550 8374.0
17.43750 8406.0
17.43950 8392.0
17.44150 8430.0
17.44350 8523.0
17.44550 8631.0
17.44750 8426.0
17.44950 8374.0
17.45150 8528.0
17.45350 8580.0
17.45550 8390.0
17.45750 8568.0
17.45950 8446.0
17.46150 8400.0
17.46350 8397.0
17.46550 8528.0
17.46750 8495.0
17.46950 8696.0
17.47150 8572.0
17.47350 8898.0
17.47550 8938.0
17.47750 8790.0
17.47950 8753.0
17.48150 8999.0
17.48350 9045.0
17.48550 9090.0
17.48750 8994.0
17.48950 9093.0
17.49150 9122.0
17.49350 8962.0
17.49550 9062.0
17.49750 9204.0
17.49950 9133.0
17.50150 9264.0
17.50350 9279.0
17.50550 9346.0
17.50750 9209.0
17.50950 9224.0
17.51150 9459.0
17.51350 9362.0
17.51550 9404.0
17.51750 9348.0
17.51950 9389.0
17.52150 9466.0
17.52350 9391.0
17.52550 9462.0
17.52750 9567.0
17.52950 9337.0
17.53150 9464.0
17.53350 9604.0
17.53550 9408.0
17.53750 9441.0
17.53950 9570.0
17.54150 9767.0
17.54350 9592.0
17.54550 9699.0
17.54750 9590.0
17.54950 9849.0
17.55150 9896.0
17.55350 9817.0
17.55550 9649.0
17.55750 9971.0
17.55950 9870.0
17.56150 9883.0
17.56350 9851.0
17.56550 10129.0
17.56750 10142.0
17.56950 10034.0
17.57150 10032.0
17.57350 10120.0
17.57550 10119.0
17.57750 10258.0
17.57950 10146.0
17.58150 10124.0
17.58350 10364.0
17.58550 10402.0
17.58750 10186.0
17.58950 10436.0
17.59150 10585.0
17.59350 10359.0
17.59550 10537.0
17.59750 10760.0
17.59950 10869.0
17.60150 10559.0
17.60350 10600.0
17.60550 10755.0
17.60750 10973.0
17.60950 10554.0
17.61150 10702.0
17.61350 10754.0
17.61550 10741.0
17.61750 10722.0
17.61950 11097.0
17.62150 11124.0
17.62350 11118.0
17.62550 11221.0
17.62750 11119.0
17.62950 11068.0
17.63150 11202.0
17.63350 11020.0
17.63550 11265.0
17.63750 11324.0
17.63950 11124.0
17.64150 11142.0
17.64350 11493.0
17.64550 11222.0
17.64750 11183.0
17.64950 11277.0
17.65150 11264.0
17.65350 11280.0
17.65550 11325.0
17.65750 11365.0
17.65950 11634.0
17.66150 11523.0
17.66350 11714.0
17.66550 11532.0
17.66750 11741.0
17.66950 11908.0
17.67150 11697.0
17.67350 11752.0
17.67550 11693.0
17.67750 11990.0
17.67950 11882.0
17.68150 12016.0
17.68350 11913.0
17.68550 11964.0
17.68750 11840.0
17.68950 11912.0
17.69150 11773.0
17.69350 12175.0
17.69550 11788.0
17.69750 12178.0
17.69950 12128.0
17.70150 12263.0
17.70350 12315.0
17.70550 12373.0
17.70750 12312.0
17.70950 12279.0
17.71150 12405.0
17.71350 12455.0
17.71550 12502.0
17.71750 12234.0
17.71950 12294.0
17.72150 12554.0
17.72350 12734.0
17.72550 12841.0
17.72750 12611.0
17.72950 12614.0
17.73150 12701.0
17.73350 12682.0
17.73550 12706.0
17.73750 12991.0
17.73950 12943.0
17.74150 12934.0
17.74350 12996.0
17.74550 12994.0
17.74750 13008.0
17.74950 13135.0
17.75150 13234.0
17.75350 13361.0
17.75550 13349.0
17.75750 13426.0
17.75950 13335.0
17.76150 13347.0
17.76350 13503.0
17.76550 13436.0
17.76750 13840.0
17.76950 13547.0
17.77150 13639.0
17.77350 13978.0
17.77550 13776.0
17.77750 13950.0
17.77950 13817.0
17.78150 13947.0
17.78350 14024.0
17.78550 13812.0
17.78750 14117.0
17.78950 13984.0
17.79150 14110.0
17.79350 14294.0
17.79550 14253.0
17.79750 14191.0
17.79950 14085.0
17.80150 14064.0
17.80350 14047.0
17.80550 13923.0
17.80750 14143.0
17.80950 13899.0
17.81150 13921.0
17.81350 14007.0
17.81550 13828.0
17.81750 13826.0
17.81950 14023.0
17.82150 13839.0
17.82350 13730.0
17.82550 13687.0
17.82750 13550.0
17.82950 13667.0
17.83150 13630.0
17.83350 13508.0
17.83550 13682.0
17.83750 13366.0
17.83950 13350.0
17.84150 13368.0
17.84350 13361.0
17.84550 13526.0
17.84750 13467.0
17.84950 13336.0
17.85150 13056.0
17.85350 12982.0
17.85550 13080.0
17.85750 13090.0
17.85950 12785.0
17.86150 12954.0
17.86350 12826.0
17.86550 12875.0
17.86750 12498.0
17.86950 12763.0
17.87150 12606.0
17.87350 12607.0
17.87550 12660.0
17.87750 12592.0
17.87950 12610.0
17.88150 12396.0
17.88350 12240.0
17.88550 12317.0
17.88750 12417.0
17.88950 12146.0
17.89150 12271.0
17.89350 12323.0
17.89550 12213.0
17.89750 12224.0
17.89950 12101.0
17.90150 12158.0
17.90350 12172.0
17.90550 12048.0
17.90750 11859.0
17.90950 11986.0
17.91150 11843.0
17.91350 11996.0
17.91550 11996.0
17.91750 12050.0
17.91950 11884.0
17.92150 11883.0
17.92350 11946.0
17.92550 12051.0
17.92750 11984.0
17.92950 11865.0
17.93150 11661.0
17.93350 11657.0
17.93550 11844.0
17.93750 11706.0
17.93950 11611.0
17.94150 11682.0
17.94350 11595.0
17.94550 11711.0
17.94750 11636.0
17.94950 11515.0
17.95150 11540.0
17.95350 11564.0
17.95550 11373.0
17.95750 11596.0
17.95950 11547.0
17.96150 11501.0
17.96350 11247.0
17.96550 11472.0
17.96750 11475.0
17.96950 11424.0
17.97150 11489.0
17.97350 11424.0
17.97550 11151.0
17.97750 11020.0
17.97950 11323.0
17.98150 11235.0
17.98350 11360.0
17.98550 11112.0
17.98750 11039.0
17.98950 11266.0
17.99150 10928.0
17.99350 11100.0
17.99550 11069.0
17.99750 11154.0
17.99950 10899.0
18.00150 11056.0
18.00350 11147.0
18.00550 11124.0
18.00750 11093.0
18.00950 10906.0
18.01150 11008.0
18.01350 10571.0
18.01550 11044.0
18.01750 10837.0
18.01950 10674.0
18.02150 10867.0
18.02350 10995.0
18.02550 11008.0
18.02750 10825.0
18.02950 10884.0
18.03150 10527.0
18.03350 10860.0
18.03550 10660.0
18.03750 10897.0
18.03950 10712.0
18.04150 10542.0
18.04350 10564.0
18.04550 10330.0
18.04750 10591.0
18.04950 10326.0
18.05150 10425.0
18.05350 10673.0
18.05550 10555.0
18.05750 10475.0
18.05950 10410.0
18.06150 10536.0
18.06350 10350.0
18.06550 10278.0
18.06750 10538.0
18.06950 10482.0
18.07150 10455.0
18.07350 10319.0
18.07550 10538.0
18.07750 10318.0
18.07950 10103.0
18.08150 10586.0
18.08350 10204.0
18.08550 10326.0
18.08750 10272.0
18.08950 10174.0
18.09150 10297.0
18.09350 10249.0
18.09550 10111.0
18.09750 10134.0
18.09950 9999.0
18.10150 10063.0
18.10350 10024.0
18.10550 9827.0
18.10750 9739.0
18.10950 9936.0
18.11150 9960.0
18.11350 9811.0
18.11550 9901.0
18.11750 9729.0
18.11950 9938.0
18.12150 9994.0
18.12350 9845.0
18.12550 9737.0
18.12750 9871.0
18.12950 9820.0
18.13150 9673.0
18.13350 9822.0
18.13550 9566.0
18.13750 9731.0
18.13950 9684.0
18.14150 9523.0
18.14350 9474.0
18.14550 9669.0
18.14750 9661.0
18.14950 9638.0
18.15150 9534.0
18.15350 9478.0
18.15550 9516.0
18.15750 9512.0
18.15950 9495.0
18.16150 9269.0
18.16350 9486.0
18.16550 9373.0
18.16750 9249.0
18.16950 9283.0
18.17150 9137.0
18.17350 9274.0
18.17550 9334.0
18.17750 9312.0
18.17950 9226.0
18.18150 9289.0
18.18350 9245.0
18.18550 9244.0
18.18750 9312.0
18.18950 9232.0
18.19150 9225.0
18.19350 9260.0
18.19550 8996.0
18.19750 9376.0
18.19950 9174.0
18.20150 9125.0
18.20350 9075.0
18.20550 8830.0
18.20750 9050.0
18.20950 8944.0
18.21150 8912.0
18.21350 9061.0
18.21550 8835.0
18.21750 8942.0
18.21950 8772.0
18.22150 8752.0
18.22350 8783.0
18.22550 8889.0
18.22750 8898.0
18.22950 8797.0
18.23150 8638.0
18.23350 8656.0
18.23550 8635.0
18.23750 8688.0
18.23950 8652.0
18.24150 8492.0
18.24350 8643.0
18.24550 8698.0
18.24750 8427.0
18.24950 8622.0
18.25150 8443.0
18.25350 8418.0
18.25550 8541.0
18.25750 8626.0
18.25950 8475.0
18.26150 8538.0
18.26350 8288.0
18.26550 8406.0
18.26750 8263.0
18.26950 8372.0
18.27150 8344.0
18.27350 8295.0
18.27550 8280.0
18.27750 8288.0
18.27950 8349.0
18.28150 8187.0
18.28350 8165.0
18.28550 8317.0
18.28750 8056.0
18.28950 8284.0
18.29150 8184.0
18.29350 8145.0
18.29550 8104.0
18.29750 7963.0
18.29950 8118.0
18.30150 8182.0
18.30350 8044.0
18.30550 8119.0
18.30750 8008.0
18.30950 8092.0
18.31150 7820.0
18.31350 7987.0
18.31550 7858.0
18.31750 8009.0
18.31950 7947.0
18.32150 7850.0
18.32350 7908.0
18.32550 7837.0
18.32750 7786.0
18.32950 7676.0
18.33150 7679.0
18.33350 7774.0
18.33550 7785.0
18.33750 7711.0
18.33950 7612.0
18.34150 7637.0
18.34350 7587.0
18.34550 7623.0
18.34750 7497.0
18.34950 7511.0
18.35150 7597.0
18.35350 7533.0
18.35550 7539.0
18.35750 7592.0
18.35950 7513.0
18.36150 7598.0
18.36350 7489.0
18.36550 7494.0
18.36750 7564.0
18.36950 7362.0
18.37150 7523.0
18.37350 7491.0
18.37550 7599.0
18.37750 7430.0
18.37950 7469.0
18.38150 7354.0
18.38350 7411.0
18.38550 7434.0
18.38750 7469.0
18.38950 7245.0
18.39150 7336.0
18.39350 7502.0
18.39550 7333.0
18.39750 7410.0
18.39950 7261.0
18.40150 7216.0
18.40350 7328.0
18.40550 7294.0
18.40750 7235.0
18.40950 7184.0
18.41150 7262.0
18.41350 7224.0
18.41550 7182.0
18.41750 7287.0
18.41950 7190.0
18.42150 7240.0
18.42350 7192.0
18.42550 7167.0
18.42750 7106.0
18.42950 6988.0
18.43150 7113.0
18.43350 7022.0
18.43550 7128.0
18.43750 6938.0
18.43950 7068.0
18.44150 6955.0
18.44350 7044.0
18.44550 7099.0
18.44750 7165.0
18.44950 6978.0
18.45150 6920.0
18.45350 6940.0
18.45550 7009.0
18.45750 6859.0
18.45950 6854.0
18.46150 6854.0
18.46350 6684.0
18.46550 6615.0
18.46750 6415.0
18.46950 6406.0
18.47150 6450.0
18.47350 6271.0
18.47550 6241.0
18.47750 6107.0
18.47950 6069.0
18.48150 5927.0
18.48350 5874.0
18.48550 5882.0
18.48750 5901.0
18.48950 5911.0
18.49150 5810.0
18.49350 5682.0
18.49550 5734.0
18.49750 5698.0
18.49950 5688.0
18.50150 5700.0
18.50350 5531.0
18.50550 5578.0
18.50750 5703.0
18.50950 5704.0
18.51150 5529.0
18.51350 5547.0
18.51550 5436.0
18.51750 5453.0
18.51950 5581.0
18.52150 5490.0
18.52350 5395.0
18.52550 5486.0
18.52750 5494.0
18.52950 5505.0
18.53150 5516.0
18.53350 5505.0
18.53550 5521.0
18.53750 5463.0
18.53950 5434.0
18.54150 5285.0
18.54350 5375.0
18.54550 5203.0
18.54750 5282.0
18.54950 5242.0
18.55150 5147.0
18.55350 5274.0
18.55550 5149.0
18.55750 5252.0
18.55950 5259.0
18.56150 4991.0
18.56350 5229.0
18.56550 5293.0
18.56750 5090.0
18.56950 5289.0
18.57150 4999.0
18.57350 5139.0
18.57550 5030.0
18.57750 5081.0
18.57950 4934.0
18.58150 4989.0
18.58350 5017.0
18.58550 4995.0
18.58750 4909.0
18.58950 4915.0
18.59150 5034.0
18.59350 5066.0
18.59550 4854.0
18.59750 4780.0
18.59950 4953.0
18.60150 4953.0
18.60350 4807.0
18.60550 4769.0
18.60750 4776.0
18.60950 4748.0
18.61150 4593.0
18.61350 4816.0
18.61550 4664.0
18.61750 4731.0
18.61950 4823.0
18.62150 4709.0
18.62350 4634.0
18.62550 4737.0
18.62750 4568.0
18.62950 4636.0
18.63150 4581.0
18.63350 4438.0
18.63550 4531.0
18.63750 4669.0
18.63950 4517.0
18.64150 4483.0
18.64350 4539.0
18.64550 4514.0
18.64750 4518.0
18.64950 4397.0
18.65150 4496.0
18.65350 4465.0
18.65550 4374.0
18.65750 4440.0
18.65950 4305.0
18.66150 4486.0
18.66350 4516.0
18.66550 4469.0
18.66750 4437.0
18.66950 4378.0
18.67150 4313.0
18.67350 4540.0
18.67550 4320.0
18.67750 4301.0
18.67950 4317.0
18.68150 4331.0
18.68350 4338.0
18.68550 4304.0
18.68750 4280.0
18.68950 4177.0
18.69150 4232.0
18.69350 4181.0
18.69550 4234.0
18.69750 4138.0
18.69950 4104.0
18.70150 4138.0
18.70350 4272.0
18.70550 4145.0
18.70750 4127.0
18.70950 4131.0
18.71150 4102.0
18.71350 4166.0
18.71550 4185.0
18.71750 4144.0
18.71950 4036.0
18.72150 4084.0
18.72350 4084.0
18.72550 3979.0
18.72750 3970.0
18.72950 3965.0
18.73150 4038.0
18.73350 3933.0
18.73550 4034.0
18.73750 3983.0
18.73950 3949.0
18.74150 3822.0
18.74350 3947.0
18.74550 3808.0
18.74750 3832.0
18.74950 3776.0
18.75150 3879.0
18.75350 3763.0
18.75550 3810.0
18.75750 3874.0
18.75950 3800.0
18.76150 3669.0
18.76350 3643.0
18.76550 3723.0
18.76750 3701.0
18.76950 3588.0
18.77150 3696.0
18.77350 3716.0
18.77550 3700.0
18.77750 3627.0
18.77950 3645.0
18.78150 3755.0
18.78350 3629.0
18.78550 3704.0
18.78750 3544.0
18.78950 3686.0
18.79150 3620.0
18.79350 3507.0
18.79550 3512.0
18.79750 3557.0
18.79950 3490.0
18.80150 3568.0
18.80350 3530.0
18.80550 3575.0
18.80750 3512.0
18.80950 3542.0