File: data/W6783r/XRD_2ThetaOmega/W6783r_absolute_2th-om_10-130deg_PIXscan_17min_6.xy
10.0035 27.0
10.0872 30.0
10.1709 24.0
10.2546 25.0
10.3383 30.0
10.422 22.0
10.5057 26.0
10.5894 22.0
10.6731 19.0
10.7568 26.0
10.8405 18.0
10.9242 25.0
11.0079 13.0
11.0916 25.0
11.1753 23.0
11.259 28.0
11.3428 18.0
11.4265 26.0
11.5102 16.0
11.5939 14.0
11.6776 26.0
11.7613 21.0
11.845 22.0
11.9287 20.0
12.0124 18.0
12.0961 20.0
12.1798 21.0
12.2635 20.0
12.3472 27.0
12.4309 24.0
12.5146 18.0
12.5983 17.0
12.682 17.0
12.7657 23.0
12.8495 13.0
12.9332 24.0
13.0169 15.0
13.1006 19.0
13.1843 27.0
13.268 15.0
13.3517 21.0
13.4354 18.0
13.5191 19.0
13.6028 18.0
13.6865 21.0
13.7702 27.0
13.8539 12.0
13.9376 21.0
14.0213 28.0
14.105 25.0
14.1887 26.0
14.2724 21.0
14.3562 27.0
14.4399 20.0
14.5236 20.0
14.6073 23.0
14.691 21.0
14.7747 25.0
14.8584 16.0
14.9421 22.0
15.0258 9.0
15.1095 19.0
15.1932 21.0
15.2769 21.0
15.3606 28.0
15.4443 24.0
15.528 19.0
15.6117 18.0
15.6954 18.0
15.7791 15.0
15.8629 15.0
15.9466 26.0
16.0303 22.0
16.114 14.0
16.1977 14.0
16.2814 16.0
16.3651 27.0
16.4488 13.0
16.5325 18.0
16.6162 16.0
16.6999 11.0
16.7836 26.0
16.8673 19.0
16.951 29.0
17.0347 22.0
17.1184 30.0
17.2021 22.0
17.2858 23.0
17.3696 15.0
17.4533 18.0
17.537 23.0
17.6207 20.0
17.7044 33.0
17.7881 19.0
17.8718 13.0
17.9555 23.0
18.0392 15.0
18.1229 12.0
18.2066 20.0
18.2903 20.0
18.374 19.0
18.4577 11.0
18.5414 17.0
18.6251 17.0
18.7088 18.0
18.7925 12.0
18.8763 26.0
18.96 16.0
19.0437 23.0
19.1274 16.0
19.2111 14.0
19.2948 12.0
19.3785 18.0
19.4622 18.0
19.5459 10.0
19.6296 21.0
19.7133 20.0
19.797 10.0
19.8807 6.0
19.9644 15.0
20.0481 12.0
20.1318 18.0
20.2155 11.0
20.2992 15.0
20.383 26.0
20.4667 13.0
20.5504 16.0
20.6341 13.0
20.7178 9.0
20.8015 17.0
20.8852 14.0
20.9689 15.0
21.0526 12.0
21.1363 22.0
21.22 17.0
21.3037 11.0
21.3874 16.0
21.4711 17.0
21.5548 12.0
21.6385 17.0
21.7222 20.0
21.8059 12.0
21.8897 17.0
21.9734 6.0
22.0571 18.0
22.1408 19.0
22.2245 24.0
22.3082 8.0
22.3919 12.0
22.4756 13.0
22.5593 16.0
22.643 16.0
22.7267 15.0
22.8104 17.0
22.8941 15.0
22.9778 21.0
23.0615 43.0
23.1452 16.0
23.2289 28.0
23.3126 15.0
23.3964 17.0
23.4801 29.0
23.5638 22.0
23.6475 28.0
23.7312 27.0
23.8149 25.0
23.8986 34.0
23.9823 37.0
24.066 48.0
24.1497 68.0
24.2334 119.0
24.3171 104.0
24.4008 193.0
24.4845 214.0
24.5682 92.0
24.6519 96.0
24.7356 56.0
24.8193 42.0
24.9031 53.0
24.9868 56.0
25.0705 93.0
25.1542 82.0
25.2379 112.0
25.3216 165.0
25.4053 636.0
25.489 5596.0
25.5727 23307.0
25.6564 1285.0
25.7401 381.0
25.8238 271.0
25.9075 214.0
25.9912 167.0
26.0749 140.0
26.1586 105.0
26.2423 82.0
26.326 59.0
26.4098 49.0
26.4935 27.0
26.5772 40.0
26.6609 40.0
26.7446 26.0
26.8283 29.0
26.912 32.0
26.9957 35.0
27.0794 16.0
27.1631 24.0
27.2468 26.0
27.3305 19.0
27.4142 19.0
27.4979 27.0
27.5816 29.0
27.6653 16.0
27.749 17.0
27.8327 17.0
27.9165 14.0
28.0002 11.0
28.0839 20.0
28.1676 18.0
28.2513 17.0
28.335 15.0
28.4187 16.0
28.5024 13.0
28.5861 15.0
28.6698 16.0
28.7535 11.0
28.8372 8.0
28.9209 17.0
29.0046 12.0
29.0883 15.0
29.172 16.0
29.2557 14.0
29.3394 18.0
29.4232 12.0
29.5069 14.0
29.5906 13.0
29.6743 16.0
29.758 17.0
29.8417 12.0
29.9254 9.0
30.0091 8.0
30.0928 19.0
30.1765 16.0
30.2602 12.0
30.3439 10.0
30.4276 13.0
30.5113 14.0
30.595 14.0
30.6787 14.0
30.7624 19.0
30.8461 13.0
30.9298 20.0
31.0136 18.0
31.0973 17.0
31.181 17.0
31.2647 14.0
31.3484 12.0
31.4321 19.0
31.5158 13.0
31.5995 10.0
31.6832 8.0
31.7669 17.0
31.8506 20.0
31.9343 19.0
32.018 13.0
32.1017 15.0
32.1854 13.0
32.2691 10.0
32.3528 20.0
32.4365 14.0
32.5203 13.0
32.604 9.0
32.6877 19.0
32.7714 7.0
32.8551 13.0
32.9388 11.0
33.0225 12.0
33.1062 8.0
33.1899 15.0
33.2736 8.0
33.3573 6.0
33.441 11.0
33.5247 10.0
33.6084 14.0
33.6921 16.0
33.7758 13.0
33.8595 9.0
33.9432 7.0
34.027 15.0
34.1107 14.0
34.1944 5.0
34.2781 7.0
34.3618 9.0
34.4455 12.0
34.5292 14.0
34.6129 9.0
34.6966 14.0
34.7803 10.0
34.864 10.0
34.9477 3.0
35.0314 14.0
35.1151 16.0
35.1988 14.0
35.2825 16.0
35.3662 8.0
35.4499 9.0
35.5337 12.0
35.6174 11.0
35.7011 11.0
35.7848 10.0
35.8685 15.0
35.9522 10.0
36.0359 6.0
36.1196 8.0
36.2033 16.0
36.287 12.0
36.3707 8.0
36.4544 14.0
36.5381 12.0
36.6218 11.0
36.7055 15.0
36.7892 10.0
36.8729 15.0
36.9566 12.0
37.0404 13.0
37.1241 14.0
37.2078 14.0
37.2915 10.0
37.3752 13.0
37.4589 5.0
37.5426 12.0
37.6263 8.0
37.71 18.0
37.7937 19.0
37.8774 15.0
37.9611 22.0
38.0448 9.0
38.1285 12.0
38.2122 4.0
38.2959 12.0
38.3796 16.0
38.4633 15.0
38.5471 9.0
38.6308 17.0
38.7145 18.0
38.7982 15.0
38.8819 14.0
38.9656 8.0
39.0493 11.0
39.133 16.0
39.2167 10.0
39.3004 11.0
39.3841 11.0
39.4678 14.0
39.5515 13.0
39.6352 14.0
39.7189 12.0
39.8026 11.0
39.8863 10.0
39.97 10.0
40.0538 10.0
40.1375 11.0
40.2212 16.0
40.3049 12.0
40.3886 14.0
40.4723 17.0
40.556 7.0
40.6397 9.0
40.7234 12.0
40.8071 12.0
40.8908 13.0
40.9745 10.0
41.0582 18.0
41.1419 11.0
41.2256 12.0
41.3093 11.0
41.393 9.0
41.4767 11.0
41.5605 15.0
41.6442 13.0
41.7279 10.0
41.8116 16.0
41.8953 12.0
41.979 13.0
42.0627 14.0
42.1464 11.0
42.2301 13.0
42.3138 11.0
42.3975 13.0
42.4812 16.0
42.5649 9.0
42.6486 18.0
42.7323 9.0
42.816 13.0
42.8997 23.0
42.9834 13.0
43.0672 19.0
43.1509 17.0
43.2346 14.0
43.3183 7.0
43.402 16.0
43.4857 17.0
43.5694 15.0
43.6531 14.0
43.7368 12.0
43.8205 12.0
43.9042 14.0
43.9879 13.0
44.0716 16.0
44.1553 14.0
44.239 22.0
44.3227 26.0
44.4064 22.0
44.4901 27.0
44.5739 24.0
44.6576 14.0
44.7413 15.0
44.825 9.0
44.9087 16.0
44.9924 11.0
45.0761 15.0
45.1598 10.0
45.2435 17.0
45.3272 19.0
45.4109 6.0
45.4946 8.0
45.5783 20.0
45.662 15.0
45.7457 16.0
45.8294 20.0
45.9131 20.0
45.9968 12.0
46.0806 13.0
46.1643 15.0
46.248 11.0
46.3317 14.0
46.4154 11.0
46.4991 13.0
46.5828 15.0
46.6665 15.0
46.7502 17.0
46.8339 14.0
46.9176 14.0
47.0013 13.0
47.085 58.0
47.1687 55.0
47.2524 23.0
47.3361 21.0
47.4198 19.0
47.5035 18.0
47.5873 21.0
47.671 14.0
47.7547 15.0
47.8384 20.0
47.9221 17.0
48.0058 18.0
48.0895 16.0
48.1732 13.0
48.2569 14.0
48.3406 14.0
48.4243 20.0
48.508 16.0
48.5917 21.0
48.6754 24.0
48.7591 18.0
48.8428 17.0
48.9265 17.0
49.0102 14.0
49.094 25.0
49.1777 20.0
49.2614 11.0
49.3451 15.0
49.4288 23.0
49.5125 28.0
49.5962 35.0
49.6799 35.0
49.7636 51.0
49.8473 53.0
49.931 48.0
50.0147 62.0
50.0984 89.0
50.1821 263.0
50.2658 46.0
50.3495 39.0
50.4332 38.0
50.5169 32.0
50.6007 53.0
50.6844 25.0
50.7681 23.0
50.8518 28.0
50.9355 26.0
51.0192 23.0
51.1029 23.0
51.1866 29.0
51.2703 34.0
51.354 27.0
51.4377 24.0
51.5214 36.0
51.6051 36.0
51.6888 41.0
51.7725 47.0
51.8562 64.0
51.9399 65.0
52.0236 89.0
52.1074 111.0
52.1911 172.0
52.2748 504.0
52.3585 602.0
52.4422 2978.0
52.5259 38125.0
52.6096 8269.0
52.6933 5021.0
52.777 640.0
52.8607 349.0
52.9444 225.0
53.0281 174.0
53.1118 140.0
53.1955 133.0
53.2792 125.0
53.3629 110.0
53.4466 104.0
53.5303 92.0
53.6141 77.0
53.6978 66.0
53.7815 76.0
53.8652 70.0
53.9489 55.0
54.0326 30.0
54.1163 52.0
54.2 48.0
54.2837 35.0
54.3674 32.0
54.4511 27.0
54.5348 30.0
54.6185 23.0
54.7022 18.0
54.7859 21.0
54.8696 29.0
54.9533 27.0
55.037 21.0
55.1208 21.0
55.2045 16.0
55.2882 13.0
55.3719 11.0
55.4556 23.0
55.5393 20.0
55.623 14.0
55.7067 17.0
55.7904 14.0
55.8741 20.0
55.9578 19.0
56.0415 18.0
56.1252 13.0
56.2089 20.0
56.2926 14.0
56.3763 13.0
56.46 14.0
56.5437 13.0
56.6275 10.0
56.7112 16.0
56.7949 12.0
56.8786 13.0
56.9623 15.0
57.046 12.0
57.1297 16.0
57.2134 11.0
57.2971 15.0
57.3808 17.0
57.4645 19.0
57.5482 25.0
57.6319 14.0
57.7156 19.0
57.7993 10.0
57.883 16.0
57.9667 13.0
58.0504 16.0
58.1342 18.0
58.2179 9.0
58.3016 11.0
58.3853 16.0
58.469 15.0
58.5527 12.0
58.6364 18.0
58.7201 9.0
58.8038 12.0
58.8875 14.0
58.9712 9.0
59.0549 15.0
59.1386 10.0
59.2223 13.0
59.306 9.0
59.3897 12.0
59.4734 22.0
59.5571 15.0
59.6409 13.0
59.7246 12.0
59.8083 19.0
59.892 13.0
59.9757 10.0
60.0594 10.0
60.1431 20.0
60.2268 14.0
60.3105 7.0
60.3942 17.0
60.4779 14.0
60.5616 17.0
60.6453 17.0
60.729 16.0
60.8127 13.0
60.8964 13.0
60.9801 9.0
61.0638 12.0
61.1476 17.0
61.2313 11.0
61.315 12.0
61.3987 15.0
61.4824 12.0
61.5661 16.0
61.6498 4.0
61.7335 15.0
61.8172 12.0
61.9009 13.0
61.9846 12.0
62.0683 13.0
62.152 11.0
62.2357 9.0
62.3194 11.0
62.4031 20.0
62.4868 13.0
62.5705 11.0
62.6543 12.0
62.738 15.0
62.8217 16.0
62.9054 18.0
62.9891 19.0
63.0728 11.0
63.1565 7.0
63.2402 10.0
63.3239 11.0
63.4076 10.0
63.4913 15.0
63.575 8.0
63.6587 12.0
63.7424 10.0
63.8261 15.0
63.9098 10.0
63.9935 13.0
64.0772 11.0
64.161 9.0
64.2447 14.0
64.3284 15.0
64.4121 19.0
64.4958 13.0
64.5795 9.0
64.6632 12.0
64.7469 14.0
64.8306 23.0
64.9143 10.0
64.998 14.0
65.0817 16.0
65.1654 18.0
65.2491 11.0
65.3328 16.0
65.4165 14.0
65.5002 16.0
65.5839 12.0
65.6677 16.0
65.7514 14.0
65.8351 12.0
65.9188 13.0
66.0025 8.0
66.0862 10.0
66.1699 17.0
66.2536 14.0
66.3373 12.0
66.421 7.0
66.5047 14.0
66.5884 22.0
66.6721 9.0
66.7558 14.0
66.8395 14.0
66.9232 14.0
67.0069 16.0
67.0906 7.0
67.1744 11.0
67.2581 15.0
67.3418 10.0
67.4255 12.0
67.5092 15.0
67.5929 15.0
67.6766 9.0
67.7603 12.0
67.844 16.0
67.9277 14.0
68.0114 19.0
68.0951 17.0
68.1788 12.0
68.2625 11.0
68.3462 11.0
68.4299 12.0
68.5136 11.0
68.5973 11.0
68.6811 15.0
68.7648 16.0
68.8485 15.0
68.9322 15.0
69.0159 6.0
69.0996 7.0
69.1833 16.0
69.267 14.0
69.3507 13.0
69.4344 8.0
69.5181 15.0
69.6018 11.0
69.6855 9.0
69.7692 3.0
69.8529 9.0
69.9366 13.0
70.0203 12.0
70.104 6.0
70.1878 17.0
70.2715 13.0
70.3552 9.0
70.4389 10.0
70.5226 11.0
70.6063 9.0
70.69 8.0
70.7737 7.0
70.8574 10.0
70.9411 11.0
71.0248 12.0
71.1085 9.0
71.1922 10.0
71.2759 9.0
71.3596 15.0
71.4433 13.0
71.527 8.0
71.6107 7.0
71.6945 14.0
71.7782 8.0
71.8619 8.0
71.9456 8.0
72.0293 9.0
72.113 6.0
72.1967 14.0
72.2804 8.0
72.3641 19.0
72.4478 9.0
72.5315 19.0
72.6152 6.0
72.6989 20.0
72.7826 15.0
72.8663 8.0
72.95 21.0
73.0337 11.0
73.1174 11.0
73.2012 11.0
73.2849 14.0
73.3686 13.0
73.4523 6.0
73.536 8.0
73.6197 18.0
73.7034 18.0
73.7871 9.0
73.8708 10.0
73.9545 16.0
74.0382 11.0
74.1219 14.0
74.2056 17.0
74.2893 18.0
74.373 10.0
74.4567 12.0
74.5404 15.0
74.6241 11.0
74.7079 14.0
74.7916 7.0
74.8753 11.0
74.959 6.0
75.0427 13.0
75.1264 8.0
75.2101 18.0
75.2938 10.0
75.3775 18.0
75.4612 14.0
75.5449 12.0
75.6286 11.0
75.7123 13.0
75.796 7.0
75.8797 11.0
75.9634 17.0
76.0471 19.0
76.1308 12.0
76.2146 10.0
76.2983 14.0
76.382 9.0
76.4657 13.0
76.5494 10.0
76.6331 9.0
76.7168 10.0
76.8005 13.0
76.8842 20.0
76.9679 12.0
77.0516 12.0
77.1353 21.0
77.219 9.0
77.3027 11.0
77.3864 7.0
77.4701 13.0
77.5538 10.0
77.6375 10.0
77.7213 16.0
77.805 12.0
77.8887 10.0
77.9724 11.0
78.0561 17.0
78.1398 14.0
78.2235 17.0
78.3072 19.0
78.3909 15.0
78.4746 11.0
78.5583 10.0
78.642 9.0
78.7257 13.0
78.8094 17.0
78.8931 15.0
78.9768 20.0
79.0605 19.0
79.1442 17.0
79.228 12.0
79.3117 22.0
79.3954 10.0
79.4791 10.0
79.5628 15.0
79.6465 12.0
79.7302 12.0
79.8139 14.0
79.8976 10.0
79.9813 15.0
80.065 19.0
80.1487 13.0
80.2324 15.0
80.3161 12.0
80.3998 10.0
80.4835 11.0
80.5672 11.0
80.6509 16.0
80.7347 14.0
80.8184 13.0
80.9021 10.0
80.9858 13.0
81.0695 17.0
81.1532 20.0
81.2369 8.0
81.3206 19.0
81.4043 15.0
81.488 14.0
81.5717 16.0
81.6554 11.0
81.7391 8.0
81.8228 19.0
81.9065 14.0
81.9902 15.0
82.0739 20.0
82.1576 12.0
82.2414 25.0
82.3251 16.0
82.4088 13.0
82.4925 20.0
82.5762 12.0
82.6599 26.0
82.7436 15.0
82.8273 21.0
82.911 26.0
82.9947 29.0
83.0784 103.0
83.1621 1761.0
83.2458 336.0
83.3295 110.0
83.4132 862.0
83.4969 174.0
83.5806 40.0
83.6643 32.0
83.7481 22.0
83.8318 24.0
83.9155 19.0
83.9992 16.0
84.0829 15.0
84.1666 20.0
84.2503 25.0
84.334 21.0
84.4177 11.0
84.5014 11.0
84.5851 14.0
84.6688 14.0
84.7525 21.0
84.8362 15.0
84.9199 12.0
85.0036 15.0
85.0873 12.0
85.171 11.0
85.2548 19.0
85.3385 12.0
85.4222 9.0
85.5059 21.0
85.5896 12.0
85.6733 19.0
85.757 15.0
85.8407 17.0
85.9244 15.0
86.0081 9.0
86.0918 21.0
86.1755 13.0
86.2592 19.0
86.3429 12.0
86.4266 10.0
86.5103 12.0
86.594 15.0
86.6777 19.0
86.7615 10.0
86.8452 13.0
86.9289 15.0
87.0126 16.0
87.0963 10.0
87.18 11.0
87.2637 11.0
87.3474 8.0
87.4311 13.0
87.5148 14.0
87.5985 8.0
87.6822 22.0
87.7659 13.0
87.8496 11.0
87.9333 7.0
88.017 10.0
88.1007 8.0
88.1844 11.0
88.2682 11.0
88.3519 17.0
88.4356 16.0
88.5193 15.0
88.603 9.0
88.6867 15.0
88.7704 17.0
88.8541 22.0
88.9378 11.0
89.0215 14.0
89.1052 10.0
89.1889 14.0
89.2726 16.0
89.3563 11.0
89.44 11.0
89.5237 17.0
89.6074 12.0
89.6911 8.0
89.7749 13.0
89.8586 9.0
89.9423 8.0
90.026 16.0
90.1097 11.0
90.1934 11.0
90.2771 19.0
90.3608 9.0
90.4445 16.0
90.5282 14.0
90.6119 11.0
90.6956 5.0
90.7793 12.0
90.863 9.0
90.9467 12.0
91.0304 18.0
91.1141 12.0
91.1978 8.0
91.2816 15.0
91.3653 11.0
91.449 14.0
91.5327 9.0
91.6164 11.0
91.7001 5.0
91.7838 14.0
91.8675 17.0
91.9512 7.0
92.0349 14.0
92.1186 14.0
92.2023 9.0
92.286 15.0
92.3697 18.0
92.4534 9.0
92.5371 11.0
92.6208 12.0
92.7045 17.0
92.7883 13.0
92.872 18.0
92.9557 18.0
93.0394 6.0
93.1231 17.0
93.2068 12.0
93.2905 14.0
93.3742 10.0
93.4579 11.0
93.5416 10.0
93.6253 18.0
93.709 16.0
93.7927 18.0
93.8764 13.0
93.9601 15.0
94.0438 15.0
94.1275 16.0
94.2112 10.0
94.295 12.0
94.3787 16.0
94.4624 14.0
94.5461 12.0
94.6298 14.0
94.7135 6.0
94.7972 12.0
94.8809 22.0
94.9646 8.0
95.0483 7.0
95.132 15.0
95.2157 21.0
95.2994 12.0
95.3831 13.0
95.4668 14.0
95.5505 5.0
95.6342 15.0
95.7179 11.0
95.8017 9.0
95.8854 5.0
95.9691 9.0
96.0528 19.0
96.1365 10.0
96.2202 12.0
96.3039 6.0
96.3876 14.0
96.4713 11.0
96.555 10.0
96.6387 14.0
96.7224 9.0
96.8061 9.0
96.8898 19.0
96.9735 15.0
97.0572 8.0
97.1409 16.0
97.2246 12.0
97.3084 16.0
97.3921 14.0
97.4758 6.0
97.5595 6.0
97.6432 6.0
97.7269 13.0
97.8106 9.0
97.8943 10.0
97.978 11.0
98.0617 16.0
98.1454 10.0
98.2291 8.0
98.3128 16.0
98.3965 14.0
98.4802 22.0
98.5639 11.0
98.6476 18.0
98.7313 9.0
98.8151 6.0
98.8988 13.0
98.9825 10.0
99.0662 9.0
99.1499 18.0
99.2336 17.0
99.3173 10.0
99.401 12.0
99.4847 6.0
99.5684 13.0
99.6521 11.0
99.7358 12.0
99.8195 9.0
99.9032 9.0
99.9869 10.0
100.071 16.0
100.154 8.0
100.238 8.0
100.322 15.0
100.405 6.0
100.489 8.0
100.573 10.0
100.657 12.0
100.74 14.0
100.824 15.0
100.908 13.0
100.991 7.0
101.075 5.0
101.159 18.0
101.243 13.0
101.326 10.0
101.41 16.0
101.494 8.0
101.577 15.0
101.661 19.0
101.745 5.0
101.828 16.0
101.912 14.0
101.996 14.0
102.08 9.0
102.163 12.0
102.247 13.0
102.331 11.0
102.414 10.0
102.498 15.0
102.582 13.0
102.666 10.0
102.749 18.0
102.833 10.0
102.917 9.0
103 13.0
103.084 14.0
103.168 7.0
103.251 8.0
103.335 15.0
103.419 15.0
103.503 16.0
103.586 16.0
103.67 13.0
103.754 10.0
103.837 12.0
103.921 23.0
104.005 12.0
104.089 14.0
104.172 13.0
104.256 11.0
104.34 17.0
104.423 14.0
104.507 14.0
104.591 18.0
104.674 15.0
104.758 10.0
104.842 15.0
104.926 11.0
105.009 20.0
105.093 13.0
105.177 8.0
105.26 10.0
105.344 6.0
105.428 13.0
105.511 16.0
105.595 21.0
105.679 12.0
105.763 12.0
105.846 9.0
105.93 8.0
106.014 7.0
106.097 15.0
106.181 24.0
106.265 25.0
106.349 22.0
106.432 14.0
106.516 25.0
106.6 14.0
106.683 12.0
106.767 18.0
106.851 7.0
106.934 15.0
107.018 12.0
107.102 15.0
107.186 6.0
107.269 23.0
107.353 7.0
107.437 12.0
107.52 17.0
107.604 13.0
107.688 9.0
107.772 15.0
107.855 15.0
107.939 10.0
108.023 14.0
108.106 17.0
108.19 14.0
108.274 10.0
108.357 11.0
108.441 13.0
108.525 17.0
108.609 13.0
108.692 11.0
108.776 11.0
108.86 17.0
108.943 7.0
109.027 13.0
109.111 11.0
109.195 14.0
109.278 11.0
109.362 14.0
109.446 16.0
109.529 18.0
109.613 13.0
109.697 17.0
109.78 17.0
109.864 6.0
109.948 14.0
110.032 9.0
110.115 11.0
110.199 10.0
110.283 12.0
110.366 17.0
110.45 16.0
110.534 14.0
110.618 9.0
110.701 12.0
110.785 9.0
110.869 11.0
110.952 9.0
111.036 9.0
111.12 7.0
111.203 12.0
111.287 12.0
111.371 12.0
111.455 15.0
111.538 19.0
111.622 9.0
111.706 4.0
111.789 16.0
111.873 20.0
111.957 15.0
112.041 15.0
112.124 14.0
112.208 16.0
112.292 5.0
112.375 17.0
112.459 16.0
112.543 16.0
112.626 13.0
112.71 14.0
112.794 14.0
112.878 15.0
112.961 15.0
113.045 8.0
113.129 17.0
113.212 11.0
113.296 9.0
113.38 14.0
113.464 14.0
113.547 3.0
113.631 18.0
113.715 16.0
113.798 17.0
113.882 17.0
113.966 5.0
114.049 10.0
114.133 12.0
114.217 10.0
114.301 15.0
114.384 12.0
114.468 12.0
114.552 14.0
114.635 17.0
114.719 20.0
114.803 12.0
114.887 15.0
114.97 12.0
115.054 14.0
115.138 17.0
115.221 12.0
115.305 8.0
115.389 15.0
115.472 13.0
115.556 20.0
115.64 13.0
115.724 9.0
115.807 18.0
115.891 17.0
115.975 27.0
116.058 38.0
116.142 24.0
116.226 23.0
116.31 30.0
116.393 8.0
116.477 10.0
116.561 19.0
116.644 14.0
116.728 11.0
116.812 12.0
116.895 16.0
116.979 13.0
117.063 9.0
117.147 17.0
117.23 9.0
117.314 12.0
117.398 15.0
117.481 12.0
117.565 20.0
117.649 14.0
117.733 16.0
117.816 11.0
117.9 10.0
117.984 10.0
118.067 11.0
118.151 15.0
118.235 16.0
118.318 9.0
118.402 10.0
118.486 15.0
118.57 11.0
118.653 15.0
118.737 17.0
118.821 15.0
118.904 12.0
118.988 12.0
119.072 14.0
119.156 18.0
119.239 17.0
119.323 7.0
119.407 10.0
119.49 13.0
119.574 17.0
119.658 10.0
119.741 17.0
119.825 18.0
119.909 15.0
119.993 14.0
120.076 15.0
120.16 14.0
120.244 17.0
120.327 11.0
120.411 19.0
120.495 16.0
120.578 18.0
120.662 13.0
120.746 13.0
120.83 13.0
120.913 14.0
120.997 13.0
121.081 11.0
121.164 22.0
121.248 17.0
121.332 8.0
121.416 12.0
121.499 20.0
121.583 19.0
121.667 12.0
121.75 10.0
121.834 14.0
121.918 14.0
122.001 14.0
122.085 17.0
122.169 21.0
122.253 17.0
122.336 28.0
122.42 19.0
122.504 25.0
122.587 20.0
122.671 28.0
122.755 18.0
122.839 25.0
122.922 23.0
123.006 23.0
123.09 12.0
123.173 20.0
123.257 35.0
123.341 28.0
123.424 34.0
123.508 26.0
123.592 49.0
123.676 57.0
123.759 59.0
123.843 39.0
123.927 60.0
124.01 44.0
124.094 78.0
124.178 79.0
124.262 124.0
124.345 215.0
124.429 533.0
124.513 1896.0
124.596 8547.0
124.68 2017.0
124.764 603.0
124.847 327.0
124.931 321.0
125.015 591.0
125.099 2999.0
125.182 2686.0
125.266 625.0
125.35 266.0
125.433 103.0
125.517 91.0
125.601 79.0
125.685 61.0
125.768 60.0
125.852 46.0
125.936 48.0
126.019 41.0
126.103 35.0
126.187 37.0
126.27 38.0
126.354 23.0
126.438 42.0
126.522 29.0
126.605 32.0
126.689 32.0
126.773 24.0
126.856 31.0
126.94 31.0
127.024 31.0
127.108 25.0
127.191 34.0
127.275 19.0
127.359 26.0
127.442 22.0
127.526 34.0
127.61 27.0
127.693 20.0
127.777 30.0
127.861 17.0
127.945 16.0
128.028 17.0
128.112 26.0
128.196 14.0
128.279 23.0
128.363 11.0
128.447 14.0
128.531 16.0
128.614 22.0
128.698 17.0
128.782 13.0
128.865 14.0
128.949 15.0
129.033 25.0
129.116 16.0
129.2 14.0
129.284 21.0
129.368 14.0
129.451 17.0
129.535 13.0
129.619 28.0
129.702 14.0
129.786 16.0
129.87 15.0
129.954 15.0
129.998 15.0