File: data/w6930r/XRD_2ThetaOmega/scan_2th-om_r2_Cr2O3_45-55deg_PIXscan_5min_C3.xy
45.0025 52.0
45.0123 58.0
45.0222 51.0
45.032 48.0
45.0419 61.0
45.0517 48.0
45.0615 55.0
45.0714 68.0
45.0812 49.0
45.0911 45.0
45.1009 67.0
45.1108 59.0
45.1206 60.0
45.1305 56.0
45.1403 49.0
45.1502 55.0
45.16 60.0
45.1699 47.0
45.1797 47.0
45.1896 47.0
45.1994 42.0
45.2093 47.0
45.2191 46.0
45.229 56.0
45.2388 50.0
45.2487 55.0
45.2585 54.0
45.2684 57.0
45.2782 67.0
45.288 60.0
45.2979 61.0
45.3077 48.0
45.3176 60.0
45.3274 57.0
45.3373 47.0
45.3471 49.0
45.357 46.0
45.3668 47.0
45.3767 46.0
45.3865 50.0
45.3964 43.0
45.4062 55.0
45.4161 41.0
45.4259 52.0
45.4358 58.0
45.4456 72.0
45.4555 57.0
45.4653 62.0
45.4752 58.0
45.485 49.0
45.4948 52.0
45.5047 56.0
45.5145 45.0
45.5244 65.0
45.5342 52.0
45.5441 44.0
45.5539 47.0
45.5638 59.0
45.5736 56.0
45.5835 64.0
45.5933 56.0
45.6032 57.0
45.613 59.0
45.6229 53.0
45.6327 42.0
45.6426 55.0
45.6524 39.0
45.6623 55.0
45.6721 60.0
45.682 70.0
45.6918 57.0
45.7016 45.0
45.7115 48.0
45.7213 51.0
45.7312 58.0
45.741 38.0
45.7509 55.0
45.7607 50.0
45.7706 53.0
45.7804 63.0
45.7903 37.0
45.8001 46.0
45.81 49.0
45.8198 54.0
45.8297 49.0
45.8395 63.0
45.8494 62.0
45.8592 45.0
45.8691 53.0
45.8789 47.0
45.8888 51.0
45.8986 43.0
45.9085 54.0
45.9183 63.0
45.9281 49.0
45.938 58.0
45.9478 44.0
45.9577 48.0
45.9675 59.0
45.9774 54.0
45.9872 54.0
45.9971 52.0
46.0069 52.0
46.0168 58.0
46.0266 41.0
46.0365 40.0
46.0463 62.0
46.0562 58.0
46.066 55.0
46.0759 54.0
46.0857 60.0
46.0956 34.0
46.1054 49.0
46.1153 45.0
46.1251 50.0
46.1349 41.0
46.1448 58.0
46.1546 50.0
46.1645 62.0
46.1743 50.0
46.1842 49.0
46.194 43.0
46.2039 51.0
46.2137 51.0
46.2236 53.0
46.2334 47.0
46.2433 59.0
46.2531 54.0
46.263 57.0
46.2728 61.0
46.2827 54.0
46.2925 49.0
46.3024 59.0
46.3122 67.0
46.3221 56.0
46.3319 55.0
46.3418 64.0
46.3516 61.0
46.3614 49.0
46.3713 57.0
46.3811 54.0
46.391 46.0
46.4008 58.0
46.4107 55.0
46.4205 67.0
46.4304 44.0
46.4402 45.0
46.4501 61.0
46.4599 54.0
46.4698 48.0
46.4796 43.0
46.4895 53.0
46.4993 59.0
46.5092 54.0
46.519 61.0
46.5289 55.0
46.5387 49.0
46.5486 53.0
46.5584 56.0
46.5682 62.0
46.5781 60.0
46.5879 47.0
46.5978 64.0
46.6076 50.0
46.6175 52.0
46.6273 51.0
46.6372 58.0
46.647 68.0
46.6569 52.0
46.6667 70.0
46.6766 64.0
46.6864 45.0
46.6963 57.0
46.7061 65.0
46.716 66.0
46.7258 63.0
46.7357 66.0
46.7455 56.0
46.7554 52.0
46.7652 58.0
46.7751 62.0
46.7849 55.0
46.7947 57.0
46.8046 61.0
46.8144 54.0
46.8243 59.0
46.8341 72.0
46.844 57.0
46.8538 57.0
46.8637 67.0
46.8735 60.0
46.8834 70.0
46.8932 63.0
46.9031 64.0
46.9129 43.0
46.9228 56.0
46.9326 73.0
46.9425 56.0
46.9523 67.0
46.9622 59.0
46.972 68.0
46.9819 57.0
46.9917 71.0
47.0015 87.0
47.0114 83.0
47.0212 66.0
47.0311 83.0
47.0409 83.0
47.0508 126.0
47.0606 153.0
47.0705 282.0
47.0803 398.0
47.0902 545.0
47.1 779.0
47.1099 889.0
47.1197 924.0
47.1296 665.0
47.1394 448.0
47.1493 353.0
47.1591 273.0
47.169 193.0
47.1788 179.0
47.1887 152.0
47.1985 132.0
47.2083 113.0
47.2182 103.0
47.228 83.0
47.2379 82.0
47.2477 74.0
47.2576 80.0
47.2674 78.0
47.2773 76.0
47.2871 92.0
47.297 69.0
47.3068 61.0
47.3167 76.0
47.3265 73.0
47.3364 67.0
47.3462 69.0
47.3561 50.0
47.3659 83.0
47.3758 63.0
47.3856 69.0
47.3955 63.0
47.4053 58.0
47.4152 65.0
47.425 67.0
47.4348 64.0
47.4447 68.0
47.4545 53.0
47.4644 73.0
47.4742 74.0
47.4841 51.0
47.4939 66.0
47.5038 58.0
47.5136 56.0
47.5235 57.0
47.5333 65.0
47.5432 49.0
47.553 84.0
47.5629 74.0
47.5727 56.0
47.5826 58.0
47.5924 61.0
47.6023 68.0
47.6121 57.0
47.622 53.0
47.6318 63.0
47.6416 62.0
47.6515 53.0
47.6613 57.0
47.6712 67.0
47.681 66.0
47.6909 64.0
47.7007 66.0
47.7106 62.0
47.7204 58.0
47.7303 54.0
47.7401 64.0
47.75 56.0
47.7598 59.0
47.7697 60.0
47.7795 45.0
47.7894 68.0
47.7992 63.0
47.8091 69.0
47.8189 50.0
47.8288 55.0
47.8386 57.0
47.8485 65.0
47.8583 81.0
47.8681 58.0
47.878 66.0
47.8878 62.0
47.8977 55.0
47.9075 70.0
47.9174 42.0
47.9272 68.0
47.9371 57.0
47.9469 54.0
47.9568 65.0
47.9666 68.0
47.9765 72.0
47.9863 53.0
47.9962 65.0
48.006 44.0
48.0159 57.0
48.0257 52.0
48.0356 64.0
48.0454 64.0
48.0553 53.0
48.0651 61.0
48.0749 60.0
48.0848 64.0
48.0946 66.0
48.1045 53.0
48.1143 57.0
48.1242 61.0
48.134 55.0
48.1439 64.0
48.1537 54.0
48.1636 52.0
48.1734 64.0
48.1833 62.0
48.1931 58.0
48.203 77.0
48.2128 60.0
48.2227 55.0
48.2325 63.0
48.2424 56.0
48.2522 52.0
48.2621 59.0
48.2719 58.0
48.2818 60.0
48.2916 55.0
48.3014 43.0
48.3113 65.0
48.3211 48.0
48.331 51.0
48.3408 57.0
48.3507 51.0
48.3605 47.0
48.3704 51.0
48.3802 56.0
48.3901 51.0
48.3999 50.0
48.4098 69.0
48.4196 50.0
48.4295 63.0
48.4393 56.0
48.4492 69.0
48.459 71.0
48.4689 49.0
48.4787 56.0
48.4886 73.0
48.4984 51.0
48.5082 72.0
48.5181 48.0
48.5279 69.0
48.5378 56.0
48.5476 68.0
48.5575 61.0
48.5673 66.0
48.5772 72.0
48.587 42.0
48.5969 46.0
48.6067 60.0
48.6166 64.0
48.6264 55.0
48.6363 64.0
48.6461 62.0
48.656 70.0
48.6658 62.0
48.6757 50.0
48.6855 65.0
48.6954 54.0
48.7052 56.0
48.715 51.0
48.7249 64.0
48.7347 60.0
48.7446 60.0
48.7544 56.0
48.7643 63.0
48.7741 57.0
48.784 48.0
48.7938 58.0
48.8037 64.0
48.8135 58.0
48.8234 63.0
48.8332 55.0
48.8431 58.0
48.8529 66.0
48.8628 50.0
48.8726 53.0
48.8825 69.0
48.8923 49.0
48.9022 69.0
48.912 63.0
48.9219 60.0
48.9317 54.0
48.9415 55.0
48.9514 70.0
48.9612 54.0
48.9711 69.0
48.9809 64.0
48.9908 50.0
49.0006 51.0
49.0105 58.0
49.0203 61.0
49.0302 50.0
49.04 70.0
49.0499 54.0
49.0597 50.0
49.0696 60.0
49.0794 51.0
49.0893 72.0
49.0991 66.0
49.109 59.0
49.1188 69.0
49.1287 50.0
49.1385 52.0
49.1483 68.0
49.1582 57.0
49.168 75.0
49.1779 64.0
49.1877 50.0
49.1976 50.0
49.2074 78.0
49.2173 72.0
49.2271 58.0
49.237 71.0
49.2468 68.0
49.2567 78.0
49.2665 59.0
49.2764 69.0
49.2862 64.0
49.2961 54.0
49.3059 56.0
49.3158 53.0
49.3256 57.0
49.3355 54.0
49.3453 54.0
49.3552 60.0
49.365 63.0
49.3748 61.0
49.3847 83.0
49.3945 58.0
49.4044 69.0
49.4142 57.0
49.4241 55.0
49.4339 68.0
49.4438 68.0
49.4536 66.0
49.4635 63.0
49.4733 56.0
49.4832 70.0
49.493 60.0
49.5029 72.0
49.5127 72.0
49.5226 58.0
49.5324 71.0
49.5423 66.0
49.5521 58.0
49.562 72.0
49.5718 65.0
49.5816 73.0
49.5915 70.0
49.6013 67.0
49.6112 53.0
49.621 51.0
49.6309 80.0
49.6407 60.0
49.6506 71.0
49.6604 55.0
49.6703 79.0
49.6801 77.0
49.69 53.0
49.6998 62.0
49.7097 56.0
49.7195 59.0
49.7294 58.0
49.7392 64.0
49.7491 63.0
49.7589 72.0
49.7688 62.0
49.7786 56.0
49.7884 64.0
49.7983 67.0
49.8081 70.0
49.818 77.0
49.8278 55.0
49.8377 68.0
49.8475 68.0
49.8574 53.0
49.8672 71.0
49.8771 66.0
49.8869 67.0
49.8968 80.0
49.9066 78.0
49.9165 84.0
49.9263 68.0
49.9362 77.0
49.946 93.0
49.9559 69.0
49.9657 73.0
49.9756 67.0
49.9854 73.0
49.9953 69.0
50.0051 76.0
50.0149 78.0
50.0248 69.0
50.0346 74.0
50.0445 84.0
50.0543 81.0
50.0642 71.0
50.074 71.0
50.0839 73.0
50.0937 62.0
50.1036 81.0
50.1134 68.0
50.1233 81.0
50.1331 107.0
50.143 125.0
50.1528 90.0
50.1627 114.0
50.1725 110.0
50.1824 92.0
50.1922 87.0
50.2021 96.0
50.2119 100.0
50.2217 97.0
50.2316 61.0
50.2414 93.0
50.2513 78.0
50.2611 86.0
50.271 80.0
50.2808 93.0
50.2907 64.0
50.3005 88.0
50.3104 76.0
50.3202 82.0
50.3301 79.0
50.3399 91.0
50.3498 66.0
50.3596 66.0
50.3695 82.0
50.3793 82.0
50.3892 68.0
50.399 83.0
50.4089 71.0
50.4187 84.0
50.4286 61.0
50.4384 78.0
50.4482 79.0
50.4581 89.0
50.4679 75.0
50.4778 77.0
50.4876 75.0
50.4975 61.0
50.5073 80.0
50.5172 92.0
50.527 93.0
50.5369 96.0
50.5467 70.0
50.5566 82.0
50.5664 98.0
50.5763 84.0
50.5861 91.0
50.596 86.0
50.6058 77.0
50.6157 76.0
50.6255 73.0
50.6354 89.0
50.6452 86.0
50.655 87.0
50.6649 96.0
50.6747 84.0
50.6846 77.0
50.6944 70.0
50.7043 92.0
50.7141 86.0
50.724 88.0
50.7338 79.0
50.7437 87.0
50.7535 94.0
50.7634 91.0
50.7732 88.0
50.7831 101.0
50.7929 89.0
50.8028 84.0
50.8126 94.0
50.8225 81.0
50.8323 90.0
50.8422 101.0
50.852 88.0
50.8619 89.0
50.8717 91.0
50.8815 98.0
50.8914 93.0
50.9012 92.0
50.9111 103.0
50.9209 86.0
50.9308 101.0
50.9406 86.0
50.9505 112.0
50.9603 117.0
50.9702 104.0
50.98 119.0
50.9899 100.0
50.9997 119.0
51.0096 100.0
51.0194 102.0
51.0293 137.0
51.0391 131.0
51.049 99.0
51.0588 110.0
51.0687 133.0
51.0785 96.0
51.0883 114.0
51.0982 119.0
51.108 117.0
51.1179 126.0
51.1277 112.0
51.1376 138.0
51.1474 133.0
51.1573 139.0
51.1671 139.0
51.177 133.0
51.1868 124.0
51.1967 120.0
51.2065 134.0
51.2164 132.0
51.2262 136.0
51.2361 129.0
51.2459 133.0
51.2558 149.0
51.2656 164.0
51.2755 163.0
51.2853 149.0
51.2951 126.0
51.305 169.0
51.3148 162.0
51.3247 142.0
51.3345 146.0
51.3444 185.0
51.3542 147.0
51.3641 137.0
51.3739 137.0
51.3838 153.0
51.3936 150.0
51.4035 159.0
51.4133 167.0
51.4232 183.0
51.433 161.0
51.4429 166.0
51.4527 157.0
51.4626 170.0
51.4724 187.0
51.4823 177.0
51.4921 166.0
51.502 177.0
51.5118 204.0
51.5216 190.0
51.5315 180.0
51.5413 172.0
51.5512 199.0
51.561 188.0
51.5709 209.0
51.5807 208.0
51.5906 204.0
51.6004 214.0
51.6103 219.0
51.6201 199.0
51.63 211.0
51.6398 266.0
51.6497 259.0
51.6595 295.0
51.6694 275.0
51.6792 295.0
51.6891 305.0
51.6989 266.0
51.7088 275.0
51.7186 256.0
51.7284 296.0
51.7383 271.0
51.7481 267.0
51.758 279.0
51.7678 291.0
51.7777 272.0
51.7875 333.0
51.7974 269.0
51.8072 328.0
51.8171 290.0
51.8269 320.0
51.8368 322.0
51.8466 313.0
51.8565 323.0
51.8663 323.0
51.8762 362.0
51.886 359.0
51.8959 405.0
51.9057 398.0
51.9156 362.0
51.9254 381.0
51.9353 356.0
51.9451 387.0
51.9549 395.0
51.9648 415.0
51.9746 412.0
51.9845 395.0
51.9943 438.0
52.0042 483.0
52.014 446.0
52.0239 477.0
52.0337 408.0
52.0436 482.0
52.0534 512.0
52.0633 524.0
52.0731 551.0
52.083 596.0
52.0928 554.0
52.1027 606.0
52.1125 646.0
52.1224 662.0
52.1322 641.0
52.1421 714.0
52.1519 680.0
52.1617 750.0
52.1716 791.0
52.1814 912.0
52.1913 1020.0
52.2011 1144.0
52.211 1324.0
52.2208 1514.0
52.2307 1647.0
52.2405 1859.0
52.2504 2141.0
52.2602 2104.0
52.2701 2253.0
52.2799 2213.0
52.2898 2252.0
52.2996 2195.0
52.3095 2191.0
52.3193 2187.0
52.3292 2254.0
52.339 2237.0
52.3489 2332.0
52.3587 2516.0
52.3686 2788.0
52.3784 3094.0
52.3882 3568.0
52.3981 4283.0
52.4079 5238.0
52.4178 6387.0
52.4276 8224.0
52.4375 10699.0
52.4473 15066.0
52.4572 22921.0
52.467 39439.0
52.4769 84121.0
52.4867 182101.0
52.4966 255228.0
52.5064 257141.0
52.5163 183115.0
52.5261 94340.0
52.536 49338.0
52.5458 28275.0
52.5557 18380.0
52.5655 13848.0
52.5754 11990.0
52.5852 12392.0
52.595 15101.0
52.6049 22069.0
52.6147 39094.0
52.6246 76767.0
52.6344 117176.0
52.6443 127730.0
52.6541 102743.0
52.664 61478.0
52.6738 32662.0
52.6837 18084.0
52.6935 11281.0
52.7034 7654.0
52.7132 5717.0
52.7231 4558.0
52.7329 3844.0
52.7428 3289.0
52.7526 2843.0
52.7625 2562.0
52.7723 2223.0
52.7822 2019.0
52.792 1884.0
52.8018 1697.0
52.8117 1649.0
52.8215 1492.0
52.8314 1372.0
52.8412 1313.0
52.8511 1221.0
52.8609 1131.0
52.8708 988.0
52.8806 997.0
52.8905 967.0
52.9003 909.0
52.9102 845.0
52.92 860.0
52.9299 835.0
52.9397 776.0
52.9496 723.0
52.9594 685.0
52.9693 683.0
52.9791 583.0
52.989 609.0
52.9988 580.0
53.0087 595.0
53.0185 598.0
53.0283 597.0
53.0382 514.0
53.048 450.0
53.0579 452.0
53.0677 516.0
53.0776 445.0
53.0874 437.0
53.0973 431.0
53.1071 415.0
53.117 395.0
53.1268 397.0
53.1367 372.0
53.1465 370.0
53.1564 360.0
53.1662 350.0
53.1761 344.0
53.1859 349.0
53.1958 346.0
53.2056 310.0
53.2155 283.0
53.2253 277.0
53.2351 279.0
53.245 296.0
53.2548 295.0
53.2647 318.0
53.2745 299.0
53.2844 283.0
53.2942 264.0
53.3041 273.0
53.3139 255.0
53.3238 255.0
53.3336 255.0
53.3435 192.0
53.3533 201.0
53.3632 165.0
53.373 263.0
53.3829 186.0
53.3927 188.0
53.4026 168.0
53.4124 181.0
53.4223 194.0
53.4321 185.0
53.442 163.0
53.4518 179.0
53.4616 160.0
53.4715 147.0
53.4813 159.0
53.4912 159.0
53.501 125.0
53.5109 148.0
53.5207 156.0
53.5306 135.0
53.5404 146.0
53.5503 145.0
53.5601 138.0
53.57 121.0
53.5798 130.0
53.5897 127.0
53.5995 142.0
53.6094 113.0
53.6192 140.0
53.6291 117.0
53.6389 141.0
53.6488 127.0
53.6586 113.0
53.6684 129.0
53.6783 126.0
53.6881 102.0
53.698 111.0
53.7078 117.0
53.7177 106.0
53.7275 118.0
53.7374 107.0
53.7472 109.0
53.7571 96.0
53.7669 117.0
53.7768 99.0
53.7866 98.0
53.7965 104.0
53.8063 134.0
53.8162 89.0
53.826 110.0
53.8359 86.0
53.8457 110.0
53.8556 93.0
53.8654 103.0
53.8753 97.0
53.8851 108.0
53.8949 104.0
53.9048 95.0
53.9146 77.0
53.9245 93.0
53.9343 104.0
53.9442 95.0
53.954 80.0
53.9639 103.0
53.9737 85.0
53.9836 91.0
53.9934 91.0
54.0033 78.0
54.0131 101.0
54.023 82.0
54.0328 80.0
54.0427 78.0
54.0525 82.0
54.0624 88.0
54.0722 87.0
54.0821 107.0
54.0919 83.0
54.1017 88.0
54.1116 84.0
54.1214 80.0
54.1313 90.0
54.1411 73.0
54.151 88.0
54.1608 67.0
54.1707 86.0
54.1805 66.0
54.1904 77.0
54.2002 81.0
54.2101 53.0
54.2199 69.0
54.2298 73.0
54.2396 72.0
54.2495 94.0
54.2593 67.0
54.2692 87.0
54.279 80.0
54.2889 86.0
54.2987 86.0
54.3085 84.0
54.3184 71.0
54.3282 81.0
54.3381 83.0
54.3479 72.0
54.3578 80.0
54.3676 79.0
54.3775 70.0
54.3873 80.0
54.3972 70.0
54.407 70.0
54.4169 71.0
54.4267 61.0
54.4366 73.0
54.4464 75.0
54.4563 64.0
54.4661 80.0
54.476 76.0
54.4858 64.0
54.4957 80.0
54.5055 73.0
54.5154 79.0
54.5252 77.0
54.535 82.0
54.5449 82.0
54.5547 72.0
54.5646 93.0
54.5744 79.0
54.5843 73.0
54.5941 76.0
54.604 91.0
54.6138 74.0
54.6237 79.0
54.6335 81.0
54.6434 65.0
54.6532 82.0
54.6631 79.0
54.6729 86.0
54.6828 85.0
54.6926 81.0
54.7025 80.0
54.7123 94.0
54.7222 97.0
54.732 91.0
54.7418 80.0
54.7517 88.0
54.7615 81.0
54.7714 81.0
54.7812 79.0
54.7911 76.0
54.8009 93.0
54.8108 96.0
54.8206 76.0
54.8305 65.0
54.8403 68.0
54.8502 92.0
54.86 89.0
54.8699 72.0
54.8797 76.0
54.8896 75.0
54.8994 74.0
54.9093 61.0
54.9191 82.0
54.929 76.0
54.9388 79.0
54.9487 71.0
54.9585 59.0
54.9683 79.0
54.9782 66.0
54.988 54.0
54.9979 62.0