File: data/w6931m/XRD_2ThetaOmega/scan_2th-om_m_Cr2O3_55-75deg_PIXscan_4min.xy
55.0019 63.0
55.0166 51.0
55.0314 56.0
55.0462 52.0
55.0609 51.0
55.0757 47.0
55.0905 57.0
55.1053 62.0
55.12 52.0
55.1348 54.0
55.1496 50.0
55.1643 56.0
55.1791 62.0
55.1939 54.0
55.2087 44.0
55.2234 49.0
55.2382 59.0
55.253 43.0
55.2678 54.0
55.2825 55.0
55.2973 55.0
55.3121 39.0
55.3268 60.0
55.3416 56.0
55.3564 53.0
55.3712 71.0
55.3859 43.0
55.4007 59.0
55.4155 52.0
55.4302 58.0
55.445 64.0
55.4598 60.0
55.4746 52.0
55.4893 58.0
55.5041 52.0
55.5189 45.0
55.5336 46.0
55.5484 55.0
55.5632 52.0
55.578 43.0
55.5927 64.0
55.6075 67.0
55.6223 45.0
55.637 53.0
55.6518 57.0
55.6666 59.0
55.6814 45.0
55.6961 41.0
55.7109 55.0
55.7257 49.0
55.7404 66.0
55.7552 55.0
55.77 61.0
55.7848 61.0
55.7995 55.0
55.8143 58.0
55.8291 50.0
55.8438 53.0
55.8586 57.0
55.8734 47.0
55.8882 57.0
55.9029 48.0
55.9177 51.0
55.9325 49.0
55.9472 54.0
55.962 62.0
55.9768 64.0
55.9916 47.0
56.0063 46.0
56.0211 66.0
56.0359 58.0
56.0506 48.0
56.0654 62.0
56.0802 62.0
56.095 38.0
56.1097 59.0
56.1245 57.0
56.1393 53.0
56.154 59.0
56.1688 65.0
56.1836 63.0
56.1984 54.0
56.2131 84.0
56.2279 50.0
56.2427 53.0
56.2574 54.0
56.2722 48.0
56.287 55.0
56.3018 58.0
56.3165 55.0
56.3313 58.0
56.3461 51.0
56.3608 49.0
56.3756 43.0
56.3904 48.0
56.4052 69.0
56.4199 60.0
56.4347 63.0
56.4495 58.0
56.4642 41.0
56.479 40.0
56.4938 52.0
56.5086 57.0
56.5233 53.0
56.5381 59.0
56.5529 47.0
56.5676 64.0
56.5824 48.0
56.5972 62.0
56.612 64.0
56.6267 60.0
56.6415 58.0
56.6563 56.0
56.671 52.0
56.6858 66.0
56.7006 42.0
56.7154 61.0
56.7301 50.0
56.7449 70.0
56.7597 46.0
56.7745 65.0
56.7892 63.0
56.804 58.0
56.8188 57.0
56.8335 51.0
56.8483 54.0
56.8631 67.0
56.8779 56.0
56.8926 52.0
56.9074 68.0
56.9222 59.0
56.9369 51.0
56.9517 47.0
56.9665 50.0
56.9813 44.0
56.996 63.0
57.0108 54.0
57.0256 62.0
57.0403 45.0
57.0551 60.0
57.0699 50.0
57.0847 63.0
57.0994 54.0
57.1142 69.0
57.129 47.0
57.1437 51.0
57.1585 60.0
57.1733 59.0
57.1881 48.0
57.2028 59.0
57.2176 55.0
57.2324 61.0
57.2471 74.0
57.2619 67.0
57.2767 53.0
57.2915 69.0
57.3062 54.0
57.321 46.0
57.3358 62.0
57.3505 58.0
57.3653 54.0
57.3801 56.0
57.3949 53.0
57.4096 50.0
57.4244 64.0
57.4392 71.0
57.4539 59.0
57.4687 56.0
57.4835 60.0
57.4983 64.0
57.513 61.0
57.5278 47.0
57.5426 44.0
57.5573 57.0
57.5721 65.0
57.5869 61.0
57.6017 57.0
57.6164 64.0
57.6312 49.0
57.646 65.0
57.6607 67.0
57.6755 49.0
57.6903 64.0
57.7051 53.0
57.7198 54.0
57.7346 61.0
57.7494 60.0
57.7641 67.0
57.7789 57.0
57.7937 62.0
57.8085 45.0
57.8232 61.0
57.838 62.0
57.8528 51.0
57.8675 77.0
57.8823 64.0
57.8971 64.0
57.9119 49.0
57.9266 69.0
57.9414 59.0
57.9562 64.0
57.9709 61.0
57.9857 58.0
58.0005 57.0
58.0153 84.0
58.03 73.0
58.0448 54.0
58.0596 50.0
58.0743 59.0
58.0891 61.0
58.1039 76.0
58.1187 59.0
58.1334 50.0
58.1482 50.0
58.163 57.0
58.1777 56.0
58.1925 60.0
58.2073 52.0
58.2221 68.0
58.2368 47.0
58.2516 58.0
58.2664 57.0
58.2812 55.0
58.2959 69.0
58.3107 50.0
58.3255 56.0
58.3402 56.0
58.355 57.0
58.3698 60.0
58.3846 62.0
58.3993 70.0
58.4141 53.0
58.4289 44.0
58.4436 54.0
58.4584 50.0
58.4732 69.0
58.488 60.0
58.5027 52.0
58.5175 64.0
58.5323 56.0
58.547 69.0
58.5618 55.0
58.5766 46.0
58.5914 56.0
58.6061 51.0
58.6209 48.0
58.6357 53.0
58.6504 66.0
58.6652 64.0
58.68 52.0
58.6948 57.0
58.7095 56.0
58.7243 55.0
58.7391 59.0
58.7538 43.0
58.7686 53.0
58.7834 56.0
58.7982 63.0
58.8129 54.0
58.8277 57.0
58.8425 52.0
58.8572 63.0
58.872 57.0
58.8868 72.0
58.9016 47.0
58.9163 55.0
58.9311 70.0
58.9459 56.0
58.9606 59.0
58.9754 52.0
58.9902 60.0
59.005 59.0
59.0197 60.0
59.0345 60.0
59.0493 64.0
59.064 60.0
59.0788 55.0
59.0936 59.0
59.1084 41.0
59.1231 51.0
59.1379 61.0
59.1527 66.0
59.1674 64.0
59.1822 55.0
59.197 40.0
59.2118 51.0
59.2265 58.0
59.2413 57.0
59.2561 51.0
59.2708 59.0
59.2856 51.0
59.3004 60.0
59.3152 52.0
59.3299 37.0
59.3447 54.0
59.3595 66.0
59.3742 54.0
59.389 43.0
59.4038 51.0
59.4186 53.0
59.4333 51.0
59.4481 53.0
59.4629 56.0
59.4776 60.0
59.4924 60.0
59.5072 57.0
59.522 80.0
59.5367 49.0
59.5515 68.0
59.5663 64.0
59.581 51.0
59.5958 54.0
59.6106 59.0
59.6254 70.0
59.6401 59.0
59.6549 57.0
59.6697 50.0
59.6844 54.0
59.6992 41.0
59.714 51.0
59.7288 49.0
59.7435 50.0
59.7583 59.0
59.7731 55.0
59.7878 58.0
59.8026 57.0
59.8174 50.0
59.8322 55.0
59.8469 71.0
59.8617 52.0
59.8765 49.0
59.8913 65.0
59.906 59.0
59.9208 63.0
59.9356 54.0
59.9503 74.0
59.9651 66.0
59.9799 62.0
59.9947 57.0
60.0094 67.0
60.0242 56.0
60.039 55.0
60.0537 65.0
60.0685 63.0
60.0833 58.0
60.0981 54.0
60.1128 63.0
60.1276 59.0
60.1424 68.0
60.1571 71.0
60.1719 74.0
60.1867 59.0
60.2015 62.0
60.2162 53.0
60.231 61.0
60.2458 53.0
60.2605 61.0
60.2753 64.0
60.2901 61.0
60.3049 59.0
60.3196 66.0
60.3344 68.0
60.3492 62.0
60.3639 82.0
60.3787 63.0
60.3935 46.0
60.4083 67.0
60.423 76.0
60.4378 84.0
60.4526 58.0
60.4673 59.0
60.4821 59.0
60.4969 70.0
60.5117 64.0
60.5264 66.0
60.5412 64.0
60.556 86.0
60.5707 78.0
60.5855 61.0
60.6003 65.0
60.6151 57.0
60.6298 73.0
60.6446 64.0
60.6594 68.0
60.6741 88.0
60.6889 82.0
60.7037 84.0
60.7185 85.0
60.7332 92.0
60.748 115.0
60.7628 144.0
60.7775 161.0
60.7923 290.0
60.8071 486.0
60.8219 663.0
60.8366 702.0
60.8514 600.0
60.8662 393.0
60.8809 334.0
60.8957 338.0
60.9105 304.0
60.9253 265.0
60.94 178.0
60.9548 138.0
60.9696 93.0
60.9843 103.0
60.9991 89.0
61.0139 74.0
61.0287 77.0
61.0434 65.0
61.0582 87.0
61.073 88.0
61.0877 88.0
61.1025 78.0
61.1173 78.0
61.1321 77.0
61.1468 75.0
61.1616 71.0
61.1764 80.0
61.1911 58.0
61.2059 72.0
61.2207 71.0
61.2355 48.0
61.2502 79.0
61.265 46.0
61.2798 52.0
61.2945 74.0
61.3093 80.0
61.3241 59.0
61.3389 59.0
61.3536 62.0
61.3684 72.0
61.3832 73.0
61.398 62.0
61.4127 62.0
61.4275 64.0
61.4423 77.0
61.457 58.0
61.4718 60.0
61.4866 66.0
61.5014 63.0
61.5161 75.0
61.5309 72.0
61.5457 68.0
61.5604 55.0
61.5752 51.0
61.59 53.0
61.6048 56.0
61.6195 73.0
61.6343 63.0
61.6491 72.0
61.6638 61.0
61.6786 72.0
61.6934 81.0
61.7082 57.0
61.7229 71.0
61.7377 70.0
61.7525 57.0
61.7672 64.0
61.782 65.0
61.7968 49.0
61.8116 59.0
61.8263 72.0
61.8411 77.0
61.8559 66.0
61.8706 72.0
61.8854 59.0
61.9002 60.0
61.915 63.0
61.9297 88.0
61.9445 64.0
61.9593 74.0
61.974 58.0
61.9888 68.0
62.0036 60.0
62.0184 64.0
62.0331 72.0
62.0479 65.0
62.0627 61.0
62.0774 53.0
62.0922 77.0
62.107 70.0
62.1218 83.0
62.1365 67.0
62.1513 72.0
62.1661 61.0
62.1808 74.0
62.1956 63.0
62.2104 71.0
62.2252 65.0
62.2399 70.0
62.2547 64.0
62.2695 76.0
62.2842 56.0
62.299 82.0
62.3138 59.0
62.3286 55.0
62.3433 64.0
62.3581 56.0
62.3729 68.0
62.3876 69.0
62.4024 58.0
62.4172 62.0
62.432 78.0
62.4467 68.0
62.4615 77.0
62.4763 72.0
62.491 63.0
62.5058 59.0
62.5206 69.0
62.5354 53.0
62.5501 60.0
62.5649 68.0
62.5797 62.0
62.5944 57.0
62.6092 75.0
62.624 58.0
62.6388 66.0
62.6535 77.0
62.6683 77.0
62.6831 76.0
62.6978 57.0
62.7126 72.0
62.7274 65.0
62.7422 60.0
62.7569 49.0
62.7717 73.0
62.7865 71.0
62.8012 69.0
62.816 75.0
62.8308 73.0
62.8456 79.0
62.8603 73.0
62.8751 83.0
62.8899 70.0
62.9047 74.0
62.9194 77.0
62.9342 73.0
62.949 60.0
62.9637 51.0
62.9785 67.0
62.9933 82.0
63.0081 78.0
63.0228 75.0
63.0376 93.0
63.0524 68.0
63.0671 73.0
63.0819 81.0
63.0967 74.0
63.1115 78.0
63.1262 73.0
63.141 72.0
63.1558 78.0
63.1705 69.0
63.1853 75.0
63.2001 84.0
63.2149 85.0
63.2296 68.0
63.2444 85.0
63.2592 74.0
63.2739 65.0
63.2887 67.0
63.3035 86.0
63.3183 75.0
63.333 83.0
63.3478 67.0
63.3626 83.0
63.3773 73.0
63.3921 69.0
63.4069 98.0
63.4217 70.0
63.4364 70.0
63.4512 69.0
63.466 99.0
63.4807 108.0
63.4955 78.0
63.5103 89.0
63.5251 94.0
63.5398 81.0
63.5546 112.0
63.5694 92.0
63.5841 94.0
63.5989 83.0
63.6137 88.0
63.6285 81.0
63.6432 90.0
63.658 107.0
63.6728 94.0
63.6875 105.0
63.7023 107.0
63.7171 92.0
63.7319 97.0
63.7466 101.0
63.7614 112.0
63.7762 124.0
63.7909 91.0
63.8057 102.0
63.8205 94.0
63.8353 81.0
63.85 126.0
63.8648 116.0
63.8796 111.0
63.8943 116.0
63.9091 132.0
63.9239 133.0
63.9387 127.0
63.9534 137.0
63.9682 117.0
63.983 114.0
63.9977 149.0
64.0125 147.0
64.0273 136.0
64.0421 157.0
64.0568 153.0
64.0716 165.0
64.0864 168.0
64.1011 152.0
64.1159 170.0
64.1307 157.0
64.1455 186.0
64.1602 198.0
64.175 189.0
64.1898 182.0
64.2045 190.0
64.2193 228.0
64.2341 266.0
64.2489 232.0
64.2636 257.0
64.2784 264.0
64.2932 277.0
64.3079 308.0
64.3227 334.0
64.3375 385.0
64.3523 332.0
64.367 383.0
64.3818 384.0
64.3966 442.0
64.4114 471.0
64.4261 557.0
64.4409 579.0
64.4557 616.0
64.4704 691.0
64.4852 708.0
64.5 772.0
64.5148 891.0
64.5295 924.0
64.5443 1083.0
64.5591 1258.0
64.5738 1322.0
64.5886 1492.0
64.6034 1698.0
64.6182 1934.0
64.6329 2040.0
64.6477 2311.0
64.6625 2513.0
64.6772 2728.0
64.692 2816.0
64.7068 3061.0
64.7216 3129.0
64.7363 3222.0
64.7511 3203.0
64.7659 3077.0
64.7806 2896.0
64.7954 2742.0
64.8102 2636.0
64.825 2498.0
64.8397 2495.0
64.8545 2392.0
64.8693 2246.0
64.884 2211.0
64.8988 2127.0
64.9136 1996.0
64.9284 1944.0
64.9431 1810.0
64.9579 1598.0
64.9727 1464.0
64.9874 1365.0
65.0022 1169.0
65.017 1010.0
65.0318 872.0
65.0465 837.0
65.0613 726.0
65.0761 641.0
65.0908 604.0
65.1056 529.0
65.1204 491.0
65.1352 456.0
65.1499 433.0
65.1647 397.0
65.1795 367.0
65.1942 324.0
65.209 324.0
65.2238 293.0
65.2386 287.0
65.2533 262.0
65.2681 236.0
65.2829 229.0
65.2976 219.0
65.3124 196.0
65.3272 211.0
65.342 180.0
65.3567 227.0
65.3715 177.0
65.3863 181.0
65.401 165.0
65.4158 171.0
65.4306 180.0
65.4454 171.0
65.4601 141.0
65.4749 158.0
65.4897 178.0
65.5044 153.0
65.5192 149.0
65.534 129.0
65.5488 142.0
65.5635 148.0
65.5783 145.0
65.5931 130.0
65.6078 152.0
65.6226 157.0
65.6374 134.0
65.6522 135.0
65.6669 110.0
65.6817 110.0
65.6965 130.0
65.7112 106.0
65.726 130.0
65.7408 120.0
65.7556 127.0
65.7703 120.0
65.7851 132.0
65.7999 122.0
65.8146 115.0
65.8294 112.0
65.8442 110.0
65.859 108.0
65.8737 107.0
65.8885 104.0
65.9033 115.0
65.9181 110.0
65.9328 113.0
65.9476 98.0
65.9624 122.0
65.9771 116.0
65.9919 141.0
66.0067 116.0
66.0215 106.0
66.0362 119.0
66.051 113.0
66.0658 110.0
66.0805 115.0
66.0953 127.0
66.1101 112.0
66.1249 124.0
66.1396 108.0
66.1544 105.0
66.1692 125.0
66.1839 125.0
66.1987 127.0
66.2135 125.0
66.2283 126.0
66.243 129.0
66.2578 118.0
66.2726 119.0
66.2873 140.0
66.3021 129.0
66.3169 120.0
66.3317 112.0
66.3464 128.0
66.3612 108.0
66.376 144.0
66.3907 114.0
66.4055 134.0
66.4203 118.0
66.4351 129.0
66.4498 129.0
66.4646 135.0
66.4794 123.0
66.4941 142.0
66.5089 138.0
66.5237 127.0
66.5385 138.0
66.5532 151.0
66.568 136.0
66.5828 143.0
66.5975 128.0
66.6123 153.0
66.6271 146.0
66.6419 149.0
66.6566 164.0
66.6714 149.0
66.6862 148.0
66.7009 141.0
66.7157 155.0
66.7305 139.0
66.7453 148.0
66.76 164.0
66.7748 180.0
66.7896 175.0
66.8043 185.0
66.8191 192.0
66.8339 166.0
66.8487 171.0
66.8634 165.0
66.8782 166.0
66.893 153.0
66.9077 187.0
66.9225 167.0
66.9373 180.0
66.9521 200.0
66.9668 180.0
66.9816 180.0
66.9964 171.0
67.0111 187.0
67.0259 200.0
67.0407 210.0
67.0555 207.0
67.0702 198.0
67.085 200.0
67.0998 185.0
67.1145 193.0
67.1293 284.0
67.1441 221.0
67.1589 267.0
67.1736 211.0
67.1884 257.0
67.2032 273.0
67.2179 293.0
67.2327 289.0
67.2475 289.0
67.2623 266.0
67.277 287.0
67.2918 266.0
67.3066 301.0
67.3213 329.0
67.3361 330.0
67.3509 279.0
67.3657 292.0
67.3804 300.0
67.3952 316.0
67.41 334.0
67.4248 350.0
67.4395 345.0
67.4543 355.0
67.4691 364.0
67.4838 371.0
67.4986 407.0
67.5134 408.0
67.5282 399.0
67.5429 428.0
67.5577 414.0
67.5725 468.0
67.5872 442.0
67.602 500.0
67.6168 518.0
67.6316 493.0
67.6463 480.0
67.6611 507.0
67.6759 551.0
67.6906 587.0
67.7054 696.0
67.7202 764.0
67.735 855.0
67.7497 999.0
67.7645 1225.0
67.7793 1267.0
67.794 1450.0
67.8088 1662.0
67.8236 1713.0
67.8384 1764.0
67.8531 1710.0
67.8679 1773.0
67.8827 1597.0
67.8974 1656.0
67.9122 1606.0
67.927 1705.0
67.9418 1878.0
67.9565 1949.0
67.9713 2075.0
67.9861 2540.0
68.0008 2705.0
68.0156 3504.0
68.0304 4039.0
68.0452 5253.0
68.0599 6598.0
68.0747 9537.0
68.0895 14041.0
68.1042 22861.0
68.119 50355.0
68.1338 113599.0
68.1486 224392.0
68.1633 198562.0
68.1781 87712.0
68.1929 49096.0
68.2076 22785.0
68.2224 15040.0
68.2372 10451.0
68.252 8450.0
68.2667 8758.0
68.2815 10314.0
68.2963 14997.0
68.311 27135.0
68.3258 61568.0
68.3406 101672.0
68.3554 94961.0
68.3701 54508.0
68.3849 26792.0
68.3997 14276.0
68.4144 8401.0
68.4292 5689.0
68.444 4185.0
68.4588 3290.0
68.4735 2725.0
68.4883 2534.0
68.5031 2048.0
68.5178 1856.0
68.5326 1683.0
68.5474 1511.0
68.5622 1354.0
68.5769 1310.0
68.5917 1181.0
68.6065 1136.0
68.6212 1020.0
68.636 922.0
68.6508 885.0
68.6656 866.0
68.6803 803.0
68.6951 702.0
68.7099 684.0
68.7246 732.0
68.7394 643.0
68.7542 628.0
68.769 578.0
68.7837 590.0
68.7985 560.0
68.8133 502.0
68.828 527.0
68.8428 443.0
68.8576 462.0
68.8724 444.0
68.8871 420.0
68.9019 441.0
68.9167 393.0
68.9315 409.0
68.9462 361.0
68.961 413.0
68.9758 348.0
68.9905 350.0
69.0053 345.0
69.0201 335.0
69.0349 354.0
69.0496 320.0
69.0644 305.0
69.0792 313.0
69.0939 318.0
69.1087 282.0
69.1235 275.0
69.1383 266.0
69.153 277.0
69.1678 214.0
69.1826 213.0
69.1973 271.0
69.2121 282.0
69.2269 260.0
69.2417 211.0
69.2564 205.0
69.2712 187.0
69.286 173.0
69.3007 175.0
69.3155 189.0
69.3303 182.0
69.3451 194.0
69.3598 172.0
69.3746 186.0
69.3894 156.0
69.4041 173.0
69.4189 161.0
69.4337 166.0
69.4485 146.0
69.4632 154.0
69.478 143.0
69.4928 139.0
69.5075 161.0
69.5223 139.0
69.5371 136.0
69.5519 160.0
69.5666 125.0
69.5814 132.0
69.5962 113.0
69.6109 109.0
69.6257 115.0
69.6405 93.0
69.6553 125.0
69.67 119.0
69.6848 126.0
69.6996 110.0
69.7143 119.0
69.7291 111.0
69.7439 115.0
69.7587 117.0
69.7734 100.0
69.7882 91.0
69.803 102.0
69.8177 117.0
69.8325 87.0
69.8473 112.0
69.8621 120.0
69.8768 103.0
69.8916 115.0
69.9064 111.0
69.9211 87.0
69.9359 111.0
69.9507 98.0
69.9655 88.0
69.9802 95.0
69.995 113.0
70.0098 88.0
70.0245 95.0
70.0393 91.0
70.0541 81.0
70.0689 91.0
70.0836 104.0
70.0984 83.0
70.1132 88.0
70.1279 88.0
70.1427 88.0
70.1575 82.0
70.1723 69.0
70.187 88.0
70.2018 92.0
70.2166 104.0
70.2313 90.0
70.2461 85.0
70.2609 85.0
70.2757 86.0
70.2904 89.0
70.3052 97.0
70.32 80.0
70.3347 95.0
70.3495 72.0
70.3643 86.0
70.3791 71.0
70.3938 88.0
70.4086 90.0
70.4234 83.0
70.4382 78.0
70.4529 88.0
70.4677 84.0
70.4825 86.0
70.4972 86.0
70.512 75.0
70.5268 87.0
70.5416 82.0
70.5563 82.0
70.5711 81.0
70.5859 82.0
70.6006 72.0
70.6154 85.0
70.6302 95.0
70.645 81.0
70.6597 74.0
70.6745 75.0
70.6893 77.0
70.704 88.0
70.7188 72.0
70.7336 78.0
70.7484 73.0
70.7631 73.0
70.7779 77.0
70.7927 71.0
70.8074 70.0
70.8222 69.0
70.837 99.0
70.8518 81.0
70.8665 80.0
70.8813 88.0
70.8961 68.0
70.9108 96.0
70.9256 89.0
70.9404 88.0
70.9552 79.0
70.9699 93.0
70.9847 78.0
70.9995 71.0
71.0142 90.0
71.029 72.0
71.0438 74.0
71.0586 79.0
71.0733 89.0
71.0881 71.0
71.1029 86.0
71.1176 71.0
71.1324 80.0
71.1472 78.0
71.162 71.0
71.1767 80.0
71.1915 66.0
71.2063 69.0
71.221 65.0
71.2358 71.0
71.2506 76.0
71.2654 60.0
71.2801 73.0
71.2949 82.0
71.3097 74.0
71.3244 84.0
71.3392 75.0
71.354 78.0
71.3688 50.0
71.3835 84.0
71.3983 73.0
71.4131 83.0
71.4278 77.0
71.4426 58.0
71.4574 64.0
71.4722 62.0
71.4869 80.0
71.5017 64.0
71.5165 61.0
71.5312 83.0
71.546 65.0
71.5608 69.0
71.5756 81.0
71.5903 81.0
71.6051 63.0
71.6199 76.0
71.6346 76.0
71.6494 52.0
71.6642 73.0
71.679 86.0
71.6937 63.0
71.7085 75.0
71.7233 63.0
71.738 69.0
71.7528 73.0
71.7676 69.0
71.7824 81.0
71.7971 58.0
71.8119 72.0
71.8267 70.0
71.8414 70.0
71.8562 70.0
71.871 62.0
71.8858 89.0
71.9005 76.0
71.9153 80.0
71.9301 72.0
71.9449 72.0
71.9596 60.0
71.9744 58.0
71.9892 71.0
72.0039 56.0
72.0187 77.0
72.0335 64.0
72.0483 67.0
72.063 64.0
72.0778 72.0
72.0926 58.0
72.1073 77.0
72.1221 66.0
72.1369 77.0
72.1517 55.0
72.1664 57.0
72.1812 68.0
72.196 81.0
72.2107 81.0
72.2255 76.0
72.2403 67.0
72.2551 74.0
72.2698 72.0
72.2846 67.0
72.2994 81.0
72.3141 66.0
72.3289 65.0
72.3437 64.0
72.3585 71.0
72.3732 68.0
72.388 53.0
72.4028 64.0
72.4175 68.0
72.4323 79.0
72.4471 71.0
72.4619 68.0
72.4766 75.0
72.4914 65.0
72.5062 69.0
72.5209 73.0
72.5357 90.0
72.5505 77.0
72.5653 86.0
72.58 59.0
72.5948 66.0
72.6096 63.0
72.6243 67.0
72.6391 69.0
72.6539 67.0
72.6687 67.0
72.6834 67.0
72.6982 62.0
72.713 67.0
72.7277 84.0
72.7425 70.0
72.7573 74.0
72.7721 58.0
72.7868 77.0
72.8016 68.0
72.8164 66.0
72.8311 59.0
72.8459 66.0
72.8607 62.0
72.8755 59.0
72.8902 58.0
72.905 67.0
72.9198 55.0
72.9345 64.0
72.9493 74.0
72.9641 69.0
72.9789 62.0
72.9936 68.0
73.0084 64.0
73.0232 62.0
73.0379 73.0
73.0527 71.0
73.0675 62.0
73.0823 67.0
73.097 61.0
73.1118 67.0
73.1266 79.0
73.1413 67.0
73.1561 71.0
73.1709 62.0
73.1857 58.0
73.2004 69.0
73.2152 52.0
73.23 54.0
73.2447 63.0
73.2595 70.0
73.2743 53.0
73.2891 67.0
73.3038 57.0
73.3186 84.0
73.3334 62.0
73.3481 55.0
73.3629 71.0
73.3777 62.0
73.3925 65.0
73.4072 60.0
73.422 58.0
73.4368 69.0
73.4516 54.0
73.4663 60.0
73.4811 66.0
73.4959 67.0
73.5106 56.0
73.5254 58.0
73.5402 71.0
73.555 59.0
73.5697 63.0
73.5845 47.0
73.5993 63.0
73.614 55.0
73.6288 57.0
73.6436 56.0
73.6584 63.0
73.6731 58.0
73.6879 68.0
73.7027 68.0
73.7174 54.0
73.7322 62.0
73.747 63.0
73.7618 51.0
73.7765 65.0
73.7913 78.0
73.8061 64.0
73.8208 70.0
73.8356 58.0
73.8504 50.0
73.8652 78.0
73.8799 70.0
73.8947 61.0
73.9095 63.0
73.9242 73.0
73.939 65.0
73.9538 58.0
73.9686 62.0
73.9833 50.0
73.9981 74.0
74.0129 59.0
74.0276 68.0
74.0424 66.0
74.0572 58.0
74.072 55.0
74.0867 71.0
74.1015 59.0
74.1163 68.0
74.131 64.0
74.1458 68.0
74.1606 64.0
74.1754 62.0
74.1901 62.0
74.2049 66.0
74.2197 67.0
74.2344 68.0
74.2492 79.0
74.264 84.0
74.2788 57.0
74.2935 70.0
74.3083 70.0
74.3231 64.0
74.3378 69.0
74.3526 68.0
74.3674 60.0
74.3822 55.0
74.3969 54.0
74.4117 78.0
74.4265 66.0
74.4412 66.0
74.456 54.0
74.4708 69.0
74.4856 69.0
74.5003 61.0
74.5151 65.0
74.5299 65.0
74.5446 64.0
74.5594 49.0
74.5742 64.0
74.589 61.0
74.6037 67.0
74.6185 54.0
74.6333 71.0
74.648 58.0
74.6628 63.0
74.6776 59.0
74.6924 56.0
74.7071 67.0
74.7219 53.0
74.7367 64.0
74.7514 70.0
74.7662 58.0
74.781 60.0
74.7958 72.0
74.8105 68.0
74.8253 54.0
74.8401 61.0
74.8548 61.0
74.8696 60.0
74.8844 64.0
74.8992 61.0
74.9139 63.0
74.9287 61.0
74.9435 65.0
74.9583 69.0
74.973 71.0
74.9878 60.0
74.9976 63.0