File: data/W6855a/XRD_2ThetaOmega/W6855a_absolute_2th-om_10-130deg_PIXscan_17min_12.xy
10.0035 26.0
10.0872 35.0
10.1709 20.0
10.2546 31.0
10.3383 19.0
10.422 19.0
10.5057 17.0
10.5894 23.0
10.6731 22.0
10.7568 30.0
10.8405 27.0
10.9242 26.0
11.0079 16.0
11.0916 26.0
11.1753 33.0
11.259 16.0
11.3428 20.0
11.4265 24.0
11.5102 23.0
11.5939 27.0
11.6776 25.0
11.7613 32.0
11.845 16.0
11.9287 16.0
12.0124 23.0
12.0961 16.0
12.1798 24.0
12.2635 25.0
12.3472 23.0
12.4309 27.0
12.5146 21.0
12.5983 20.0
12.682 15.0
12.7657 24.0
12.8495 16.0
12.9332 25.0
13.0169 22.0
13.1006 22.0
13.1843 31.0
13.268 22.0
13.3517 20.0
13.4354 17.0
13.5191 23.0
13.6028 22.0
13.6865 25.0
13.7702 15.0
13.8539 19.0
13.9376 22.0
14.0213 17.0
14.105 24.0
14.1887 24.0
14.2724 17.0
14.3562 20.0
14.4399 22.0
14.5236 25.0
14.6073 17.0
14.691 22.0
14.7747 21.0
14.8584 18.0
14.9421 18.0
15.0258 22.0
15.1095 19.0
15.1932 19.0
15.2769 29.0
15.3606 19.0
15.4443 21.0
15.528 11.0
15.6117 19.0
15.6954 12.0
15.7791 18.0
15.8629 15.0
15.9466 20.0
16.0303 14.0
16.114 22.0
16.1977 23.0
16.2814 20.0
16.3651 13.0
16.4488 20.0
16.5325 21.0
16.6162 16.0
16.6999 24.0
16.7836 21.0
16.8673 27.0
16.951 19.0
17.0347 16.0
17.1184 20.0
17.2021 22.0
17.2858 13.0
17.3696 13.0
17.4533 22.0
17.537 15.0
17.6207 17.0
17.7044 16.0
17.7881 16.0
17.8718 22.0
17.9555 18.0
18.0392 18.0
18.1229 13.0
18.2066 11.0
18.2903 11.0
18.374 11.0
18.4577 16.0
18.5414 18.0
18.6251 15.0
18.7088 10.0
18.7925 20.0
18.8763 17.0
18.96 15.0
19.0437 16.0
19.1274 11.0
19.2111 15.0
19.2948 9.0
19.3785 16.0
19.4622 18.0
19.5459 18.0
19.6296 15.0
19.7133 17.0
19.797 22.0
19.8807 18.0
19.9644 14.0
20.0481 17.0
20.1318 18.0
20.2155 14.0
20.2992 12.0
20.383 14.0
20.4667 12.0
20.5504 14.0
20.6341 19.0
20.7178 12.0
20.8015 11.0
20.8852 14.0
20.9689 7.0
21.0526 16.0
21.1363 21.0
21.22 10.0
21.3037 23.0
21.3874 14.0
21.4711 12.0
21.5548 13.0
21.6385 10.0
21.7222 14.0
21.8059 16.0
21.8897 17.0
21.9734 19.0
22.0571 15.0
22.1408 13.0
22.2245 18.0
22.3082 17.0
22.3919 17.0
22.4756 12.0
22.5593 19.0
22.643 16.0
22.7267 14.0
22.8104 16.0
22.8941 13.0
22.9778 18.0
23.0615 8.0
23.1452 14.0
23.2289 17.0
23.3126 13.0
23.3964 13.0
23.4801 10.0
23.5638 10.0
23.6475 10.0
23.7312 10.0
23.8149 15.0
23.8986 13.0
23.9823 16.0
24.066 13.0
24.1497 18.0
24.2334 12.0
24.3171 11.0
24.4008 11.0
24.4845 7.0
24.5682 7.0
24.6519 15.0
24.7356 16.0
24.8193 7.0
24.9031 7.0
24.9868 12.0
25.0705 13.0
25.1542 15.0
25.2379 2.0
25.3216 12.0
25.4053 11.0
25.489 9.0
25.5727 13.0
25.6564 9.0
25.7401 15.0
25.8238 14.0
25.9075 6.0
25.9912 17.0
26.0749 9.0
26.1586 11.0
26.2423 11.0
26.326 9.0
26.4098 11.0
26.4935 13.0
26.5772 11.0
26.6609 7.0
26.7446 10.0
26.8283 12.0
26.912 12.0
26.9957 13.0
27.0794 12.0
27.1631 7.0
27.2468 16.0
27.3305 10.0
27.4142 9.0
27.4979 16.0
27.5816 18.0
27.6653 10.0
27.749 11.0
27.8327 15.0
27.9165 20.0
28.0002 8.0
28.0839 7.0
28.1676 18.0
28.2513 11.0
28.335 10.0
28.4187 10.0
28.5024 14.0
28.5861 6.0
28.6698 20.0
28.7535 8.0
28.8372 18.0
28.9209 7.0
29.0046 11.0
29.0883 16.0
29.172 10.0
29.2557 14.0
29.3394 15.0
29.4232 11.0
29.5069 10.0
29.5906 6.0
29.6743 20.0
29.758 11.0
29.8417 12.0
29.9254 10.0
30.0091 12.0
30.0928 14.0
30.1765 11.0
30.2602 10.0
30.3439 12.0
30.4276 11.0
30.5113 13.0
30.595 14.0
30.6787 8.0
30.7624 14.0
30.8461 12.0
30.9298 21.0
31.0136 12.0
31.0973 6.0
31.181 19.0
31.2647 7.0
31.3484 17.0
31.4321 20.0
31.5158 15.0
31.5995 11.0
31.6832 13.0
31.7669 12.0
31.8506 15.0
31.9343 17.0
32.018 12.0
32.1017 7.0
32.1854 10.0
32.2691 13.0
32.3528 18.0
32.4365 9.0
32.5203 17.0
32.604 11.0
32.6877 10.0
32.7714 14.0
32.8551 24.0
32.9388 10.0
33.0225 10.0
33.1062 10.0
33.1899 10.0
33.2736 11.0
33.3573 13.0
33.441 9.0
33.5247 19.0
33.6084 11.0
33.6921 11.0
33.7758 16.0
33.8595 27.0
33.9432 85.0
34.027 23.0
34.1107 19.0
34.1944 21.0
34.2781 16.0
34.3618 12.0
34.4455 23.0
34.5292 21.0
34.6129 26.0
34.6966 28.0
34.7803 16.0
34.864 24.0
34.9477 41.0
35.0314 55.0
35.1151 63.0
35.1988 125.0
35.2825 317.0
35.3662 1051.0
35.4499 1972.0
35.5337 1452.0
35.6174 641.0
35.7011 274.0
35.7848 139.0
35.8685 107.0
35.9522 87.0
36.0359 162.0
36.1196 107.0
36.2033 53.0
36.287 47.0
36.3707 77.0
36.4544 31.0
36.5381 31.0
36.6218 43.0
36.7055 31.0
36.7892 28.0
36.8729 19.0
36.9566 41.0
37.0404 36.0
37.1241 44.0
37.2078 49.0
37.2915 50.0
37.3752 81.0
37.4589 143.0
37.5426 440.0
37.6263 1019.0
37.71 31710.0
37.7937 18241.0
37.8774 730.0
37.9611 299.0
38.0448 171.0
38.1285 129.0
38.2122 112.0
38.2959 96.0
38.3796 88.0
38.4633 75.0
38.5471 70.0
38.6308 54.0
38.7145 53.0
38.7982 48.0
38.8819 44.0
38.9656 46.0
39.0493 40.0
39.133 34.0
39.2167 15.0
39.3004 26.0
39.3841 21.0
39.4678 18.0
39.5515 19.0
39.6352 20.0
39.7189 24.0
39.8026 22.0
39.8863 10.0
39.97 18.0
40.0538 18.0
40.1375 12.0
40.2212 13.0
40.3049 15.0
40.3886 18.0
40.4723 13.0
40.556 15.0
40.6397 12.0
40.7234 13.0
40.8071 15.0
40.8908 12.0
40.9745 14.0
41.0582 20.0
41.1419 10.0
41.2256 14.0
41.3093 9.0
41.393 25.0
41.4767 16.0
41.5605 6.0
41.6442 18.0
41.7279 13.0
41.8116 20.0
41.8953 5.0
41.979 10.0
42.0627 12.0
42.1464 15.0
42.2301 11.0
42.3138 13.0
42.3975 14.0
42.4812 10.0
42.5649 12.0
42.6486 15.0
42.7323 10.0
42.816 12.0
42.8997 15.0
42.9834 12.0
43.0672 14.0
43.1509 14.0
43.2346 14.0
43.3183 14.0
43.402 15.0
43.4857 10.0
43.5694 14.0
43.6531 10.0
43.7368 21.0
43.8205 12.0
43.9042 17.0
43.9879 17.0
44.0716 18.0
44.1553 16.0
44.239 28.0
44.3227 27.0
44.4064 19.0
44.4901 25.0
44.5739 15.0
44.6576 9.0
44.7413 15.0
44.825 13.0
44.9087 13.0
44.9924 11.0
45.0761 8.0
45.1598 17.0
45.2435 14.0
45.3272 13.0
45.4109 7.0
45.4946 6.0
45.5783 10.0
45.662 15.0
45.7457 13.0
45.8294 12.0
45.9131 16.0
45.9968 8.0
46.0806 9.0
46.1643 15.0
46.248 10.0
46.3317 9.0
46.4154 6.0
46.4991 6.0
46.5828 11.0
46.6665 10.0
46.7502 13.0
46.8339 7.0
46.9176 8.0
47.0013 11.0
47.085 14.0
47.1687 13.0
47.2524 11.0
47.3361 15.0
47.4198 9.0
47.5035 7.0
47.5873 11.0
47.671 10.0
47.7547 9.0
47.8384 6.0
47.9221 14.0
48.0058 9.0
48.0895 19.0
48.1732 10.0
48.2569 9.0
48.3406 9.0
48.4243 8.0
48.508 8.0
48.5917 9.0
48.6754 6.0
48.7591 11.0
48.8428 12.0
48.9265 5.0
49.0102 6.0
49.094 13.0
49.1777 8.0
49.2614 10.0
49.3451 17.0
49.4288 10.0
49.5125 9.0
49.5962 10.0
49.6799 6.0
49.7636 12.0
49.8473 14.0
49.931 6.0
50.0147 7.0
50.0984 10.0
50.1821 8.0
50.2658 11.0
50.3495 6.0
50.4332 9.0
50.5169 12.0
50.6007 10.0
50.6844 8.0
50.7681 10.0
50.8518 8.0
50.9355 9.0
51.0192 8.0
51.1029 11.0
51.1866 10.0
51.2703 10.0
51.354 12.0
51.4377 16.0
51.5214 16.0
51.6051 5.0
51.6888 8.0
51.7725 7.0
51.8562 9.0
51.9399 10.0
52.0236 16.0
52.1074 15.0
52.1911 13.0
52.2748 18.0
52.3585 11.0
52.4422 15.0
52.5259 9.0
52.6096 12.0
52.6933 4.0
52.777 16.0
52.8607 7.0
52.9444 8.0
53.0281 10.0
53.1118 7.0
53.1955 12.0
53.2792 6.0
53.3629 9.0
53.4466 13.0
53.5303 8.0
53.6141 16.0
53.6978 13.0
53.7815 14.0
53.8652 7.0
53.9489 8.0
54.0326 12.0
54.1163 10.0
54.2 7.0
54.2837 5.0
54.3674 8.0
54.4511 10.0
54.5348 13.0
54.6185 10.0
54.7022 10.0
54.7859 9.0
54.8696 14.0
54.9533 8.0
55.037 12.0
55.1208 13.0
55.2045 11.0
55.2882 18.0
55.3719 16.0
55.4556 6.0
55.5393 13.0
55.623 18.0
55.7067 9.0
55.7904 17.0
55.8741 10.0
55.9578 15.0
56.0415 17.0
56.1252 10.0
56.2089 15.0
56.2926 8.0
56.3763 11.0
56.46 14.0
56.5437 9.0
56.6275 5.0
56.7112 7.0
56.7949 9.0
56.8786 7.0
56.9623 13.0
57.046 17.0
57.1297 7.0
57.2134 9.0
57.2971 10.0
57.3808 14.0
57.4645 12.0
57.5482 10.0
57.6319 13.0
57.7156 12.0
57.7993 11.0
57.883 6.0
57.9667 15.0
58.0504 12.0
58.1342 11.0
58.2179 8.0
58.3016 12.0
58.3853 11.0
58.469 20.0
58.5527 7.0
58.6364 13.0
58.7201 10.0
58.8038 10.0
58.8875 12.0
58.9712 12.0
59.0549 11.0
59.1386 14.0
59.2223 6.0
59.306 6.0
59.3897 12.0
59.4734 14.0
59.5571 10.0
59.6409 5.0
59.7246 10.0
59.8083 10.0
59.892 10.0
59.9757 13.0
60.0594 11.0
60.1431 11.0
60.2268 10.0
60.3105 6.0
60.3942 14.0
60.4779 11.0
60.5616 14.0
60.6453 8.0
60.729 10.0
60.8127 11.0
60.8964 9.0
60.9801 7.0
61.0638 13.0
61.1476 14.0
61.2313 10.0
61.315 8.0
61.3987 12.0
61.4824 14.0
61.5661 5.0
61.6498 14.0
61.7335 11.0
61.8172 4.0
61.9009 8.0
61.9846 10.0
62.0683 9.0
62.152 12.0
62.2357 8.0
62.3194 13.0
62.4031 6.0
62.4868 7.0
62.5705 6.0
62.6543 17.0
62.738 13.0
62.8217 12.0
62.9054 19.0
62.9891 11.0
63.0728 10.0
63.1565 11.0
63.2402 8.0
63.3239 9.0
63.4076 7.0
63.4913 16.0
63.575 12.0
63.6587 12.0
63.7424 12.0
63.8261 10.0
63.9098 12.0
63.9935 11.0
64.0772 7.0
64.161 13.0
64.2447 13.0
64.3284 12.0
64.4121 16.0
64.4958 13.0
64.5795 13.0
64.6632 13.0
64.7469 9.0
64.8306 18.0
64.9143 11.0
64.998 11.0
65.0817 10.0
65.1654 7.0
65.2491 12.0
65.3328 12.0
65.4165 9.0
65.5002 8.0
65.5839 9.0
65.6677 15.0
65.7514 6.0
65.8351 12.0
65.9188 13.0
66.0025 11.0
66.0862 14.0
66.1699 13.0
66.2536 14.0
66.3373 18.0
66.421 14.0
66.5047 9.0
66.5884 7.0
66.6721 10.0
66.7558 11.0
66.8395 16.0
66.9232 9.0
67.0069 9.0
67.0906 10.0
67.1744 9.0
67.2581 12.0
67.3418 12.0
67.4255 13.0
67.5092 13.0
67.5929 9.0
67.6766 5.0
67.7603 16.0
67.844 15.0
67.9277 9.0
68.0114 15.0
68.0951 8.0
68.1788 12.0
68.2625 12.0
68.3462 12.0
68.4299 16.0
68.5136 15.0
68.5973 11.0
68.6811 10.0
68.7648 8.0
68.8485 14.0
68.9322 13.0
69.0159 10.0
69.0996 10.0
69.1833 15.0
69.267 14.0
69.3507 10.0
69.4344 12.0
69.5181 14.0
69.6018 6.0
69.6855 11.0
69.7692 16.0
69.8529 10.0
69.9366 4.0
70.0203 9.0
70.104 11.0
70.1878 12.0
70.2715 12.0
70.3552 10.0
70.4389 15.0
70.5226 14.0
70.6063 8.0
70.69 10.0
70.7737 15.0
70.8574 8.0
70.9411 10.0
71.0248 13.0
71.1085 16.0
71.1922 11.0
71.2759 12.0
71.3596 10.0
71.4433 18.0
71.527 23.0
71.6107 19.0
71.6945 19.0
71.7782 11.0
71.8619 12.0
71.9456 8.0
72.0293 11.0
72.113 17.0
72.1967 14.0
72.2804 13.0
72.3641 19.0
72.4478 14.0
72.5315 9.0
72.6152 13.0
72.6989 11.0
72.7826 12.0
72.8663 8.0
72.95 14.0
73.0337 14.0
73.1174 12.0
73.2012 9.0
73.2849 16.0
73.3686 13.0
73.4523 10.0
73.536 13.0
73.6197 12.0
73.7034 14.0
73.7871 8.0
73.8708 17.0
73.9545 21.0
74.0382 14.0
74.1219 14.0
74.2056 18.0
74.2893 6.0
74.373 25.0
74.4567 11.0
74.5404 15.0
74.6241 12.0
74.7079 22.0
74.7916 31.0
74.8753 43.0
74.959 56.0
75.0427 74.0
75.1264 79.0
75.2101 90.0
75.2938 83.0
75.3775 65.0
75.4612 46.0
75.5449 40.0
75.6286 33.0
75.7123 22.0
75.796 14.0
75.8797 23.0
75.9634 19.0
76.0471 12.0
76.1308 26.0
76.2146 26.0
76.2983 17.0
76.382 19.0
76.4657 19.0
76.5494 17.0
76.6331 52.0
76.7168 25.0
76.8005 21.0
76.8842 11.0
76.9679 14.0
77.0516 10.0
77.1353 17.0
77.219 11.0
77.3027 24.0
77.3864 16.0
77.4701 11.0
77.5538 15.0
77.6375 8.0
77.7213 16.0
77.805 15.0
77.8887 14.0
77.9724 18.0
78.0561 13.0
78.1398 12.0
78.2235 16.0
78.3072 8.0
78.3909 10.0
78.4746 16.0
78.5583 15.0
78.642 11.0
78.7257 13.0
78.8094 14.0
78.8931 16.0
78.9768 10.0
79.0605 11.0
79.1442 11.0
79.228 14.0
79.3117 19.0
79.3954 20.0
79.4791 17.0
79.5628 15.0
79.6465 14.0
79.7302 22.0
79.8139 21.0
79.8976 18.0
79.9813 20.0
80.065 33.0
80.1487 41.0
80.2324 73.0
80.3161 64.0
80.3998 84.0
80.4835 160.0
80.5672 895.0
80.6509 7120.0
80.7347 494.0
80.8184 887.0
80.9021 3145.0
80.9858 198.0
81.0695 92.0
81.1532 56.0
81.2369 56.0
81.3206 30.0
81.4043 31.0
81.488 44.0
81.5717 34.0
81.6554 34.0
81.7391 31.0
81.8228 26.0
81.9065 27.0
81.9902 35.0
82.0739 18.0
82.1576 22.0
82.2414 29.0
82.3251 18.0
82.4088 25.0
82.4925 28.0
82.5762 16.0
82.6599 18.0
82.7436 12.0
82.8273 20.0
82.911 18.0
82.9947 19.0
83.0784 10.0
83.1621 14.0
83.2458 13.0
83.3295 16.0
83.4132 25.0
83.4969 18.0
83.5806 19.0
83.6643 10.0
83.7481 15.0
83.8318 10.0
83.9155 9.0
83.9992 19.0
84.0829 14.0
84.1666 16.0
84.2503 17.0
84.334 20.0
84.4177 14.0
84.5014 16.0
84.5851 16.0
84.6688 9.0
84.7525 13.0
84.8362 14.0
84.9199 13.0
85.0036 12.0
85.0873 14.0
85.171 8.0
85.2548 14.0
85.3385 13.0
85.4222 19.0
85.5059 8.0
85.5896 14.0
85.6733 13.0
85.757 13.0
85.8407 10.0
85.9244 10.0
86.0081 15.0
86.0918 15.0
86.1755 6.0
86.2592 16.0
86.3429 11.0
86.4266 10.0
86.5103 16.0
86.594 12.0
86.6777 6.0
86.7615 9.0
86.8452 13.0
86.9289 15.0
87.0126 16.0
87.0963 17.0
87.18 6.0
87.2637 5.0
87.3474 10.0
87.4311 9.0
87.5148 15.0
87.5985 11.0
87.6822 5.0
87.7659 15.0
87.8496 16.0
87.9333 11.0
88.017 15.0
88.1007 12.0
88.1844 11.0
88.2682 17.0
88.3519 12.0
88.4356 11.0
88.5193 9.0
88.603 14.0
88.6867 8.0
88.7704 11.0
88.8541 8.0
88.9378 10.0
89.0215 17.0
89.1052 11.0
89.1889 14.0
89.2726 11.0
89.3563 9.0
89.44 13.0
89.5237 14.0
89.6074 14.0
89.6911 17.0
89.7749 9.0
89.8586 11.0
89.9423 12.0
90.026 10.0
90.1097 16.0
90.1934 6.0
90.2771 15.0
90.3608 10.0
90.4445 13.0
90.5282 13.0
90.6119 6.0
90.6956 14.0
90.7793 15.0
90.863 7.0
90.9467 19.0
91.0304 14.0
91.1141 8.0
91.1978 5.0
91.2816 13.0
91.3653 11.0
91.449 12.0
91.5327 14.0
91.6164 5.0
91.7001 11.0
91.7838 18.0
91.8675 8.0
91.9512 8.0
92.0349 6.0
92.1186 15.0
92.2023 12.0
92.286 4.0
92.3697 17.0
92.4534 6.0
92.5371 15.0
92.6208 10.0
92.7045 9.0
92.7883 11.0
92.872 9.0
92.9557 11.0
93.0394 11.0
93.1231 12.0
93.2068 15.0
93.2905 6.0
93.3742 8.0
93.4579 12.0
93.5416 15.0
93.6253 6.0
93.709 9.0
93.7927 14.0
93.8764 8.0
93.9601 10.0
94.0438 14.0
94.1275 16.0
94.2112 8.0
94.295 16.0
94.3787 17.0
94.4624 9.0
94.5461 11.0
94.6298 16.0
94.7135 9.0
94.7972 14.0
94.8809 10.0
94.9646 15.0
95.0483 14.0
95.132 13.0
95.2157 13.0
95.2994 14.0
95.3831 15.0
95.4668 13.0
95.5505 18.0
95.6342 11.0
95.7179 10.0
95.8017 5.0
95.8854 8.0
95.9691 12.0
96.0528 16.0
96.1365 9.0
96.2202 17.0
96.3039 16.0
96.3876 11.0
96.4713 9.0
96.555 7.0
96.6387 13.0
96.7224 11.0
96.8061 17.0
96.8898 12.0
96.9735 7.0
97.0572 9.0
97.1409 16.0
97.2246 12.0
97.3084 11.0
97.3921 13.0
97.4758 6.0
97.5595 13.0
97.6432 12.0
97.7269 26.0
97.8106 9.0
97.8943 15.0
97.978 11.0
98.0617 16.0
98.1454 14.0
98.2291 8.0
98.3128 15.0
98.3965 10.0
98.4802 18.0
98.5639 13.0
98.6476 13.0
98.7313 10.0
98.8151 11.0
98.8988 17.0
98.9825 13.0
99.0662 15.0
99.1499 17.0
99.2336 14.0
99.3173 10.0
99.401 11.0
99.4847 10.0
99.5684 12.0
99.6521 14.0
99.7358 15.0
99.8195 10.0
99.9032 17.0
99.9869 19.0
100.071 11.0
100.154 13.0
100.238 11.0
100.322 18.0
100.405 8.0
100.489 11.0
100.573 16.0
100.657 12.0
100.74 8.0
100.824 12.0
100.908 10.0
100.991 12.0
101.075 8.0
101.159 9.0
101.243 15.0
101.326 12.0
101.41 8.0
101.494 10.0
101.577 14.0
101.661 14.0
101.745 18.0
101.828 15.0
101.912 14.0
101.996 8.0
102.08 10.0
102.163 10.0
102.247 10.0
102.331 7.0
102.414 23.0
102.498 12.0
102.582 12.0
102.666 12.0
102.749 9.0
102.833 16.0
102.917 15.0
103 12.0
103.084 8.0
103.168 12.0
103.251 10.0
103.335 9.0
103.419 17.0
103.503 20.0
103.586 20.0
103.67 14.0
103.754 18.0
103.837 17.0
103.921 10.0
104.005 13.0
104.089 9.0
104.172 10.0
104.256 9.0
104.34 10.0
104.423 16.0
104.507 8.0
104.591 19.0
104.674 14.0
104.758 13.0
104.842 16.0
104.926 8.0
105.009 12.0
105.093 15.0
105.177 9.0
105.26 16.0
105.344 17.0
105.428 5.0
105.511 21.0
105.595 10.0
105.679 12.0
105.763 16.0
105.846 16.0
105.93 23.0
106.014 12.0
106.097 8.0
106.181 20.0
106.265 11.0
106.349 12.0
106.432 9.0
106.516 13.0
106.6 10.0
106.683 9.0
106.767 8.0
106.851 8.0
106.934 9.0
107.018 7.0
107.102 7.0
107.186 16.0
107.269 12.0
107.353 13.0
107.437 9.0
107.52 17.0
107.604 14.0
107.688 14.0
107.772 16.0
107.855 13.0
107.939 16.0
108.023 17.0
108.106 11.0
108.19 17.0
108.274 7.0
108.357 15.0
108.441 15.0
108.525 15.0
108.609 8.0
108.692 11.0
108.776 11.0
108.86 16.0
108.943 6.0
109.027 19.0
109.111 9.0
109.195 9.0
109.278 12.0
109.362 14.0
109.446 16.0
109.529 10.0
109.613 5.0
109.697 16.0
109.78 15.0
109.864 18.0
109.948 10.0
110.032 16.0
110.115 10.0
110.199 16.0
110.283 8.0
110.366 8.0
110.45 12.0
110.534 19.0
110.618 19.0
110.701 16.0
110.785 10.0
110.869 17.0
110.952 18.0
111.036 21.0
111.12 10.0
111.203 13.0
111.287 19.0
111.371 16.0
111.455 10.0
111.538 13.0
111.622 21.0
111.706 13.0
111.789 17.0
111.873 9.0
111.957 18.0
112.041 10.0
112.124 7.0
112.208 4.0
112.292 13.0
112.375 14.0
112.459 9.0
112.543 4.0
112.626 5.0
112.71 10.0
112.794 15.0
112.878 7.0
112.961 12.0
113.045 16.0
113.129 13.0
113.212 6.0
113.296 14.0
113.38 15.0
113.464 11.0
113.547 13.0
113.631 11.0
113.715 12.0
113.798 9.0
113.882 9.0
113.966 10.0
114.049 11.0
114.133 18.0
114.217 14.0
114.301 10.0
114.384 12.0
114.468 13.0
114.552 17.0
114.635 11.0
114.719 9.0
114.803 9.0
114.887 15.0
114.97 17.0
115.054 13.0
115.138 12.0
115.221 12.0
115.305 12.0
115.389 21.0
115.472 10.0
115.556 17.0
115.64 15.0
115.724 15.0
115.807 19.0
115.891 11.0
115.975 14.0
116.058 18.0
116.142 9.0
116.226 15.0
116.31 15.0
116.393 10.0
116.477 9.0
116.561 12.0
116.644 13.0
116.728 13.0
116.812 11.0
116.895 8.0
116.979 13.0
117.063 12.0
117.147 14.0
117.23 17.0
117.314 14.0
117.398 15.0
117.481 15.0
117.565 15.0
117.649 11.0
117.733 10.0
117.816 9.0
117.9 11.0
117.984 14.0
118.067 13.0
118.151 10.0
118.235 13.0
118.318 16.0
118.402 9.0
118.486 12.0
118.57 17.0
118.653 5.0
118.737 18.0
118.821 10.0
118.904 16.0
118.988 8.0
119.072 11.0
119.156 10.0
119.239 4.0
119.323 13.0
119.407 17.0
119.49 11.0
119.574 17.0
119.658 12.0
119.741 11.0
119.825 17.0
119.909 15.0
119.993 17.0
120.076 6.0
120.16 11.0
120.244 12.0
120.327 10.0
120.411 18.0
120.495 5.0
120.578 12.0
120.662 11.0
120.746 14.0
120.83 6.0
120.913 10.0
120.997 10.0
121.081 14.0
121.164 12.0
121.248 19.0
121.332 10.0
121.416 6.0
121.499 10.0
121.583 9.0
121.667 15.0
121.75 15.0
121.834 10.0
121.918 14.0
122.001 9.0
122.085 12.0
122.169 23.0
122.253 11.0
122.336 11.0
122.42 11.0
122.504 12.0
122.587 24.0
122.671 21.0
122.755 32.0
122.839 15.0
122.922 12.0
123.006 18.0
123.09 11.0
123.173 10.0
123.257 16.0
123.341 5.0
123.424 6.0
123.508 12.0
123.592 16.0
123.676 13.0
123.759 18.0
123.843 18.0
123.927 11.0
124.01 11.0
124.094 16.0
124.178 10.0
124.262 14.0
124.345 10.0
124.429 20.0
124.513 10.0
124.596 11.0
124.68 16.0
124.764 15.0
124.847 7.0
124.931 14.0
125.015 15.0
125.099 13.0
125.182 16.0
125.266 9.0
125.35 9.0
125.433 9.0
125.517 10.0
125.601 13.0
125.685 17.0
125.768 10.0
125.852 9.0
125.936 12.0
126.019 5.0
126.103 12.0
126.187 16.0
126.27 14.0
126.354 23.0
126.438 13.0
126.522 12.0
126.605 14.0
126.689 12.0
126.773 12.0
126.856 18.0
126.94 13.0
127.024 11.0
127.108 8.0
127.191 9.0
127.275 17.0
127.359 14.0
127.442 12.0
127.526 13.0
127.61 17.0
127.693 15.0
127.777 15.0
127.861 12.0
127.945 14.0
128.028 7.0
128.112 8.0
128.196 19.0
128.279 14.0
128.363 8.0
128.447 10.0
128.531 19.0
128.614 10.0
128.698 12.0
128.782 12.0
128.865 10.0
128.949 14.0
129.033 7.0
129.116 15.0
129.2 13.0
129.284 12.0
129.368 8.0
129.451 12.0
129.535 15.0
129.619 23.0
129.702 16.0
129.786 8.0
129.87 16.0
129.954 9.0
129.998 18.0