File: data/W6905m/XRD_2ThetaOmega/scan_2th-om_m_Cr2O3_55-75deg_PIXscan_4min_C6.xy
55.0019 109.0
55.0166 106.0
55.0314 106.0
55.0462 120.0
55.0609 116.0
55.0757 94.0
55.0905 106.0
55.1053 117.0
55.12 114.0
55.1348 107.0
55.1496 110.0
55.1643 122.0
55.1791 99.0
55.1939 122.0
55.2087 104.0
55.2234 113.0
55.2382 111.0
55.253 114.0
55.2678 133.0
55.2825 107.0
55.2973 106.0
55.3121 110.0
55.3268 114.0
55.3416 109.0
55.3564 95.0
55.3712 117.0
55.3859 100.0
55.4007 109.0
55.4155 108.0
55.4302 137.0
55.445 129.0
55.4598 99.0
55.4746 110.0
55.4893 126.0
55.5041 113.0
55.5189 104.0
55.5336 122.0
55.5484 131.0
55.5632 115.0
55.578 106.0
55.5927 113.0
55.6075 118.0
55.6223 120.0
55.637 109.0
55.6518 120.0
55.6666 104.0
55.6814 123.0
55.6961 107.0
55.7109 111.0
55.7257 93.0
55.7404 98.0
55.7552 114.0
55.77 127.0
55.7848 123.0
55.7995 94.0
55.8143 118.0
55.8291 109.0
55.8438 115.0
55.8586 118.0
55.8734 110.0
55.8882 113.0
55.9029 111.0
55.9177 114.0
55.9325 107.0
55.9472 115.0
55.962 115.0
55.9768 121.0
55.9916 103.0
56.0063 117.0
56.0211 144.0
56.0359 101.0
56.0506 101.0
56.0654 115.0
56.0802 113.0
56.095 98.0
56.1097 114.0
56.1245 101.0
56.1393 113.0
56.154 112.0
56.1688 123.0
56.1836 102.0
56.1984 117.0
56.2131 114.0
56.2279 104.0
56.2427 85.0
56.2574 106.0
56.2722 117.0
56.287 114.0
56.3018 115.0
56.3165 112.0
56.3313 109.0
56.3461 102.0
56.3608 122.0
56.3756 107.0
56.3904 115.0
56.4052 108.0
56.4199 116.0
56.4347 93.0
56.4495 108.0
56.4642 108.0
56.479 114.0
56.4938 118.0
56.5086 113.0
56.5233 118.0
56.5381 106.0
56.5529 95.0
56.5676 107.0
56.5824 116.0
56.5972 109.0
56.612 133.0
56.6267 107.0
56.6415 96.0
56.6563 111.0
56.671 105.0
56.6858 116.0
56.7006 99.0
56.7154 126.0
56.7301 119.0
56.7449 109.0
56.7597 117.0
56.7745 79.0
56.7892 122.0
56.804 134.0
56.8188 131.0
56.8335 107.0
56.8483 136.0
56.8631 118.0
56.8779 111.0
56.8926 114.0
56.9074 116.0
56.9222 108.0
56.9369 127.0
56.9517 132.0
56.9665 112.0
56.9813 113.0
56.996 118.0
57.0108 110.0
57.0256 100.0
57.0403 113.0
57.0551 105.0
57.0699 106.0
57.0847 115.0
57.0994 93.0
57.1142 102.0
57.129 127.0
57.1437 123.0
57.1585 95.0
57.1733 113.0
57.1881 107.0
57.2028 99.0
57.2176 126.0
57.2324 115.0
57.2471 117.0
57.2619 108.0
57.2767 118.0
57.2915 118.0
57.3062 114.0
57.321 121.0
57.3358 103.0
57.3505 133.0
57.3653 140.0
57.3801 118.0
57.3949 136.0
57.4096 110.0
57.4244 125.0
57.4392 113.0
57.4539 117.0
57.4687 131.0
57.4835 119.0
57.4983 123.0
57.513 98.0
57.5278 115.0
57.5426 106.0
57.5573 122.0
57.5721 110.0
57.5869 121.0
57.6017 122.0
57.6164 130.0
57.6312 124.0
57.646 135.0
57.6607 137.0
57.6755 126.0
57.6903 122.0
57.7051 107.0
57.7198 125.0
57.7346 121.0
57.7494 113.0
57.7641 130.0
57.7789 116.0
57.7937 131.0
57.8085 118.0
57.8232 127.0
57.838 146.0
57.8528 133.0
57.8675 121.0
57.8823 115.0
57.8971 109.0
57.9119 113.0
57.9266 110.0
57.9414 118.0
57.9562 121.0
57.9709 129.0
57.9857 112.0
58.0005 110.0
58.0153 122.0
58.03 115.0
58.0448 127.0
58.0596 116.0
58.0743 128.0
58.0891 117.0
58.1039 136.0
58.1187 120.0
58.1334 123.0
58.1482 148.0
58.163 120.0
58.1777 130.0
58.1925 112.0
58.2073 146.0
58.2221 92.0
58.2368 131.0
58.2516 114.0
58.2664 113.0
58.2812 120.0
58.2959 91.0
58.3107 131.0
58.3255 119.0
58.3402 115.0
58.355 134.0
58.3698 134.0
58.3846 109.0
58.3993 132.0
58.4141 131.0
58.4289 121.0
58.4436 131.0
58.4584 103.0
58.4732 113.0
58.488 104.0
58.5027 110.0
58.5175 111.0
58.5323 114.0
58.547 118.0
58.5618 133.0
58.5766 108.0
58.5914 115.0
58.6061 105.0
58.6209 124.0
58.6357 121.0
58.6504 126.0
58.6652 126.0
58.68 107.0
58.6948 96.0
58.7095 118.0
58.7243 105.0
58.7391 113.0
58.7538 96.0
58.7686 121.0
58.7834 110.0
58.7982 126.0
58.8129 122.0
58.8277 137.0
58.8425 112.0
58.8572 122.0
58.872 127.0
58.8868 112.0
58.9016 119.0
58.9163 140.0
58.9311 113.0
58.9459 119.0
58.9606 133.0
58.9754 118.0
58.9902 131.0
59.005 122.0
59.0197 124.0
59.0345 104.0
59.0493 108.0
59.064 125.0
59.0788 119.0
59.0936 113.0
59.1084 106.0
59.1231 133.0
59.1379 123.0
59.1527 131.0
59.1674 115.0
59.1822 133.0
59.197 128.0
59.2118 133.0
59.2265 88.0
59.2413 133.0
59.2561 112.0
59.2708 108.0
59.2856 129.0
59.3004 118.0
59.3152 108.0
59.3299 125.0
59.3447 109.0
59.3595 126.0
59.3742 111.0
59.389 136.0
59.4038 121.0
59.4186 120.0
59.4333 117.0
59.4481 99.0
59.4629 129.0
59.4776 110.0
59.4924 120.0
59.5072 134.0
59.522 125.0
59.5367 103.0
59.5515 107.0
59.5663 117.0
59.581 124.0
59.5958 124.0
59.6106 119.0
59.6254 108.0
59.6401 121.0
59.6549 139.0
59.6697 122.0
59.6844 121.0
59.6992 120.0
59.714 123.0
59.7288 141.0
59.7435 120.0
59.7583 107.0
59.7731 111.0
59.7878 136.0
59.8026 111.0
59.8174 109.0
59.8322 116.0
59.8469 121.0
59.8617 122.0
59.8765 110.0
59.8913 110.0
59.906 110.0
59.9208 122.0
59.9356 143.0
59.9503 135.0
59.9651 125.0
59.9799 120.0
59.9947 121.0
60.0094 120.0
60.0242 124.0
60.039 115.0
60.0537 139.0
60.0685 105.0
60.0833 103.0
60.0981 107.0
60.1128 128.0
60.1276 101.0
60.1424 126.0
60.1571 124.0
60.1719 115.0
60.1867 112.0
60.2015 119.0
60.2162 137.0
60.231 132.0
60.2458 130.0
60.2605 115.0
60.2753 147.0
60.2901 144.0
60.3049 119.0
60.3196 140.0
60.3344 142.0
60.3492 152.0
60.3639 123.0
60.3787 139.0
60.3935 130.0
60.4083 121.0
60.423 144.0
60.4378 125.0
60.4526 153.0
60.4673 130.0
60.4821 123.0
60.4969 129.0
60.5117 131.0
60.5264 125.0
60.5412 112.0
60.556 141.0
60.5707 146.0
60.5855 130.0
60.6003 128.0
60.6151 155.0
60.6298 136.0
60.6446 133.0
60.6594 157.0
60.6741 170.0
60.6889 144.0
60.7037 149.0
60.7185 174.0
60.7332 194.0
60.748 220.0
60.7628 259.0
60.7775 370.0
60.7923 524.0
60.8071 788.0
60.8219 1133.0
60.8366 1311.0
60.8514 1273.0
60.8662 1146.0
60.8809 963.0
60.8957 727.0
60.9105 662.0
60.9253 602.0
60.94 497.0
60.9548 431.0
60.9696 299.0
60.9843 281.0
60.9991 197.0
61.0139 191.0
61.0287 182.0
61.0434 176.0
61.0582 177.0
61.073 160.0
61.0877 166.0
61.1025 164.0
61.1173 145.0
61.1321 149.0
61.1468 162.0
61.1616 174.0
61.1764 144.0
61.1911 155.0
61.2059 152.0
61.2207 138.0
61.2355 151.0
61.2502 142.0
61.265 137.0
61.2798 145.0
61.2945 131.0
61.3093 151.0
61.3241 136.0
61.3389 150.0
61.3536 137.0
61.3684 144.0
61.3832 141.0
61.398 144.0
61.4127 144.0
61.4275 124.0
61.4423 141.0
61.457 140.0
61.4718 164.0
61.4866 124.0
61.5014 126.0
61.5161 128.0
61.5309 141.0
61.5457 135.0
61.5604 123.0
61.5752 131.0
61.59 135.0
61.6048 131.0
61.6195 123.0
61.6343 122.0
61.6491 163.0
61.6638 125.0
61.6786 130.0
61.6934 135.0
61.7082 125.0
61.7229 145.0
61.7377 147.0
61.7525 122.0
61.7672 111.0
61.782 126.0
61.7968 131.0
61.8116 142.0
61.8263 139.0
61.8411 148.0
61.8559 126.0
61.8706 132.0
61.8854 129.0
61.9002 129.0
61.915 136.0
61.9297 139.0
61.9445 138.0
61.9593 147.0
61.974 159.0
61.9888 124.0
62.0036 146.0
62.0184 162.0
62.0331 103.0
62.0479 134.0
62.0627 153.0
62.0774 154.0
62.0922 128.0
62.107 145.0
62.1218 137.0
62.1365 153.0
62.1513 143.0
62.1661 156.0
62.1808 142.0
62.1956 133.0
62.2104 163.0
62.2252 160.0
62.2399 139.0
62.2547 145.0
62.2695 143.0
62.2842 129.0
62.299 130.0
62.3138 132.0
62.3286 155.0
62.3433 155.0
62.3581 125.0
62.3729 142.0
62.3876 143.0
62.4024 143.0
62.4172 162.0
62.432 147.0
62.4467 144.0
62.4615 167.0
62.4763 164.0
62.491 129.0
62.5058 146.0
62.5206 135.0
62.5354 157.0
62.5501 157.0
62.5649 172.0
62.5797 151.0
62.5944 157.0
62.6092 191.0
62.624 160.0
62.6388 155.0
62.6535 130.0
62.6683 163.0
62.6831 167.0
62.6978 159.0
62.7126 174.0
62.7274 160.0
62.7422 166.0
62.7569 157.0
62.7717 159.0
62.7865 170.0
62.8012 162.0
62.816 143.0
62.8308 159.0
62.8456 191.0
62.8603 156.0
62.8751 183.0
62.8899 185.0
62.9047 156.0
62.9194 157.0
62.9342 164.0
62.949 163.0
62.9637 174.0
62.9785 162.0
62.9933 147.0
63.0081 155.0
63.0228 172.0
63.0376 169.0
63.0524 173.0
63.0671 177.0
63.0819 158.0
63.0967 187.0
63.1115 195.0
63.1262 163.0
63.141 166.0
63.1558 180.0
63.1705 172.0
63.1853 192.0
63.2001 161.0
63.2149 189.0
63.2296 183.0
63.2444 172.0
63.2592 175.0
63.2739 222.0
63.2887 167.0
63.3035 179.0
63.3183 180.0
63.333 194.0
63.3478 200.0
63.3626 195.0
63.3773 188.0
63.3921 199.0
63.4069 187.0
63.4217 202.0
63.4364 213.0
63.4512 201.0
63.466 209.0
63.4807 201.0
63.4955 216.0
63.5103 226.0
63.5251 216.0
63.5398 230.0
63.5546 215.0
63.5694 246.0
63.5841 234.0
63.5989 245.0
63.6137 212.0
63.6285 239.0
63.6432 234.0
63.658 242.0
63.6728 279.0
63.6875 294.0
63.7023 270.0
63.7171 278.0
63.7319 276.0
63.7466 269.0
63.7614 287.0
63.7762 278.0
63.7909 304.0
63.8057 347.0
63.8205 304.0
63.8353 324.0
63.85 351.0
63.8648 338.0
63.8796 373.0
63.8943 365.0
63.9091 421.0
63.9239 363.0
63.9387 426.0
63.9534 386.0
63.9682 438.0
63.983 480.0
63.9977 501.0
64.0125 509.0
64.0273 514.0
64.0421 506.0
64.0568 608.0
64.0716 584.0
64.0864 630.0
64.1011 660.0
64.1159 670.0
64.1307 723.0
64.1455 822.0
64.1602 804.0
64.175 844.0
64.1898 928.0
64.2045 1000.0
64.2193 1000.0
64.2341 1082.0
64.2489 1193.0
64.2636 1255.0
64.2784 1334.0
64.2932 1399.0
64.3079 1382.0
64.3227 1526.0
64.3375 1614.0
64.3523 1757.0
64.367 1693.0
64.3818 1793.0
64.3966 1838.0
64.4114 1916.0
64.4261 1985.0
64.4409 1980.0
64.4557 1931.0
64.4704 1988.0
64.4852 1916.0
64.5 1930.0
64.5148 1869.0
64.5295 1820.0
64.5443 1847.0
64.5591 1796.0
64.5738 1770.0
64.5886 1692.0
64.6034 1655.0
64.6182 1564.0
64.6329 1558.0
64.6477 1428.0
64.6625 1426.0
64.6772 1257.0
64.692 1241.0
64.7068 1153.0
64.7216 1071.0
64.7363 1040.0
64.7511 1030.0
64.7659 866.0
64.7806 882.0
64.7954 848.0
64.8102 793.0
64.825 729.0
64.8397 745.0
64.8545 699.0
64.8693 650.0
64.884 616.0
64.8988 607.0
64.9136 614.0
64.9284 570.0
64.9431 555.0
64.9579 494.0
64.9727 506.0
64.9874 521.0
65.0022 435.0
65.017 434.0
65.0318 449.0
65.0465 404.0
65.0613 369.0
65.0761 387.0
65.0908 350.0
65.1056 341.0
65.1204 329.0
65.1352 328.0
65.1499 321.0
65.1647 331.0
65.1795 332.0
65.1942 305.0
65.209 308.0
65.2238 286.0
65.2386 266.0
65.2533 274.0
65.2681 296.0
65.2829 313.0
65.2976 281.0
65.3124 262.0
65.3272 286.0
65.342 242.0
65.3567 220.0
65.3715 240.0
65.3863 258.0
65.401 279.0
65.4158 232.0
65.4306 218.0
65.4454 223.0
65.4601 230.0
65.4749 229.0
65.4897 218.0
65.5044 206.0
65.5192 237.0
65.534 223.0
65.5488 230.0
65.5635 255.0
65.5783 215.0
65.5931 192.0
65.6078 217.0
65.6226 214.0
65.6374 222.0
65.6522 227.0
65.6669 209.0
65.6817 231.0
65.6965 223.0
65.7112 191.0
65.726 220.0
65.7408 218.0
65.7556 216.0
65.7703 211.0
65.7851 213.0
65.7999 205.0
65.8146 211.0
65.8294 225.0
65.8442 191.0
65.859 210.0
65.8737 205.0
65.8885 261.0
65.9033 266.0
65.9181 217.0
65.9328 232.0
65.9476 211.0
65.9624 263.0
65.9771 218.0
65.9919 267.0
66.0067 237.0
66.0215 211.0
66.0362 215.0
66.051 236.0
66.0658 215.0
66.0805 258.0
66.0953 236.0
66.1101 234.0
66.1249 260.0
66.1396 257.0
66.1544 272.0
66.1692 260.0
66.1839 258.0
66.1987 291.0
66.2135 222.0
66.2283 286.0
66.243 297.0
66.2578 287.0
66.2726 293.0
66.2873 299.0
66.3021 277.0
66.3169 304.0
66.3317 286.0
66.3464 316.0
66.3612 313.0
66.376 296.0
66.3907 341.0
66.4055 296.0
66.4203 341.0
66.4351 297.0
66.4498 310.0
66.4646 309.0
66.4794 314.0
66.4941 338.0
66.5089 294.0
66.5237 334.0
66.5385 347.0
66.5532 290.0
66.568 335.0
66.5828 334.0
66.5975 340.0
66.6123 373.0
66.6271 356.0
66.6419 356.0
66.6566 380.0
66.6714 347.0
66.6862 383.0
66.7009 408.0
66.7157 352.0
66.7305 399.0
66.7453 362.0
66.76 434.0
66.7748 391.0
66.7896 392.0
66.8043 396.0
66.8191 394.0
66.8339 431.0
66.8487 380.0
66.8634 426.0
66.8782 393.0
66.893 391.0
66.9077 435.0
66.9225 414.0
66.9373 432.0
66.9521 478.0
66.9668 469.0
66.9816 477.0
66.9964 518.0
67.0111 485.0
67.0259 489.0
67.0407 425.0
67.0555 468.0
67.0702 489.0
67.085 511.0
67.0998 474.0
67.1145 536.0
67.1293 543.0
67.1441 522.0
67.1589 577.0
67.1736 519.0
67.1884 576.0
67.2032 576.0
67.2179 571.0
67.2327 577.0
67.2475 553.0
67.2623 568.0
67.277 650.0
67.2918 614.0
67.3066 578.0
67.3213 677.0
67.3361 623.0
67.3509 633.0
67.3657 629.0
67.3804 729.0
67.3952 686.0
67.41 741.0
67.4248 748.0
67.4395 721.0
67.4543 745.0
67.4691 750.0
67.4838 798.0
67.4986 811.0
67.5134 839.0
67.5282 878.0
67.5429 867.0
67.5577 857.0
67.5725 872.0
67.5872 927.0
67.602 1023.0
67.6168 943.0
67.6316 1054.0
67.6463 1151.0
67.6611 1171.0
67.6759 1190.0
67.6906 1264.0
67.7054 1437.0
67.7202 1472.0
67.735 1685.0
67.7497 1854.0
67.7645 2303.0
67.7793 2466.0
67.794 2891.0
67.8088 3146.0
67.8236 3549.0
67.8384 3686.0
67.8531 3750.0
67.8679 3752.0
67.8827 3821.0
67.8974 3571.0
67.9122 3526.0
67.927 3676.0
67.9418 3710.0
67.9565 4033.0
67.9713 4511.0
67.9861 4824.0
68.0008 5472.0
68.0156 6860.0
68.0304 7553.0
68.0452 9862.0
68.0599 12306.0
68.0747 16884.0
68.0895 23578.0
68.1042 39270.0
68.119 70172.0
68.1338 184603.0
68.1486 303949.0
68.1633 356855.0
68.1781 353071.0
68.1929 230376.0
68.2076 115926.0
68.2224 58603.0
68.2372 33937.0
68.252 23843.0
68.2667 20590.0
68.2815 20894.0
68.2963 26826.0
68.311 44334.0
68.3258 89623.0
68.3406 147329.0
68.3554 175916.0
68.3701 170796.0
68.3849 123097.0
68.3997 65820.0
68.4144 33384.0
68.4292 19242.0
68.444 12864.0
68.4588 9211.0
68.4735 7296.0
68.4883 5988.0
68.5031 5093.0
68.5178 4562.0
68.5326 4049.0
68.5474 3553.0
68.5622 3184.0
68.5769 3062.0
68.5917 2737.0
68.6065 2504.0
68.6212 2303.0
68.636 2202.0
68.6508 1997.0
68.6656 1880.0
68.6803 1791.0
68.6951 1696.0
68.7099 1566.0
68.7246 1571.0
68.7394 1509.0
68.7542 1412.0
68.769 1341.0
68.7837 1302.0
68.7985 1190.0
68.8133 1133.0
68.828 1134.0
68.8428 1004.0
68.8576 1023.0
68.8724 1027.0
68.8871 912.0
68.9019 867.0
68.9167 892.0
68.9315 884.0
68.9462 794.0
68.961 781.0
68.9758 786.0
68.9905 760.0
69.0053 795.0
69.0201 725.0
69.0349 726.0
69.0496 700.0
69.0644 625.0
69.0792 636.0
69.0939 678.0
69.1087 638.0
69.1235 568.0
69.1383 652.0
69.153 576.0
69.1678 551.0
69.1826 572.0
69.1973 556.0
69.2121 524.0
69.2269 524.0
69.2417 515.0
69.2564 463.0
69.2712 482.0
69.286 524.0
69.3007 488.0
69.3155 502.0
69.3303 422.0
69.3451 451.0
69.3598 418.0
69.3746 409.0
69.3894 416.0
69.4041 390.0
69.4189 420.0
69.4337 379.0
69.4485 352.0
69.4632 393.0
69.478 325.0
69.4928 329.0
69.5075 364.0
69.5223 310.0
69.5371 345.0
69.5519 342.0
69.5666 329.0
69.5814 311.0
69.5962 309.0
69.6109 328.0
69.6257 294.0
69.6405 300.0
69.6553 287.0
69.67 303.0
69.6848 279.0
69.6996 269.0
69.7143 290.0
69.7291 276.0
69.7439 268.0
69.7587 269.0
69.7734 234.0
69.7882 273.0
69.803 270.0
69.8177 237.0
69.8325 201.0
69.8473 230.0
69.8621 235.0
69.8768 262.0
69.8916 230.0
69.9064 266.0
69.9211 201.0
69.9359 268.0
69.9507 226.0
69.9655 227.0
69.9802 231.0
69.995 225.0
70.0098 239.0
70.0245 199.0
70.0393 212.0
70.0541 199.0
70.0689 200.0
70.0836 204.0
70.0984 192.0
70.1132 202.0
70.1279 205.0
70.1427 210.0
70.1575 213.0
70.1723 198.0
70.187 204.0
70.2018 183.0
70.2166 197.0
70.2313 167.0
70.2461 203.0
70.2609 191.0
70.2757 176.0
70.2904 206.0
70.3052 204.0
70.32 158.0
70.3347 191.0
70.3495 213.0
70.3643 199.0
70.3791 166.0
70.3938 215.0
70.4086 194.0
70.4234 168.0
70.4382 193.0
70.4529 193.0
70.4677 164.0
70.4825 184.0
70.4972 192.0
70.512 211.0
70.5268 156.0
70.5416 183.0
70.5563 200.0
70.5711 205.0
70.5859 190.0
70.6006 187.0
70.6154 168.0
70.6302 188.0
70.645 169.0
70.6597 177.0
70.6745 184.0
70.6893 180.0
70.704 173.0
70.7188 168.0
70.7336 160.0
70.7484 170.0
70.7631 156.0
70.7779 201.0
70.7927 167.0
70.8074 180.0
70.8222 169.0
70.837 151.0
70.8518 157.0
70.8665 173.0
70.8813 158.0
70.8961 165.0
70.9108 148.0
70.9256 150.0
70.9404 171.0
70.9552 175.0
70.9699 142.0
70.9847 175.0
70.9995 185.0
71.0142 145.0
71.029 146.0
71.0438 176.0
71.0586 161.0
71.0733 189.0
71.0881 184.0
71.1029 132.0
71.1176 174.0
71.1324 163.0
71.1472 155.0
71.162 136.0
71.1767 147.0
71.1915 163.0
71.2063 154.0
71.221 180.0
71.2358 146.0
71.2506 169.0
71.2654 136.0
71.2801 164.0
71.2949 142.0
71.3097 151.0
71.3244 152.0
71.3392 172.0
71.354 166.0
71.3688 169.0
71.3835 159.0
71.3983 163.0
71.4131 153.0
71.4278 157.0
71.4426 146.0
71.4574 154.0
71.4722 159.0
71.4869 150.0
71.5017 139.0
71.5165 143.0
71.5312 156.0
71.546 141.0
71.5608 169.0
71.5756 156.0
71.5903 139.0
71.6051 148.0
71.6199 159.0
71.6346 134.0
71.6494 127.0
71.6642 171.0
71.679 141.0
71.6937 176.0
71.7085 150.0
71.7233 139.0
71.738 166.0
71.7528 133.0
71.7676 157.0
71.7824 154.0
71.7971 144.0
71.8119 129.0
71.8267 179.0
71.8414 152.0
71.8562 153.0
71.871 161.0
71.8858 151.0
71.9005 145.0
71.9153 128.0
71.9301 169.0
71.9449 160.0
71.9596 154.0
71.9744 137.0
71.9892 151.0
72.0039 127.0
72.0187 160.0
72.0335 168.0
72.0483 168.0
72.063 167.0
72.0778 137.0
72.0926 136.0
72.1073 145.0
72.1221 143.0
72.1369 153.0
72.1517 152.0
72.1664 155.0
72.1812 154.0
72.196 143.0
72.2107 168.0
72.2255 135.0
72.2403 147.0
72.2551 149.0
72.2698 139.0
72.2846 166.0
72.2994 146.0
72.3141 134.0
72.3289 134.0
72.3437 133.0
72.3585 136.0
72.3732 130.0
72.388 129.0
72.4028 155.0
72.4175 161.0
72.4323 138.0
72.4471 134.0
72.4619 138.0
72.4766 122.0
72.4914 153.0
72.5062 131.0
72.5209 165.0
72.5357 150.0
72.5505 143.0
72.5653 148.0
72.58 137.0
72.5948 138.0
72.6096 123.0
72.6243 156.0
72.6391 129.0
72.6539 162.0
72.6687 166.0
72.6834 145.0
72.6982 156.0
72.713 157.0
72.7277 155.0
72.7425 131.0
72.7573 159.0
72.7721 131.0
72.7868 134.0
72.8016 152.0
72.8164 139.0
72.8311 137.0
72.8459 127.0
72.8607 145.0
72.8755 150.0
72.8902 138.0
72.905 122.0
72.9198 156.0
72.9345 112.0
72.9493 138.0
72.9641 154.0
72.9789 150.0
72.9936 146.0
73.0084 137.0
73.0232 134.0
73.0379 140.0
73.0527 133.0
73.0675 148.0
73.0823 155.0
73.097 138.0
73.1118 134.0
73.1266 125.0
73.1413 137.0
73.1561 143.0
73.1709 148.0
73.1857 154.0
73.2004 128.0
73.2152 154.0
73.23 142.0
73.2447 136.0
73.2595 137.0
73.2743 148.0
73.2891 122.0
73.3038 168.0
73.3186 145.0
73.3334 137.0
73.3481 149.0
73.3629 157.0
73.3777 145.0
73.3925 149.0
73.4072 131.0
73.422 117.0
73.4368 140.0
73.4516 149.0
73.4663 128.0
73.4811 134.0
73.4959 136.0
73.5106 148.0
73.5254 132.0
73.5402 152.0
73.555 156.0
73.5697 130.0
73.5845 138.0
73.5993 134.0
73.614 125.0
73.6288 158.0
73.6436 151.0
73.6584 150.0
73.6731 130.0
73.6879 141.0
73.7027 142.0
73.7174 141.0
73.7322 134.0
73.747 143.0
73.7618 135.0
73.7765 131.0
73.7913 163.0
73.8061 161.0
73.8208 125.0
73.8356 131.0
73.8504 147.0
73.8652 137.0
73.8799 121.0
73.8947 130.0
73.9095 123.0
73.9242 154.0
73.939 143.0
73.9538 163.0
73.9686 153.0
73.9833 164.0
73.9981 135.0
74.0129 138.0
74.0276 132.0
74.0424 140.0
74.0572 133.0
74.072 127.0
74.0867 117.0
74.1015 135.0
74.1163 161.0
74.131 142.0
74.1458 133.0
74.1606 125.0
74.1754 143.0
74.1901 148.0
74.2049 136.0
74.2197 138.0
74.2344 123.0
74.2492 143.0
74.264 124.0
74.2788 145.0
74.2935 120.0
74.3083 157.0
74.3231 155.0
74.3378 140.0
74.3526 128.0
74.3674 143.0
74.3822 145.0
74.3969 133.0
74.4117 137.0
74.4265 133.0
74.4412 129.0
74.456 142.0
74.4708 117.0
74.4856 154.0
74.5003 134.0
74.5151 140.0
74.5299 137.0
74.5446 151.0
74.5594 118.0
74.5742 141.0
74.589 139.0
74.6037 141.0
74.6185 123.0
74.6333 136.0
74.648 140.0
74.6628 134.0
74.6776 133.0
74.6924 126.0
74.7071 144.0
74.7219 138.0
74.7367 143.0
74.7514 141.0
74.7662 140.0
74.781 114.0
74.7958 146.0
74.8105 117.0
74.8253 128.0
74.8401 152.0
74.8548 129.0
74.8696 152.0
74.8844 141.0
74.8992 130.0
74.9139 133.0
74.9287 140.0
74.9435 147.0
74.9583 137.0
74.973 139.0
74.9878 141.0
74.9976 148.0