File: data/W6723/XRD_Omega/W6723_Cr2O3_scan_omega_2deg_step_0.002deg0_3.xy
31.88510 523.0
31.88710 537.0
31.88910 524.0
31.89110 494.0
31.89310 494.0
31.89510 538.0
31.89710 550.0
31.89910 551.0
31.90110 502.0
31.90310 554.0
31.90510 541.0
31.90710 549.0
31.90910 534.0
31.91110 573.0
31.91310 572.0
31.91510 571.0
31.91710 545.0
31.91910 535.0
31.92110 551.0
31.92310 550.0
31.92510 603.0
31.92710 563.0
31.92910 571.0
31.93110 566.0
31.93310 577.0
31.93510 585.0
31.93710 557.0
31.93910 569.0
31.94110 573.0
31.94310 574.0
31.94510 623.0
31.94710 560.0
31.94910 596.0
31.95110 584.0
31.95310 644.0
31.95510 588.0
31.95710 600.0
31.95910 608.0
31.96110 620.0
31.96310 591.0
31.96510 638.0
31.96710 646.0
31.96910 612.0
31.97110 623.0
31.97310 612.0
31.97510 622.0
31.97710 671.0
31.97910 610.0
31.98110 611.0
31.98310 604.0
31.98510 633.0
31.98710 651.0
31.98910 682.0
31.99110 711.0
31.99310 676.0
31.99510 654.0
31.99710 651.0
31.99910 660.0
32.00110 747.0
32.00310 680.0
32.00510 724.0
32.00710 711.0
32.00910 723.0
32.01110 742.0
32.01310 759.0
32.01510 699.0
32.01710 750.0
32.01910 742.0
32.02110 752.0
32.02310 744.0
32.02510 795.0
32.02710 767.0
32.02910 793.0
32.03110 734.0
32.03310 783.0
32.03510 802.0
32.03710 769.0
32.03910 800.0
32.04110 774.0
32.04310 847.0
32.04510 800.0
32.04710 797.0
32.04910 797.0
32.05110 825.0
32.05310 801.0
32.05510 851.0
32.05710 781.0
32.05910 813.0
32.06110 894.0
32.06310 862.0
32.06510 849.0
32.06710 834.0
32.06910 883.0
32.07110 854.0
32.07310 868.0
32.07510 852.0
32.07710 858.0
32.07910 834.0
32.08110 912.0
32.08310 954.0
32.08510 907.0
32.08710 868.0
32.08910 890.0
32.09110 928.0
32.09310 917.0
32.09510 942.0
32.09710 930.0
32.09910 938.0
32.10110 950.0
32.10310 932.0
32.10510 998.0
32.10710 920.0
32.10910 915.0
32.11110 992.0
32.11310 951.0
32.11510 992.0
32.11710 944.0
32.11910 926.0
32.12110 969.0
32.12310 1022.0
32.12510 1024.0
32.12710 1061.0
32.12910 972.0
32.13110 979.0
32.13310 996.0
32.13510 1044.0
32.13710 990.0
32.13910 1040.0
32.14110 1043.0
32.14310 1092.0
32.14510 1060.0
32.14710 1085.0
32.14910 1050.0
32.15110 1114.0
32.15310 1099.0
32.15510 1077.0
32.15710 1079.0
32.15910 1091.0
32.16110 1070.0
32.16310 1107.0
32.16510 1082.0
32.16710 1072.0
32.16910 1104.0
32.17110 1170.0
32.17310 1106.0
32.17510 1150.0
32.17710 1240.0
32.17910 1217.0
32.18110 1184.0
32.18310 1212.0
32.18510 1224.0
32.18710 1205.0
32.18910 1160.0
32.19110 1146.0
32.19310 1187.0
32.19510 1203.0
32.19710 1263.0
32.19910 1253.0
32.20110 1205.0
32.20310 1281.0
32.20510 1184.0
32.20710 1306.0
32.20910 1253.0
32.21110 1302.0
32.21310 1244.0
32.21510 1255.0
32.21710 1284.0
32.21910 1318.0
32.22110 1318.0
32.22310 1378.0
32.22510 1300.0
32.22710 1343.0
32.22910 1329.0
32.23110 1314.0
32.23310 1329.0
32.23510 1401.0
32.23710 1370.0
32.23910 1357.0
32.24110 1405.0
32.24310 1398.0
32.24510 1381.0
32.24710 1358.0
32.24910 1520.0
32.25110 1473.0
32.25310 1425.0
32.25510 1458.0
32.25710 1399.0
32.25910 1471.0
32.26110 1482.0
32.26310 1441.0
32.26510 1487.0
32.26710 1475.0
32.26910 1469.0
32.27110 1550.0
32.27310 1548.0
32.27510 1508.0
32.27710 1588.0
32.27910 1472.0
32.28110 1552.0
32.28310 1619.0
32.28510 1650.0
32.28710 1582.0
32.28910 1562.0
32.29110 1635.0
32.29310 1647.0
32.29510 1691.0
32.29710 1668.0
32.29910 1657.0
32.30110 1658.0
32.30310 1713.0
32.30510 1630.0
32.30710 1719.0
32.30910 1747.0
32.31110 1661.0
32.31310 1779.0
32.31510 1775.0
32.31710 1795.0
32.31910 1746.0
32.32110 1814.0
32.32310 1724.0
32.32510 1839.0
32.32710 1808.0
32.32910 1884.0
32.33110 1873.0
32.33310 1860.0
32.33510 1870.0
32.33710 1909.0
32.33910 1854.0
32.34110 1882.0
32.34310 1958.0
32.34510 2000.0
32.34710 1974.0
32.34910 1947.0
32.35110 1991.0
32.35310 1960.0
32.35510 1953.0
32.35710 2016.0
32.35910 2101.0
32.36110 2135.0
32.36310 2074.0
32.36510 2018.0
32.36710 2085.0
32.36910 2043.0
32.37110 2063.0
32.37310 2142.0
32.37510 2061.0
32.37710 2059.0
32.37910 2168.0
32.38110 2151.0
32.38310 2160.0
32.38510 2112.0
32.38710 2220.0
32.38910 2249.0
32.39110 2281.0
32.39310 2248.0
32.39510 2228.0
32.39710 2317.0
32.39910 2334.0
32.40110 2348.0
32.40310 2261.0
32.40510 2318.0
32.40710 2413.0
32.40910 2372.0
32.41110 2339.0
32.41310 2374.0
32.41510 2375.0
32.41710 2480.0
32.41910 2531.0
32.42110 2436.0
32.42310 2489.0
32.42510 2557.0
32.42710 2519.0
32.42910 2588.0
32.43110 2572.0
32.43310 2641.0
32.43510 2529.0
32.43710 2564.0
32.43910 2656.0
32.44110 2563.0
32.44310 2612.0
32.44510 2650.0
32.44710 2707.0
32.44910 2718.0
32.45110 2851.0
32.45310 2859.0
32.45510 2800.0
32.45710 2732.0
32.45910 2948.0
32.46110 2780.0
32.46310 2930.0
32.46510 2825.0
32.46710 2843.0
32.46910 2924.0
32.47110 2908.0
32.47310 2990.0
32.47510 3063.0
32.47710 3053.0
32.47910 3069.0
32.48110 2993.0
32.48310 3157.0
32.48510 3202.0
32.48710 3226.0
32.48910 3149.0
32.49110 3189.0
32.49310 3159.0
32.49510 3157.0
32.49710 3216.0
32.49910 3214.0
32.50110 3250.0
32.50310 3360.0
32.50510 3274.0
32.50710 3348.0
32.50910 3376.0
32.51110 3291.0
32.51310 3402.0
32.51510 3305.0
32.51710 3444.0
32.51910 3533.0
32.52110 3481.0
32.52310 3629.0
32.52510 3560.0
32.52710 3545.0
32.52910 3575.0
32.53110 3557.0
32.53310 3652.0
32.53510 3638.0
32.53710 3679.0
32.53910 3640.0
32.54110 3724.0
32.54310 3731.0
32.54510 3822.0
32.54710 3866.0
32.54910 3914.0
32.55110 3980.0
32.55310 3944.0
32.55510 3931.0
32.55710 3896.0
32.55910 4088.0
32.56110 4095.0
32.56310 4116.0
32.56510 4272.0
32.56710 4150.0
32.56910 4145.0
32.57110 4220.0
32.57310 4175.0
32.57510 4217.0
32.57710 4471.0
32.57910 4330.0
32.58110 4324.0
32.58310 4381.0
32.58510 4453.0
32.58710 4313.0
32.58910 4399.0
32.59110 4462.0
32.59310 4388.0
32.59510 4579.0
32.59710 4535.0
32.59910 4569.0
32.60110 4532.0
32.60310 4524.0
32.60510 4679.0
32.60710 4794.0
32.60910 4822.0
32.61110 4765.0
32.61310 4707.0
32.61510 4783.0
32.61710 4928.0
32.61910 4924.0
32.62110 4942.0
32.62310 4926.0
32.62510 4940.0
32.62710 5132.0
32.62910 5243.0
32.63110 5125.0
32.63310 5213.0
32.63510 5125.0
32.63710 5206.0
32.63910 5211.0
32.64110 5386.0
32.64310 5377.0
32.64510 5472.0
32.64710 5338.0
32.64910 5502.0
32.65110 5485.0
32.65310 5516.0
32.65510 5474.0
32.65710 5414.0
32.65910 5505.0
32.66110 5532.0
32.66310 5657.0
32.66510 5761.0
32.66710 5737.0
32.66910 5659.0
32.67110 5734.0
32.67310 5902.0
32.67510 5863.0
32.67710 5807.0
32.67910 5868.0
32.68110 6098.0
32.68310 6039.0
32.68510 6130.0
32.68710 6189.0
32.68910 6210.0
32.69110 6006.0
32.69310 6295.0
32.69510 6294.0
32.69710 6231.0
32.69910 6171.0
32.70110 6324.0
32.70310 6340.0
32.70510 6283.0
32.70710 6464.0
32.70910 6489.0
32.71110 6439.0
32.71310 6482.0
32.71510 6576.0
32.71710 6574.0
32.71910 6636.0
32.72110 6685.0
32.72310 6772.0
32.72510 6809.0
32.72710 6831.0
32.72910 6826.0
32.73110 6778.0
32.73310 6800.0
32.73510 6774.0
32.73710 6939.0
32.73910 7048.0
32.74110 7047.0
32.74310 7048.0
32.74510 7032.0
32.74710 7113.0
32.74910 7108.0
32.75110 7252.0
32.75310 7215.0
32.75510 7293.0
32.75710 7380.0
32.75910 7345.0
32.76110 7379.0
32.76310 7408.0
32.76510 7216.0
32.76710 7581.0
32.76910 7391.0
32.77110 7447.0
32.77310 7368.0
32.77510 7583.0
32.77710 7476.0
32.77910 7662.0
32.78110 7432.0
32.78310 7665.0
32.78510 7651.0
32.78710 7665.0
32.78910 7614.0
32.79110 7626.0
32.79310 7864.0
32.79510 7842.0
32.79710 8004.0
32.79910 7893.0
32.80110 7905.0
32.80310 7879.0
32.80510 8076.0
32.80710 7873.0
32.80910 7967.0
32.81110 8100.0
32.81310 8111.0
32.81510 7925.0
32.81710 8011.0
32.81910 8169.0
32.82110 8115.0
32.82310 8087.0
32.82510 8134.0
32.82710 8185.0
32.82910 8356.0
32.83110 8335.0
32.83310 8229.0
32.83510 8381.0
32.83710 8467.0
32.83910 8246.0
32.84110 8210.0
32.84310 8276.0
32.84510 8225.0
32.84710 8279.0
32.84910 8291.0
32.85110 8198.0
32.85310 8310.0
32.85510 8128.0
32.85710 8242.0
32.85910 8316.0
32.86110 8104.0
32.86310 8324.0
32.86510 8233.0
32.86710 8370.0
32.86910 8279.0
32.87110 8289.0
32.87310 8284.0
32.87510 8416.0
32.87710 8218.0
32.87910 8359.0
32.88110 8338.0
32.88310 8287.0
32.88510 8370.0
32.88710 8363.0
32.88910 8353.0
32.89110 8413.0
32.89310 8316.0
32.89510 8215.0
32.89710 8458.0
32.89910 8279.0
32.90110 8541.0
32.90310 8399.0
32.90510 8208.0
32.90710 8305.0
32.90910 8356.0
32.91110 8361.0
32.91310 8491.0
32.91510 8151.0
32.91710 8235.0
32.91910 8207.0
32.92110 8292.0
32.92310 8130.0
32.92510 8184.0
32.92710 8143.0
32.92910 8299.0
32.93110 8216.0
32.93310 8228.0
32.93510 8199.0
32.93710 8028.0
32.93910 8097.0
32.94110 8039.0
32.94310 7955.0
32.94510 8044.0
32.94710 7887.0
32.94910 7866.0
32.95110 7845.0
32.95310 8064.0
32.95510 7984.0
32.95710 7800.0
32.95910 7996.0
32.96110 8008.0
32.96310 7774.0
32.96510 7809.0
32.96710 7787.0
32.96910 7718.0
32.97110 7637.0
32.97310 7702.0
32.97510 7675.0
32.97710 7712.0
32.97910 7534.0
32.98110 7810.0
32.98310 7557.0
32.98510 7609.0
32.98710 7476.0
32.98910 7469.0
32.99110 7467.0
32.99310 7308.0
32.99510 7368.0
32.99710 7220.0
32.99910 7344.0
33.00110 7186.0
33.00310 7282.0
33.00510 7072.0
33.00710 7135.0
33.00910 7094.0
33.01110 7080.0
33.01310 6940.0
33.01510 6912.0
33.01710 6991.0
33.01910 6731.0
33.02110 6840.0
33.02310 6826.0
33.02510 6782.0
33.02710 6790.0
33.02910 6840.0
33.03110 6807.0
33.03310 6713.0
33.03510 6564.0
33.03710 6446.0
33.03910 6486.0
33.04110 6455.0
33.04310 6340.0
33.04510 6379.0
33.04710 6275.0
33.04910 6227.0
33.05110 6317.0
33.05310 6230.0
33.05510 6180.0
33.05710 6107.0
33.05910 6148.0
33.06110 6131.0
33.06310 6050.0
33.06510 5919.0
33.06710 5964.0
33.06910 6119.0
33.07110 5862.0
33.07310 5842.0
33.07510 5843.0
33.07710 5624.0
33.07910 5658.0
33.08110 5619.0
33.08310 5696.0
33.08510 5494.0
33.08710 5571.0
33.08910 5429.0
33.09110 5501.0
33.09310 5329.0
33.09510 5339.0
33.09710 5361.0
33.09910 5311.0
33.10110 5195.0
33.10310 5270.0
33.10510 5246.0
33.10710 5102.0
33.10910 5048.0
33.11110 5081.0
33.11310 4858.0
33.11510 4999.0
33.11710 4857.0
33.11910 4986.0
33.12110 5006.0
33.12310 4779.0
33.12510 4760.0
33.12710 4786.0
33.12910 4769.0
33.13110 4757.0
33.13310 4704.0
33.13510 4647.0
33.13710 4495.0
33.13910 4524.0
33.14110 4541.0
33.14310 4578.0
33.14510 4433.0
33.14710 4484.0
33.14910 4374.0
33.15110 4492.0
33.15310 4415.0
33.15510 4256.0
33.15710 4254.0
33.15910 4231.0
33.16110 4312.0
33.16310 4229.0
33.16510 4125.0
33.16710 4125.0
33.16910 4090.0
33.17110 4092.0
33.17310 3986.0
33.17510 3889.0
33.17710 4028.0
33.17910 3857.0
33.18110 3814.0
33.18310 3736.0
33.18510 3699.0
33.18710 3746.0
33.18910 3781.0
33.19110 3561.0
33.19310 3652.0
33.19510 3569.0
33.19710 3661.0
33.19910 3532.0
33.20110 3611.0
33.20310 3484.0
33.20510 3501.0
33.20710 3429.0
33.20910 3479.0
33.21110 3415.0
33.21310 3344.0
33.21510 3323.0
33.21710 3253.0
33.21910 3352.0
33.22110 3284.0
33.22310 3123.0
33.22510 3317.0
33.22710 3190.0
33.22910 3136.0
33.23110 3067.0
33.23310 3200.0
33.23510 3089.0
33.23710 2961.0
33.23910 3067.0
33.24110 3076.0
33.24310 2939.0
33.24510 2984.0
33.24710 2874.0
33.24910 2888.0
33.25110 2729.0
33.25310 2859.0
33.25510 2807.0
33.25710 2813.0
33.25910 2692.0
33.26110 2689.0
33.26310 2690.0
33.26510 2729.0
33.26710 2546.0
33.26910 2503.0
33.27110 2501.0
33.27310 2466.0
33.27510 2475.0
33.27710 2412.0
33.27910 2358.0
33.28110 2364.0
33.28310 2420.0
33.28510 2408.0
33.28710 2304.0
33.28910 2262.0
33.29110 2236.0
33.29310 2194.0
33.29510 2197.0
33.29710 2175.0
33.29910 2133.0
33.30110 2184.0
33.30310 2244.0
33.30510 2087.0
33.30710 2103.0
33.30910 2158.0
33.31110 2012.0
33.31310 2015.0
33.31510 2115.0
33.31710 2034.0
33.31910 2023.0
33.32110 1994.0
33.32310 2056.0
33.32510 1931.0
33.32710 1938.0
33.32910 1890.0
33.33110 1828.0
33.33310 1832.0
33.33510 1841.0
33.33710 1894.0
33.33910 1743.0
33.34110 1877.0
33.34310 1865.0
33.34510 1882.0
33.34710 1774.0
33.34910 1744.0
33.35110 1728.0
33.35310 1737.0
33.35510 1671.0
33.35710 1694.0
33.35910 1709.0
33.36110 1625.0
33.36310 1672.0
33.36510 1590.0
33.36710 1645.0
33.36910 1591.0
33.37110 1676.0
33.37310 1580.0
33.37510 1600.0
33.37710 1476.0
33.37910 1509.0
33.38110 1589.0
33.38310 1535.0
33.38510 1495.0
33.38710 1535.0
33.38910 1490.0
33.39110 1484.0
33.39310 1441.0
33.39510 1429.0
33.39710 1433.0
33.39910 1396.0
33.40110 1406.0
33.40310 1358.0
33.40510 1413.0
33.40710 1366.0
33.40910 1346.0
33.41110 1402.0
33.41310 1401.0
33.41510 1363.0
33.41710 1383.0
33.41910 1369.0
33.42110 1275.0
33.42310 1335.0
33.42510 1286.0
33.42710 1284.0
33.42910 1240.0
33.43110 1290.0
33.43310 1254.0
33.43510 1231.0
33.43710 1204.0
33.43910 1226.0
33.44110 1131.0
33.44310 1236.0
33.44510 1118.0
33.44710 1218.0
33.44910 1198.0
33.45110 1263.0
33.45310 1123.0
33.45510 1131.0
33.45710 1112.0
33.45910 1188.0
33.46110 1128.0
33.46310 1120.0
33.46510 1128.0
33.46710 1109.0
33.46910 1105.0
33.47110 1102.0
33.47310 1014.0
33.47510 1062.0
33.47710 1080.0
33.47910 1012.0
33.48110 1094.0
33.48310 998.0
33.48510 1088.0
33.48710 1042.0
33.48910 1014.0
33.49110 1037.0
33.49310 1001.0
33.49510 998.0
33.49710 994.0
33.49910 961.0
33.50110 946.0
33.50310 990.0
33.50510 970.0
33.50710 925.0
33.50910 939.0
33.51110 921.0
33.51310 931.0
33.51510 906.0
33.51710 893.0
33.51910 844.0
33.52110 945.0
33.52310 861.0
33.52510 885.0
33.52710 879.0
33.52910 915.0
33.53110 846.0
33.53310 870.0
33.53510 805.0
33.53710 866.0
33.53910 869.0
33.54110 872.0
33.54310 852.0
33.54510 826.0
33.54710 870.0
33.54910 793.0
33.55110 779.0
33.55310 812.0
33.55510 870.0
33.55710 838.0
33.55910 794.0
33.56110 852.0
33.56310 801.0
33.56510 718.0
33.56710 748.0
33.56910 771.0
33.57110 749.0
33.57310 786.0
33.57510 729.0
33.57710 778.0
33.57910 747.0
33.58110 678.0
33.58310 740.0
33.58510 677.0
33.58710 737.0
33.58910 735.0
33.59110 701.0
33.59310 731.0
33.59510 724.0
33.59710 742.0
33.59910 713.0
33.60110 700.0
33.60310 721.0
33.60510 662.0
33.60710 689.0
33.60910 646.0
33.61110 654.0
33.61310 683.0
33.61510 673.0
33.61710 678.0
33.61910 672.0
33.62110 720.0
33.62310 665.0
33.62510 655.0
33.62710 605.0
33.62910 597.0
33.63110 645.0
33.63310 598.0
33.63510 616.0
33.63710 611.0
33.63910 611.0
33.64110 596.0
33.64310 565.0
33.64510 591.0
33.64710 610.0
33.64910 622.0
33.65110 561.0
33.65310 592.0
33.65510 562.0
33.65710 567.0
33.65910 569.0
33.66110 549.0
33.66310 530.0
33.66510 584.0
33.66710 504.0
33.66910 579.0
33.67110 576.0
33.67310 555.0
33.67510 569.0
33.67710 524.0
33.67910 573.0
33.68110 561.0
33.68310 500.0
33.68510 529.0
33.68710 482.0
33.68910 522.0
33.69110 577.0
33.69310 528.0
33.69510 473.0
33.69710 522.0
33.69910 502.0
33.70110 484.0
33.70310 473.0
33.70510 526.0
33.70710 486.0
33.70910 522.0
33.71110 502.0
33.71310 476.0
33.71510 488.0
33.71710 494.0
33.71910 512.0
33.72110 501.0
33.72310 499.0
33.72510 467.0
33.72710 475.0
33.72910 459.0
33.73110 458.0
33.73310 430.0
33.73510 439.0
33.73710 469.0
33.73910 463.0
33.74110 475.0
33.74310 424.0
33.74510 390.0
33.74710 437.0
33.74910 429.0
33.75110 425.0
33.75310 463.0
33.75510 482.0
33.75710 440.0
33.75910 447.0
33.76110 447.0
33.76310 439.0
33.76510 405.0
33.76710 447.0
33.76910 387.0
33.77110 408.0
33.77310 432.0
33.77510 422.0
33.77710 404.0
33.77910 416.0
33.78110 401.0
33.78310 378.0
33.78510 382.0
33.78710 391.0
33.78910 409.0
33.79110 403.0
33.79310 404.0
33.79510 410.0
33.79710 414.0
33.79910 415.0
33.80110 417.0
33.80310 397.0
33.80510 398.0
33.80710 379.0
33.80910 373.0
33.81110 385.0
33.81310 384.0
33.81510 372.0
33.81710 345.0
33.81910 404.0
33.82110 353.0
33.82310 372.0
33.82510 372.0
33.82710 379.0
33.82910 390.0
33.83110 372.0
33.83310 345.0
33.83510 381.0
33.83710 398.0
33.83910 358.0
33.84110 371.0
33.84310 328.0
33.84510 372.0
33.84710 350.0
33.84910 377.0
33.85110 343.0
33.85310 330.0
33.85510 344.0
33.85710 341.0
33.85910 334.0
33.86110 328.0
33.86310 323.0
33.86510 356.0
33.86710 353.0
33.86910 318.0