File: data/W6911c/XRD_Omega/w6911c_c-Cr2O3_scan_omega_4deg_step_0.005deg0_2.xy
17.85490 59.0
17.85990 65.0
17.86490 61.0
17.86990 72.0
17.87490 72.0
17.87990 66.0
17.88490 65.0
17.88990 70.0
17.89490 70.0
17.89990 58.0
17.90490 63.0
17.90990 71.0
17.91490 81.0
17.91990 72.0
17.92490 67.0
17.92990 70.0
17.93490 56.0
17.93990 61.0
17.94490 95.0
17.94990 71.0
17.95490 54.0
17.95990 66.0
17.96490 67.0
17.96990 82.0
17.97490 79.0
17.97990 72.0
17.98490 66.0
17.98990 79.0
17.99490 63.0
17.99990 76.0
18.00490 66.0
18.00990 65.0
18.01490 66.0
18.01990 67.0
18.02490 72.0
18.02990 74.0
18.03490 69.0
18.03990 51.0
18.04490 69.0
18.04990 59.0
18.05490 73.0
18.05990 53.0
18.06490 54.0
18.06990 55.0
18.07490 72.0
18.07990 70.0
18.08490 59.0
18.08990 58.0
18.09490 67.0
18.09990 77.0
18.10490 58.0
18.10990 57.0
18.11490 68.0
18.11990 70.0
18.12490 63.0
18.12990 58.0
18.13490 76.0
18.13990 72.0
18.14490 72.0
18.14990 57.0
18.15490 87.0
18.15990 82.0
18.16490 63.0
18.16990 67.0
18.17490 69.0
18.17990 68.0
18.18490 61.0
18.18990 82.0
18.19490 62.0
18.19990 74.0
18.20490 65.0
18.20990 63.0
18.21490 65.0
18.21990 73.0
18.22490 80.0
18.22990 62.0
18.23490 66.0
18.23990 53.0
18.24490 68.0
18.24990 61.0
18.25490 84.0
18.25990 67.0
18.26490 79.0
18.26990 67.0
18.27490 84.0
18.27990 52.0
18.28490 68.0
18.28990 62.0
18.29490 60.0
18.29990 66.0
18.30490 65.0
18.30990 65.0
18.31490 77.0
18.31990 55.0
18.32490 62.0
18.32990 58.0
18.33490 49.0
18.33990 54.0
18.34490 62.0
18.34990 56.0
18.35490 63.0
18.35990 51.0
18.36490 66.0
18.36990 59.0
18.37490 61.0
18.37990 63.0
18.38490 80.0
18.38990 68.0
18.39490 62.0
18.39990 82.0
18.40490 65.0
18.40990 67.0
18.41490 58.0
18.41990 66.0
18.42490 77.0
18.42990 63.0
18.43490 59.0
18.43990 59.0
18.44490 81.0
18.44990 61.0
18.45490 53.0
18.45990 67.0
18.46490 73.0
18.46990 70.0
18.47490 67.0
18.47990 55.0
18.48490 52.0
18.48990 66.0
18.49490 75.0
18.49990 63.0
18.50490 67.0
18.50990 81.0
18.51490 69.0
18.51990 83.0
18.52490 70.0
18.52990 79.0
18.53490 68.0
18.53990 67.0
18.54490 75.0
18.54990 74.0
18.55490 71.0
18.55990 80.0
18.56490 68.0
18.56990 71.0
18.57490 63.0
18.57990 56.0
18.58490 73.0
18.58990 77.0
18.59490 59.0
18.59990 84.0
18.60490 73.0
18.60990 64.0
18.61490 73.0
18.61990 81.0
18.62490 68.0
18.62990 72.0
18.63490 78.0
18.63990 76.0
18.64490 66.0
18.64990 52.0
18.65490 69.0
18.65990 72.0
18.66490 71.0
18.66990 84.0
18.67490 59.0
18.67990 76.0
18.68490 63.0
18.68990 73.0
18.69490 61.0
18.69990 55.0
18.70490 65.0
18.70990 62.0
18.71490 85.0
18.71990 69.0
18.72490 74.0
18.72990 72.0
18.73490 49.0
18.73990 79.0
18.74490 60.0
18.74990 72.0
18.75490 57.0
18.75990 57.0
18.76490 75.0
18.76990 78.0
18.77490 69.0
18.77990 74.0
18.78490 61.0
18.78990 59.0
18.79490 82.0
18.79990 55.0
18.80490 50.0
18.80990 59.0
18.81490 64.0
18.81990 62.0
18.82490 68.0
18.82990 76.0
18.83490 71.0
18.83990 80.0
18.84490 65.0
18.84990 82.0
18.85490 82.0
18.85990 53.0
18.86490 83.0
18.86990 68.0
18.87490 71.0
18.87990 76.0
18.88490 62.0
18.88990 77.0
18.89490 68.0
18.89990 76.0
18.90490 85.0
18.90990 74.0
18.91490 60.0
18.91990 71.0
18.92490 87.0
18.92990 70.0
18.93490 87.0
18.93990 74.0
18.94490 76.0
18.94990 88.0
18.95490 80.0
18.95990 67.0
18.96490 71.0
18.96990 82.0
18.97490 76.0
18.97990 83.0
18.98490 84.0
18.98990 70.0
18.99490 58.0
18.99990 75.0
19.00490 83.0
19.00990 80.0
19.01490 74.0
19.01990 72.0
19.02490 87.0
19.02990 71.0
19.03490 73.0
19.03990 71.0
19.04490 67.0
19.04990 90.0
19.05490 84.0
19.05990 73.0
19.06490 60.0
19.06990 69.0
19.07490 85.0
19.07990 72.0
19.08490 87.0
19.08990 60.0
19.09490 67.0
19.09990 81.0
19.10490 83.0
19.10990 68.0
19.11490 86.0
19.11990 67.0
19.12490 69.0
19.12990 76.0
19.13490 82.0
19.13990 72.0
19.14490 80.0
19.14990 77.0
19.15490 77.0
19.15990 79.0
19.16490 88.0
19.16990 77.0
19.17490 76.0
19.17990 77.0
19.18490 78.0
19.18990 80.0
19.19490 71.0
19.19990 68.0
19.20490 73.0
19.20990 78.0
19.21490 74.0
19.21990 60.0
19.22490 81.0
19.22990 92.0
19.23490 79.0
19.23990 82.0
19.24490 77.0
19.24990 90.0
19.25490 76.0
19.25990 73.0
19.26490 94.0
19.26990 86.0
19.27490 85.0
19.27990 98.0
19.28490 84.0
19.28990 75.0
19.29490 92.0
19.29990 115.0
19.30490 85.0
19.30990 69.0
19.31490 96.0
19.31990 100.0
19.32490 86.0
19.32990 81.0
19.33490 82.0
19.33990 92.0
19.34490 91.0
19.34990 69.0
19.35490 95.0
19.35990 97.0
19.36490 107.0
19.36990 100.0
19.37490 95.0
19.37990 102.0
19.38490 101.0
19.38990 79.0
19.39490 98.0
19.39990 97.0
19.40490 99.0
19.40990 105.0
19.41490 104.0
19.41990 109.0
19.42490 107.0
19.42990 104.0
19.43490 101.0
19.43990 98.0
19.44490 118.0
19.44990 112.0
19.45490 112.0
19.45990 128.0
19.46490 117.0
19.46990 110.0
19.47490 127.0
19.47990 116.0
19.48490 97.0
19.48990 126.0
19.49490 129.0
19.49990 136.0
19.50490 121.0
19.50990 105.0
19.51490 104.0
19.51990 122.0
19.52490 127.0
19.52990 140.0
19.53490 149.0
19.53990 144.0
19.54490 141.0
19.54990 143.0
19.55490 145.0
19.55990 159.0
19.56490 161.0
19.56990 144.0
19.57490 131.0
19.57990 171.0
19.58490 152.0
19.58990 201.0
19.59490 175.0
19.59990 178.0
19.60490 191.0
19.60990 217.0
19.61490 189.0
19.61990 230.0
19.62490 232.0
19.62990 203.0
19.63490 235.0
19.63990 215.0
19.64490 231.0
19.64990 254.0
19.65490 273.0
19.65990 277.0
19.66490 261.0
19.66990 302.0
19.67490 337.0
19.67990 332.0
19.68490 405.0
19.68990 450.0
19.69490 556.0
19.69990 708.0
19.70490 841.0
19.70990 942.0
19.71490 1050.0
19.71990 1086.0
19.72490 1170.0
19.72990 1287.0
19.73490 1335.0
19.73990 1302.0
19.74490 1410.0
19.74990 1507.0
19.75490 1618.0
19.75990 1885.0
19.76490 2122.0
19.76990 2406.0
19.77490 2798.0
19.77990 3387.0
19.78490 3730.0
19.78990 4285.0
19.79490 4712.0
19.79990 5104.0
19.80490 5553.0
19.80990 5892.0
19.81490 6427.0
19.81990 6609.0
19.82490 6922.0
19.82990 7012.0
19.83490 6954.0
19.83990 6808.0
19.84490 6752.0
19.84990 6441.0
19.85490 6135.0
19.85990 6025.0
19.86490 5798.0
19.86990 5345.0
19.87490 5028.0
19.87990 4549.0
19.88490 4369.0
19.88990 3880.0
19.89490 3648.0
19.89990 3183.0
19.90490 2897.0
19.90990 2612.0
19.91490 2307.0
19.91990 2104.0
19.92490 1817.0
19.92990 1616.0
19.93490 1496.0
19.93990 1287.0
19.94490 1122.0
19.94990 986.0
19.95490 913.0
19.95990 830.0
19.96490 708.0
19.96990 691.0
19.97490 520.0
19.97990 485.0
19.98490 424.0
19.98990 412.0
19.99490 400.0
19.99990 329.0
20.00490 317.0
20.00990 298.0
20.01490 285.0
20.01990 279.0
20.02490 302.0
20.02990 254.0
20.03490 281.0
20.03990 225.0
20.04490 247.0
20.04990 230.0
20.05490 230.0
20.05990 200.0
20.06490 222.0
20.06990 187.0
20.07490 173.0
20.07990 192.0
20.08490 173.0
20.08990 173.0
20.09490 189.0
20.09990 154.0
20.10490 146.0
20.10990 192.0
20.11490 149.0
20.11990 141.0
20.12490 148.0
20.12990 154.0
20.13490 150.0
20.13990 115.0
20.14490 144.0
20.14990 126.0
20.15490 160.0
20.15990 122.0
20.16490 106.0
20.16990 109.0
20.17490 108.0
20.17990 110.0
20.18490 117.0
20.18990 135.0
20.19490 108.0
20.19990 101.0
20.20490 110.0
20.20990 89.0
20.21490 106.0
20.21990 114.0
20.22490 112.0
20.22990 109.0
20.23490 112.0
20.23990 104.0
20.24490 103.0
20.24990 98.0
20.25490 96.0
20.25990 95.0
20.26490 100.0
20.26990 93.0
20.27490 90.0
20.27990 114.0
20.28490 97.0
20.28990 85.0
20.29490 83.0
20.29990 93.0
20.30490 86.0
20.30990 96.0
20.31490 92.0
20.31990 86.0
20.32490 101.0
20.32990 80.0
20.33490 87.0
20.33990 82.0
20.34490 105.0
20.34990 80.0
20.35490 97.0
20.35990 82.0
20.36490 84.0
20.36990 85.0
20.37490 96.0
20.37990 78.0
20.38490 68.0
20.38990 78.0
20.39490 98.0
20.39990 71.0
20.40490 75.0
20.40990 69.0
20.41490 84.0
20.41990 75.0
20.42490 77.0
20.42990 87.0
20.43490 64.0
20.43990 62.0
20.44490 70.0
20.44990 83.0
20.45490 72.0
20.45990 73.0
20.46490 73.0
20.46990 74.0
20.47490 83.0
20.47990 75.0
20.48490 65.0
20.48990 64.0
20.49490 90.0
20.49990 81.0
20.50490 88.0
20.50990 78.0
20.51490 92.0
20.51990 65.0
20.52490 68.0
20.52990 72.0
20.53490 77.0
20.53990 82.0
20.54490 85.0
20.54990 71.0
20.55490 79.0
20.55990 76.0
20.56490 64.0
20.56990 69.0
20.57490 86.0
20.57990 64.0
20.58490 55.0
20.58990 64.0
20.59490 69.0
20.59990 67.0
20.60490 70.0
20.60990 78.0
20.61490 61.0
20.61990 83.0
20.62490 68.0
20.62990 78.0
20.63490 67.0
20.63990 70.0
20.64490 70.0
20.64990 63.0
20.65490 65.0
20.65990 59.0
20.66490 64.0
20.66990 77.0
20.67490 74.0
20.67990 73.0
20.68490 66.0
20.68990 72.0
20.69490 76.0
20.69990 69.0
20.70490 64.0
20.70990 76.0
20.71490 74.0
20.71990 64.0
20.72490 71.0
20.72990 65.0
20.73490 58.0
20.73990 63.0
20.74490 67.0
20.74990 65.0
20.75490 65.0
20.75990 62.0
20.76490 70.0
20.76990 81.0
20.77490 70.0
20.77990 62.0
20.78490 70.0
20.78990 80.0
20.79490 63.0
20.79990 81.0
20.80490 63.0
20.80990 60.0
20.81490 80.0
20.81990 75.0
20.82490 69.0
20.82990 52.0
20.83490 85.0
20.83990 65.0
20.84490 65.0
20.84990 77.0
20.85490 62.0
20.85990 68.0
20.86490 70.0
20.86990 67.0
20.87490 70.0
20.87990 74.0
20.88490 60.0
20.88990 61.0
20.89490 66.0
20.89990 70.0
20.90490 68.0
20.90990 76.0
20.91490 73.0
20.91990 83.0
20.92490 67.0
20.92990 81.0
20.93490 70.0
20.93990 53.0
20.94490 49.0
20.94990 75.0
20.95490 63.0
20.95990 58.0
20.96490 71.0
20.96990 66.0
20.97490 83.0
20.97990 76.0
20.98490 59.0
20.98990 57.0
20.99490 64.0
20.99990 79.0
21.00490 66.0
21.00990 61.0
21.01490 69.0
21.01990 82.0
21.02490 63.0
21.02990 67.0
21.03490 62.0
21.03990 63.0
21.04490 75.0
21.04990 62.0
21.05490 65.0
21.05990 52.0
21.06490 67.0
21.06990 59.0
21.07490 64.0
21.07990 67.0
21.08490 56.0
21.08990 53.0
21.09490 57.0
21.09990 74.0
21.10490 69.0
21.10990 66.0
21.11490 62.0
21.11990 51.0
21.12490 64.0
21.12990 71.0
21.13490 61.0
21.13990 51.0
21.14490 52.0
21.14990 59.0
21.15490 73.0
21.15990 74.0
21.16490 61.0
21.16990 67.0
21.17490 68.0
21.17990 61.0
21.18490 60.0
21.18990 74.0
21.19490 75.0
21.19990 65.0
21.20490 73.0
21.20990 61.0
21.21490 56.0
21.21990 65.0
21.22490 70.0
21.22990 65.0
21.23490 66.0
21.23990 66.0
21.24490 52.0
21.24990 63.0
21.25490 62.0
21.25990 63.0
21.26490 79.0
21.26990 59.0
21.27490 60.0
21.27990 64.0
21.28490 66.0
21.28990 55.0
21.29490 63.0
21.29990 53.0
21.30490 63.0
21.30990 84.0
21.31490 69.0
21.31990 73.0
21.32490 72.0
21.32990 70.0
21.33490 62.0
21.33990 65.0
21.34490 65.0
21.34990 66.0
21.35490 56.0
21.35990 54.0
21.36490 46.0
21.36990 50.0
21.37490 62.0
21.37990 47.0
21.38490 61.0
21.38990 61.0
21.39490 48.0
21.39990 67.0
21.40490 69.0
21.40990 65.0
21.41490 70.0
21.41990 62.0
21.42490 62.0
21.42990 67.0
21.43490 63.0
21.43990 62.0
21.44490 64.0
21.44990 65.0
21.45490 50.0
21.45990 70.0
21.46490 70.0
21.46990 66.0
21.47490 54.0
21.47990 63.0
21.48490 57.0
21.48990 54.0
21.49490 59.0
21.49990 69.0
21.50490 53.0
21.50990 59.0
21.51490 58.0
21.51990 50.0
21.52490 53.0
21.52990 64.0
21.53490 54.0
21.53990 74.0
21.54490 67.0
21.54990 62.0
21.55490 56.0
21.55990 59.0
21.56490 66.0
21.56990 60.0
21.57490 60.0
21.57990 69.0
21.58490 65.0
21.58990 62.0
21.59490 69.0
21.59990 66.0
21.60490 64.0
21.60990 62.0
21.61490 50.0
21.61990 42.0
21.62490 65.0
21.62990 51.0
21.63490 52.0
21.63990 69.0
21.64490 65.0
21.64990 60.0
21.65490 50.0
21.65990 58.0
21.66490 65.0
21.66990 68.0
21.67490 68.0
21.67990 68.0
21.68490 53.0
21.68990 79.0
21.69490 60.0
21.69990 63.0
21.70490 58.0
21.70990 51.0
21.71490 58.0
21.71990 58.0
21.72490 55.0
21.72990 58.0
21.73490 60.0
21.73990 69.0
21.74490 70.0
21.74990 46.0
21.75490 70.0
21.75990 56.0
21.76490 43.0
21.76990 72.0
21.77490 70.0
21.77990 56.0
21.78490 64.0
21.78990 64.0
21.79490 66.0
21.79990 53.0
21.80490 56.0
21.80990 57.0
21.81490 47.0