File: data/W6855c/XRD_Omega/W6855c_Cr2O3_scan_omega_2deg_step_0.002deg0_21.xy
18.79970 1069.0
18.80170 1011.0
18.80370 959.0
18.80570 1073.0
18.80770 985.0
18.80970 992.0
18.81170 941.0
18.81370 975.0
18.81570 982.0
18.81770 1045.0
18.81970 996.0
18.82170 990.0
18.82370 1000.0
18.82570 987.0
18.82770 1008.0
18.82970 1057.0
18.83170 1077.0
18.83370 1050.0
18.83570 1019.0
18.83770 1057.0
18.83970 1059.0
18.84170 1075.0
18.84370 1047.0
18.84570 1071.0
18.84770 1082.0
18.84970 1098.0
18.85170 1068.0
18.85370 1060.0
18.85570 1021.0
18.85770 1128.0
18.85970 1078.0
18.86170 1105.0
18.86370 1112.0
18.86570 1088.0
18.86770 1088.0
18.86970 1135.0
18.87170 1076.0
18.87370 1095.0
18.87570 1124.0
18.87770 1079.0
18.87970 1109.0
18.88170 1134.0
18.88370 1110.0
18.88570 1121.0
18.88770 1145.0
18.88970 1059.0
18.89170 1115.0
18.89370 1158.0
18.89570 1148.0
18.89770 1155.0
18.89970 1166.0
18.90170 1121.0
18.90370 1135.0
18.90570 1129.0
18.90770 1151.0
18.90970 1106.0
18.91170 1166.0
18.91370 1155.0
18.91570 1110.0
18.91770 1165.0
18.91970 1102.0
18.92170 1204.0
18.92370 1241.0
18.92570 1170.0
18.92770 1108.0
18.92970 1190.0
18.93170 1158.0
18.93370 1196.0
18.93570 1210.0
18.93770 1206.0
18.93970 1215.0
18.94170 1156.0
18.94370 1270.0
18.94570 1229.0
18.94770 1176.0
18.94970 1233.0
18.95170 1245.0
18.95370 1243.0
18.95570 1225.0
18.95770 1194.0
18.95970 1239.0
18.96170 1218.0
18.96370 1206.0
18.96570 1234.0
18.96770 1251.0
18.96970 1236.0
18.97170 1311.0
18.97370 1284.0
18.97570 1221.0
18.97770 1341.0
18.97970 1297.0
18.98170 1282.0
18.98370 1324.0
18.98570 1345.0
18.98770 1327.0
18.98970 1302.0
18.99170 1357.0
18.99370 1371.0
18.99570 1280.0
18.99770 1329.0
18.99970 1303.0
19.00170 1272.0
19.00370 1311.0
19.00570 1369.0
19.00770 1310.0
19.00970 1363.0
19.01170 1380.0
19.01370 1369.0
19.01570 1387.0
19.01770 1449.0
19.01970 1383.0
19.02170 1447.0
19.02370 1395.0
19.02570 1368.0
19.02770 1418.0
19.02970 1366.0
19.03170 1413.0
19.03370 1394.0
19.03570 1477.0
19.03770 1391.0
19.03970 1457.0
19.04170 1387.0
19.04370 1506.0
19.04570 1484.0
19.04770 1462.0
19.04970 1419.0
19.05170 1446.0
19.05370 1408.0
19.05570 1381.0
19.05770 1518.0
19.05970 1460.0
19.06170 1463.0
19.06370 1451.0
19.06570 1439.0
19.06770 1499.0
19.06970 1477.0
19.07170 1537.0
19.07370 1523.0
19.07570 1499.0
19.07770 1517.0
19.07970 1534.0
19.08170 1530.0
19.08370 1578.0
19.08570 1609.0
19.08770 1571.0
19.08970 1541.0
19.09170 1585.0
19.09370 1605.0
19.09570 1529.0
19.09770 1513.0
19.09970 1541.0
19.10170 1621.0
19.10370 1578.0
19.10570 1564.0
19.10770 1650.0
19.10970 1620.0
19.11170 1593.0
19.11370 1599.0
19.11570 1579.0
19.11770 1603.0
19.11970 1689.0
19.12170 1653.0
19.12370 1696.0
19.12570 1684.0
19.12770 1561.0
19.12970 1692.0
19.13170 1657.0
19.13370 1685.0
19.13570 1645.0
19.13770 1714.0
19.13970 1770.0
19.14170 1686.0
19.14370 1808.0
19.14570 1756.0
19.14770 1741.0
19.14970 1777.0
19.15170 1786.0
19.15370 1796.0
19.15570 1768.0
19.15770 1845.0
19.15970 1809.0
19.16170 1825.0
19.16370 1758.0
19.16570 1820.0
19.16770 1838.0
19.16970 1777.0
19.17170 1819.0
19.17370 1871.0
19.17570 1824.0
19.17770 1908.0
19.17970 1933.0
19.18170 1850.0
19.18370 1913.0
19.18570 1914.0
19.18770 1935.0
19.18970 1845.0
19.19170 1940.0
19.19370 1970.0
19.19570 1976.0
19.19770 1909.0
19.19970 1958.0
19.20170 1922.0
19.20370 2013.0
19.20570 1970.0
19.20770 1915.0
19.20970 1917.0
19.21170 2046.0
19.21370 2015.0
19.21570 2005.0
19.21770 1897.0
19.21970 2054.0
19.22170 2007.0
19.22370 2031.0
19.22570 1955.0
19.22770 2051.0
19.22970 2050.0
19.23170 2075.0
19.23370 2132.0
19.23570 2073.0
19.23770 2043.0
19.23970 2063.0
19.24170 2076.0
19.24370 2097.0
19.24570 2137.0
19.24770 2147.0
19.24970 2097.0
19.25170 2111.0
19.25370 2211.0
19.25570 2131.0
19.25770 2067.0
19.25970 2190.0
19.26170 2135.0
19.26370 2201.0
19.26570 2255.0
19.26770 2254.0
19.26970 2232.0
19.27170 2174.0
19.27370 2158.0
19.27570 2247.0
19.27770 2227.0
19.27970 2303.0
19.28170 2321.0
19.28370 2262.0
19.28570 2192.0
19.28770 2202.0
19.28970 2365.0
19.29170 2336.0
19.29370 2393.0
19.29570 2384.0
19.29770 2353.0
19.29970 2401.0
19.30170 2388.0
19.30370 2412.0
19.30570 2416.0
19.30770 2318.0
19.30970 2419.0
19.31170 2571.0
19.31370 2477.0
19.31570 2501.0
19.31770 2398.0
19.31970 2487.0
19.32170 2539.0
19.32370 2449.0
19.32570 2425.0
19.32770 2538.0
19.32970 2486.0
19.33170 2544.0
19.33370 2544.0
19.33570 2548.0
19.33770 2559.0
19.33970 2516.0
19.34170 2553.0
19.34370 2600.0
19.34570 2643.0
19.34770 2616.0
19.34970 2631.0
19.35170 2609.0
19.35370 2621.0
19.35570 2661.0
19.35770 2644.0
19.35970 2711.0
19.36170 2656.0
19.36370 2635.0
19.36570 2670.0
19.36770 2652.0
19.36970 2624.0
19.37170 2689.0
19.37370 2720.0
19.37570 2792.0
19.37770 2731.0
19.37970 2738.0
19.38170 2702.0
19.38370 2848.0
19.38570 2793.0
19.38770 2768.0
19.38970 2849.0
19.39170 2773.0
19.39370 2792.0
19.39570 2705.0
19.39770 2812.0
19.39970 2773.0
19.40170 2892.0
19.40370 2974.0
19.40570 2909.0
19.40770 2865.0
19.40970 2845.0
19.41170 2745.0
19.41370 3064.0
19.41570 2909.0
19.41770 3072.0
19.41970 2865.0
19.42170 2873.0
19.42370 2929.0
19.42570 3011.0
19.42770 3026.0
19.42970 3062.0
19.43170 3001.0
19.43370 3082.0
19.43570 3179.0
19.43770 3024.0
19.43970 3042.0
19.44170 3087.0
19.44370 3088.0
19.44570 3193.0
19.44770 3144.0
19.44970 3073.0
19.45170 3201.0
19.45370 3126.0
19.45570 3139.0
19.45770 3138.0
19.45970 3136.0
19.46170 3106.0
19.46370 3125.0
19.46570 3094.0
19.46770 3252.0
19.46970 3210.0
19.47170 3331.0
19.47370 3324.0
19.47570 3163.0
19.47770 3308.0
19.47970 3163.0
19.48170 3279.0
19.48370 3246.0
19.48570 3319.0
19.48770 3299.0
19.48970 3220.0
19.49170 3323.0
19.49370 3296.0
19.49570 3300.0
19.49770 3274.0
19.49970 3294.0
19.50170 3282.0
19.50370 3495.0
19.50570 3237.0
19.50770 3337.0
19.50970 3413.0
19.51170 3420.0
19.51370 3342.0
19.51570 3391.0
19.51770 3424.0
19.51970 3503.0
19.52170 3424.0
19.52370 3467.0
19.52570 3502.0
19.52770 3589.0
19.52970 3445.0
19.53170 3614.0
19.53370 3562.0
19.53570 3488.0
19.53770 3580.0
19.53970 3570.0
19.54170 3516.0
19.54370 3552.0
19.54570 3579.0
19.54770 3596.0
19.54970 3637.0
19.55170 3663.0
19.55370 3566.0
19.55570 3685.0
19.55770 3622.0
19.55970 3643.0
19.56170 3764.0
19.56370 3626.0
19.56570 3698.0
19.56770 3768.0
19.56970 3544.0
19.57170 3612.0
19.57370 3759.0
19.57570 3689.0
19.57770 3716.0
19.57970 3723.0
19.58170 3682.0
19.58370 3663.0
19.58570 3706.0
19.58770 3817.0
19.58970 3735.0
19.59170 3807.0
19.59370 3739.0
19.59570 3890.0
19.59770 3802.0
19.59970 3793.0
19.60170 3945.0
19.60370 3837.0
19.60570 3821.0
19.60770 3896.0
19.60970 3861.0
19.61170 3818.0
19.61370 3939.0
19.61570 3878.0
19.61770 3939.0
19.61970 3969.0
19.62170 3996.0
19.62370 3868.0
19.62570 3872.0
19.62770 3922.0
19.62970 3953.0
19.63170 4070.0
19.63370 4000.0
19.63570 3969.0
19.63770 3967.0
19.63970 3770.0
19.64170 3940.0
19.64370 3873.0
19.64570 4050.0
19.64770 4092.0
19.64970 4101.0
19.65170 3956.0
19.65370 3955.0
19.65570 4025.0
19.65770 3999.0
19.65970 3910.0
19.66170 4065.0
19.66370 4103.0
19.66570 4021.0
19.66770 4091.0
19.66970 4048.0
19.67170 4035.0
19.67370 4091.0
19.67570 4048.0
19.67770 4134.0
19.67970 4056.0
19.68170 4090.0
19.68370 4156.0
19.68570 4089.0
19.68770 4133.0
19.68970 4164.0
19.69170 4172.0
19.69370 4240.0
19.69570 4150.0
19.69770 4236.0
19.69970 4184.0
19.70170 4182.0
19.70370 4165.0
19.70570 4165.0
19.70770 4248.0
19.70970 4176.0
19.71170 4186.0
19.71370 4024.0
19.71570 4225.0
19.71770 4248.0
19.71970 4226.0
19.72170 4177.0
19.72370 4192.0
19.72570 4311.0
19.72770 4321.0
19.72970 4195.0
19.73170 4247.0
19.73370 4231.0
19.73570 4096.0
19.73770 4080.0
19.73970 4214.0
19.74170 4307.0
19.74370 4200.0
19.74570 4270.0
19.74770 4423.0
19.74970 4278.0
19.75170 4281.0
19.75370 4283.0
19.75570 4199.0
19.75770 4343.0
19.75970 4229.0
19.76170 4254.0
19.76370 4198.0
19.76570 4269.0
19.76770 4340.0
19.76970 4294.0
19.77170 4298.0
19.77370 4309.0
19.77570 4341.0
19.77770 4237.0
19.77970 4207.0
19.78170 4242.0
19.78370 4250.0
19.78570 4199.0
19.78770 4350.0
19.78970 4210.0
19.79170 4216.0
19.79370 4307.0
19.79570 4247.0
19.79770 4104.0
19.79970 4223.0
19.80170 4266.0
19.80370 4268.0
19.80570 4157.0
19.80770 4244.0
19.80970 4307.0
19.81170 4340.0
19.81370 4216.0
19.81570 4242.0
19.81770 4160.0
19.81970 4281.0
19.82170 4213.0
19.82370 4243.0
19.82570 4259.0
19.82770 4229.0
19.82970 4257.0
19.83170 4233.0
19.83370 4183.0
19.83570 4340.0
19.83770 4257.0
19.83970 4278.0
19.84170 4339.0
19.84370 4181.0
19.84570 4228.0
19.84770 4131.0
19.84970 4152.0
19.85170 4274.0
19.85370 4217.0
19.85570 4109.0
19.85770 4217.0
19.85970 4256.0
19.86170 4224.0
19.86370 4123.0
19.86570 4325.0
19.86770 4184.0
19.86970 4014.0
19.87170 4119.0
19.87370 4070.0
19.87570 4070.0
19.87770 4142.0
19.87970 4161.0
19.88170 4153.0
19.88370 4175.0
19.88570 4169.0
19.88770 4133.0
19.88970 4170.0
19.89170 4272.0
19.89370 4135.0
19.89570 4036.0
19.89770 4068.0
19.89970 4101.0
19.90170 4172.0
19.90370 4116.0
19.90570 4099.0
19.90770 4182.0
19.90970 4034.0
19.91170 3985.0
19.91370 4062.0
19.91570 4005.0
19.91770 3906.0
19.91970 4028.0
19.92170 3996.0
19.92370 4032.0
19.92570 3969.0
19.92770 4018.0
19.92970 4042.0
19.93170 3965.0
19.93370 4022.0
19.93570 4035.0
19.93770 4000.0
19.93970 3951.0
19.94170 3872.0
19.94370 4010.0
19.94570 3998.0
19.94770 3876.0
19.94970 3867.0
19.95170 3847.0
19.95370 3977.0
19.95570 3893.0
19.95770 3921.0
19.95970 3831.0
19.96170 3737.0
19.96370 3854.0
19.96570 3702.0
19.96770 3639.0
19.96970 3816.0
19.97170 3824.0
19.97370 3686.0
19.97570 3684.0
19.97770 3785.0
19.97970 3783.0
19.98170 3739.0
19.98370 3727.0
19.98570 3772.0
19.98770 3646.0
19.98970 3726.0
19.99170 3762.0
19.99370 3504.0
19.99570 3640.0
19.99770 3587.0
19.99970 3694.0
20.00170 3655.0
20.00370 3541.0
20.00570 3601.0
20.00770 3506.0
20.00970 3624.0
20.01170 3540.0
20.01370 3476.0
20.01570 3599.0
20.01770 3625.0
20.01970 3519.0
20.02170 3516.0
20.02370 3581.0
20.02570 3410.0
20.02770 3535.0
20.02970 3488.0
20.03170 3458.0
20.03370 3580.0
20.03570 3422.0
20.03770 3445.0
20.03970 3432.0
20.04170 3511.0
20.04370 3392.0
20.04570 3465.0
20.04770 3442.0
20.04970 3349.0
20.05170 3394.0
20.05370 3449.0
20.05570 3362.0
20.05770 3269.0
20.05970 3354.0
20.06170 3399.0
20.06370 3442.0
20.06570 3328.0
20.06770 3254.0
20.06970 3309.0
20.07170 3264.0
20.07370 3219.0
20.07570 3228.0
20.07770 3198.0
20.07970 3236.0
20.08170 3265.0
20.08370 3179.0
20.08570 3197.0
20.08770 3198.0
20.08970 3128.0
20.09170 3131.0
20.09370 3231.0
20.09570 3148.0
20.09770 3026.0
20.09970 3090.0
20.10170 3108.0
20.10370 3066.0
20.10570 3067.0
20.10770 3061.0
20.10970 3010.0
20.11170 3003.0
20.11370 2992.0
20.11570 2986.0
20.11770 3031.0
20.11970 2885.0
20.12170 2906.0
20.12370 3043.0
20.12570 2925.0
20.12770 2986.0
20.12970 3029.0
20.13170 2898.0
20.13370 3062.0
20.13570 2879.0
20.13770 2884.0
20.13970 2907.0
20.14170 2920.0
20.14370 2848.0
20.14570 2902.0
20.14770 2857.0
20.14970 2854.0
20.15170 2856.0
20.15370 2890.0
20.15570 2868.0
20.15770 2744.0
20.15970 2808.0
20.16170 2855.0
20.16370 2686.0
20.16570 2724.0
20.16770 2795.0
20.16970 2641.0
20.17170 2728.0
20.17370 2797.0
20.17570 2632.0
20.17770 2683.0
20.17970 2726.0
20.18170 2691.0
20.18370 2653.0
20.18570 2742.0
20.18770 2692.0
20.18970 2696.0
20.19170 2677.0
20.19370 2697.0
20.19570 2597.0
20.19770 2693.0
20.19970 2601.0
20.20170 2606.0
20.20370 2656.0
20.20570 2602.0
20.20770 2581.0
20.20970 2598.0
20.21170 2436.0
20.21370 2551.0
20.21570 2421.0
20.21770 2483.0
20.21970 2592.0
20.22170 2472.0
20.22370 2402.0
20.22570 2440.0
20.22770 2389.0
20.22970 2489.0
20.23170 2338.0
20.23370 2386.0
20.23570 2383.0
20.23770 2452.0
20.23970 2433.0
20.24170 2416.0
20.24370 2312.0
20.24570 2427.0
20.24770 2398.0
20.24970 2421.0
20.25170 2400.0
20.25370 2391.0
20.25570 2412.0
20.25770 2351.0
20.25970 2278.0
20.26170 2385.0
20.26370 2435.0
20.26570 2243.0
20.26770 2294.0
20.26970 2251.0
20.27170 2205.0
20.27370 2229.0
20.27570 2322.0
20.27770 2250.0
20.27970 2222.0
20.28170 2096.0
20.28370 2186.0
20.28570 2293.0
20.28770 2183.0
20.28970 2153.0
20.29170 2191.0
20.29370 2094.0
20.29570 2219.0
20.29770 2170.0
20.29970 2153.0
20.30170 2202.0
20.30370 2172.0
20.30570 2184.0
20.30770 2153.0
20.30970 2166.0
20.31170 2156.0
20.31370 1988.0
20.31570 2000.0
20.31770 2138.0
20.31970 2056.0
20.32170 2057.0
20.32370 2075.0
20.32570 2003.0
20.32770 2100.0
20.32970 2004.0
20.33170 2038.0
20.33370 2104.0
20.33570 2062.0
20.33770 2061.0
20.33970 2075.0
20.34170 1970.0
20.34370 2014.0
20.34570 1973.0
20.34770 1991.0
20.34970 2004.0
20.35170 2004.0
20.35370 2010.0
20.35570 2002.0
20.35770 2006.0
20.35970 1940.0
20.36170 1913.0
20.36370 1938.0
20.36570 1941.0
20.36770 1944.0
20.36970 1955.0
20.37170 1900.0
20.37370 1941.0
20.37570 1859.0
20.37770 1981.0
20.37970 1947.0
20.38170 1880.0
20.38370 1793.0
20.38570 1845.0
20.38770 1872.0
20.38970 1835.0
20.39170 1844.0
20.39370 1834.0
20.39570 1955.0
20.39770 1819.0
20.39970 1883.0
20.40170 1768.0
20.40370 1839.0
20.40570 1824.0
20.40770 1874.0
20.40970 1839.0
20.41170 1816.0
20.41370 1724.0
20.41570 1832.0
20.41770 1847.0
20.41970 1783.0
20.42170 1784.0
20.42370 1744.0
20.42570 1675.0
20.42770 1706.0
20.42970 1629.0
20.43170 1646.0
20.43370 1627.0
20.43570 1678.0
20.43770 1553.0
20.43970 1559.0
20.44170 1557.0
20.44370 1578.0
20.44570 1479.0
20.44770 1501.0
20.44970 1446.0
20.45170 1448.0
20.45370 1541.0
20.45570 1503.0
20.45770 1450.0
20.45970 1439.0
20.46170 1428.0
20.46370 1401.0
20.46570 1435.0
20.46770 1507.0
20.46970 1470.0
20.47170 1474.0
20.47370 1423.0
20.47570 1433.0
20.47770 1367.0
20.47970 1422.0
20.48170 1468.0
20.48370 1351.0
20.48570 1334.0
20.48770 1341.0
20.48970 1402.0
20.49170 1298.0
20.49370 1351.0
20.49570 1406.0
20.49770 1254.0
20.49970 1420.0
20.50170 1336.0
20.50370 1321.0
20.50570 1386.0
20.50770 1324.0
20.50970 1330.0
20.51170 1281.0
20.51370 1271.0
20.51570 1268.0
20.51770 1331.0
20.51970 1257.0
20.52170 1325.0
20.52370 1296.0
20.52570 1198.0
20.52770 1323.0
20.52970 1297.0
20.53170 1280.0
20.53370 1245.0
20.53570 1213.0
20.53770 1251.0
20.53970 1170.0
20.54170 1273.0
20.54370 1224.0
20.54570 1213.0
20.54770 1238.0
20.54970 1233.0
20.55170 1224.0
20.55370 1228.0
20.55570 1207.0
20.55770 1188.0
20.55970 1335.0
20.56170 1224.0
20.56370 1222.0
20.56570 1162.0
20.56770 1247.0
20.56970 1183.0
20.57170 1189.0
20.57370 1199.0
20.57570 1169.0
20.57770 1190.0
20.57970 1128.0
20.58170 1191.0
20.58370 1241.0
20.58570 1132.0
20.58770 1184.0
20.58970 1188.0
20.59170 1159.0
20.59370 1092.0
20.59570 1077.0
20.59770 1142.0
20.59970 1187.0
20.60170 1138.0
20.60370 1136.0
20.60570 1127.0
20.60770 1145.0
20.60970 1178.0
20.61170 1120.0
20.61370 1153.0
20.61570 1081.0
20.61770 1113.0
20.61970 1042.0
20.62170 1153.0
20.62370 1125.0
20.62570 998.0
20.62770 1110.0
20.62970 1092.0
20.63170 1096.0
20.63370 1080.0
20.63570 1064.0
20.63770 1033.0
20.63970 1040.0
20.64170 1023.0
20.64370 1109.0
20.64570 1081.0
20.64770 1015.0
20.64970 979.0
20.65170 1053.0
20.65370 971.0
20.65570 1026.0
20.65770 1050.0
20.65970 1001.0
20.66170 1015.0
20.66370 992.0
20.66570 1022.0
20.66770 957.0
20.66970 992.0
20.67170 980.0
20.67370 943.0
20.67570 1011.0
20.67770 1015.0
20.67970 1012.0
20.68170 1018.0
20.68370 1004.0
20.68570 978.0
20.68770 963.0
20.68970 990.0
20.69170 973.0
20.69370 987.0
20.69570 978.0
20.69770 984.0
20.69970 912.0
20.70170 959.0
20.70370 943.0
20.70570 943.0
20.70770 928.0
20.70970 950.0
20.71170 966.0
20.71370 1049.0
20.71570 957.0
20.71770 986.0
20.71970 967.0
20.72170 901.0
20.72370 965.0
20.72570 950.0
20.72770 952.0
20.72970 901.0
20.73170 892.0
20.73370 896.0
20.73570 936.0
20.73770 886.0
20.73970 901.0
20.74170 933.0
20.74370 861.0
20.74570 906.0
20.74770 913.0
20.74970 926.0
20.75170 913.0
20.75370 898.0
20.75570 924.0
20.75770 878.0
20.75970 868.0
20.76170 874.0
20.76370 812.0
20.76570 899.0
20.76770 851.0
20.76970 878.0
20.77170 894.0
20.77370 863.0
20.77570 867.0
20.77770 905.0
20.77970 873.0
20.78170 859.0
20.78370 919.0