File: data/w6929c/XRD_Omega/film_c_scan_omega_4deg_step_0.005deg0_C2.xy
17.69020 30.0
17.69520 40.0
17.70020 35.0
17.70520 38.0
17.71020 43.0
17.71520 34.0
17.72020 26.0
17.72520 32.0
17.73020 45.0
17.73520 37.0
17.74020 31.0
17.74520 23.0
17.75020 30.0
17.75520 35.0
17.76020 26.0
17.76520 28.0
17.77020 26.0
17.77520 35.0
17.78020 26.0
17.78520 28.0
17.79020 27.0
17.79520 28.0
17.80020 29.0
17.80520 33.0
17.81020 26.0
17.81520 32.0
17.82020 24.0
17.82520 38.0
17.83020 37.0
17.83520 35.0
17.84020 23.0
17.84520 40.0
17.85020 38.0
17.85520 27.0
17.86020 31.0
17.86520 25.0
17.87020 30.0
17.87520 33.0
17.88020 27.0
17.88520 28.0
17.89020 25.0
17.89520 32.0
17.90020 38.0
17.90520 32.0
17.91020 32.0
17.91520 45.0
17.92020 32.0
17.92520 32.0
17.93020 26.0
17.93520 35.0
17.94020 25.0
17.94520 24.0
17.95020 26.0
17.95520 38.0
17.96020 33.0
17.96520 41.0
17.97020 35.0
17.97520 26.0
17.98020 36.0
17.98520 31.0
17.99020 29.0
17.99520 30.0
18.00020 33.0
18.00520 30.0
18.01020 29.0
18.01520 29.0
18.02020 34.0
18.02520 22.0
18.03020 24.0
18.03520 39.0
18.04020 35.0
18.04520 22.0
18.05020 35.0
18.05520 24.0
18.06020 33.0
18.06520 33.0
18.07020 36.0
18.07520 25.0
18.08020 31.0
18.08520 33.0
18.09020 28.0
18.09520 24.0
18.10020 24.0
18.10520 27.0
18.11020 24.0
18.11520 33.0
18.12020 24.0
18.12520 38.0
18.13020 30.0
18.13520 37.0
18.14020 29.0
18.14520 32.0
18.15020 30.0
18.15520 27.0
18.16020 37.0
18.16520 32.0
18.17020 22.0
18.17520 29.0
18.18020 40.0
18.18520 25.0
18.19020 25.0
18.19520 30.0
18.20020 35.0
18.20520 38.0
18.21020 34.0
18.21520 26.0
18.22020 44.0
18.22520 29.0
18.23020 37.0
18.23520 38.0
18.24020 24.0
18.24520 29.0
18.25020 32.0
18.25520 31.0
18.26020 42.0
18.26520 32.0
18.27020 43.0
18.27520 29.0
18.28020 32.0
18.28520 38.0
18.29020 33.0
18.29520 41.0
18.30020 37.0
18.30520 21.0
18.31020 36.0
18.31520 38.0
18.32020 36.0
18.32520 28.0
18.33020 40.0
18.33520 33.0
18.34020 34.0
18.34520 31.0
18.35020 23.0
18.35520 37.0
18.36020 35.0
18.36520 28.0
18.37020 34.0
18.37520 39.0
18.38020 32.0
18.38520 40.0
18.39020 29.0
18.39520 30.0
18.40020 39.0
18.40520 45.0
18.41020 33.0
18.41520 26.0
18.42020 33.0
18.42520 32.0
18.43020 29.0
18.43520 31.0
18.44020 28.0
18.44520 29.0
18.45020 36.0
18.45520 31.0
18.46020 40.0
18.46520 33.0
18.47020 41.0
18.47520 32.0
18.48020 26.0
18.48520 26.0
18.49020 35.0
18.49520 36.0
18.50020 39.0
18.50520 40.0
18.51020 40.0
18.51520 26.0
18.52020 27.0
18.52520 38.0
18.53020 29.0
18.53520 30.0
18.54020 38.0
18.54520 32.0
18.55020 39.0
18.55520 28.0
18.56020 36.0
18.56520 35.0
18.57020 23.0
18.57520 34.0
18.58020 26.0
18.58520 30.0
18.59020 31.0
18.59520 28.0
18.60020 31.0
18.60520 42.0
18.61020 33.0
18.61520 36.0
18.62020 30.0
18.62520 22.0
18.63020 41.0
18.63520 36.0
18.64020 28.0
18.64520 31.0
18.65020 37.0
18.65520 31.0
18.66020 38.0
18.66520 34.0
18.67020 28.0
18.67520 28.0
18.68020 34.0
18.68520 35.0
18.69020 38.0
18.69520 45.0
18.70020 40.0
18.70520 25.0
18.71020 23.0
18.71520 30.0
18.72020 35.0
18.72520 43.0
18.73020 22.0
18.73520 32.0
18.74020 31.0
18.74520 45.0
18.75020 42.0
18.75520 33.0
18.76020 36.0
18.76520 37.0
18.77020 30.0
18.77520 33.0
18.78020 34.0
18.78520 36.0
18.79020 39.0
18.79520 29.0
18.80020 38.0
18.80520 24.0
18.81020 41.0
18.81520 28.0
18.82020 36.0
18.82520 37.0
18.83020 32.0
18.83520 35.0
18.84020 34.0
18.84520 35.0
18.85020 36.0
18.85520 26.0
18.86020 37.0
18.86520 37.0
18.87020 37.0
18.87520 31.0
18.88020 28.0
18.88520 26.0
18.89020 32.0
18.89520 46.0
18.90020 37.0
18.90520 36.0
18.91020 33.0
18.91520 30.0
18.92020 41.0
18.92520 43.0
18.93020 45.0
18.93520 35.0
18.94020 27.0
18.94520 37.0
18.95020 29.0
18.95520 37.0
18.96020 43.0
18.96520 33.0
18.97020 34.0
18.97520 33.0
18.98020 49.0
18.98520 42.0
18.99020 43.0
18.99520 49.0
19.00020 38.0
19.00520 38.0
19.01020 27.0
19.01520 44.0
19.02020 36.0
19.02520 44.0
19.03020 40.0
19.03520 31.0
19.04020 40.0
19.04520 32.0
19.05020 43.0
19.05520 47.0
19.06020 39.0
19.06520 42.0
19.07020 42.0
19.07520 45.0
19.08020 39.0
19.08520 47.0
19.09020 34.0
19.09520 39.0
19.10020 37.0
19.10520 37.0
19.11020 39.0
19.11520 48.0
19.12020 47.0
19.12520 38.0
19.13020 40.0
19.13520 48.0
19.14020 48.0
19.14520 40.0
19.15020 36.0
19.15520 38.0
19.16020 60.0
19.16520 47.0
19.17020 40.0
19.17520 46.0
19.18020 48.0
19.18520 49.0
19.19020 48.0
19.19520 58.0
19.20020 47.0
19.20520 41.0
19.21020 52.0
19.21520 56.0
19.22020 47.0
19.22520 56.0
19.23020 45.0
19.23520 43.0
19.24020 44.0
19.24520 49.0
19.25020 63.0
19.25520 54.0
19.26020 69.0
19.26520 69.0
19.27020 57.0
19.27520 54.0
19.28020 59.0
19.28520 63.0
19.29020 65.0
19.29520 49.0
19.30020 74.0
19.30520 63.0
19.31020 78.0
19.31520 69.0
19.32020 48.0
19.32520 78.0
19.33020 77.0
19.33520 87.0
19.34020 80.0
19.34520 72.0
19.35020 78.0
19.35520 75.0
19.36020 92.0
19.36520 87.0
19.37020 79.0
19.37520 81.0
19.38020 83.0
19.38520 89.0
19.39020 90.0
19.39520 95.0
19.40020 103.0
19.40520 97.0
19.41020 100.0
19.41520 136.0
19.42020 114.0
19.42520 113.0
19.43020 119.0
19.43520 122.0
19.44020 129.0
19.44520 147.0
19.45020 129.0
19.45520 135.0
19.46020 156.0
19.46520 147.0
19.47020 159.0
19.47520 170.0
19.48020 173.0
19.48520 194.0
19.49020 213.0
19.49520 201.0
19.50020 243.0
19.50520 241.0
19.51020 233.0
19.51520 281.0
19.52020 317.0
19.52520 369.0
19.53020 469.0
19.53520 563.0
19.54020 604.0
19.54520 691.0
19.55020 829.0
19.55520 807.0
19.56020 994.0
19.56520 1067.0
19.57020 1143.0
19.57520 1208.0
19.58020 1272.0
19.58520 1455.0
19.59020 1469.0
19.59520 1552.0
19.60020 1571.0
19.60520 1867.0
19.61020 2053.0
19.61520 2288.0
19.62020 2569.0
19.62520 2867.0
19.63020 3457.0
19.63520 3566.0
19.64020 4023.0
19.64520 4353.0
19.65020 4580.0
19.65520 4796.0
19.66020 4877.0
19.66520 5031.0
19.67020 4964.0
19.67520 4942.0
19.68020 4714.0
19.68520 4724.0
19.69020 4451.0
19.69520 4383.0
19.70020 4165.0
19.70520 3935.0
19.71020 3665.0
19.71520 3491.0
19.72020 3244.0
19.72520 2929.0
19.73020 2689.0
19.73520 2441.0
19.74020 2198.0
19.74520 1986.0
19.75020 1776.0
19.75520 1606.0
19.76020 1466.0
19.76520 1278.0
19.77020 1081.0
19.77520 1042.0
19.78020 889.0
19.78520 782.0
19.79020 747.0
19.79520 632.0
19.80020 561.0
19.80520 484.0
19.81020 415.0
19.81520 366.0
19.82020 375.0
19.82520 318.0
19.83020 256.0
19.83520 263.0
19.84020 250.0
19.84520 222.0
19.85020 204.0
19.85520 205.0
19.86020 188.0
19.86520 203.0
19.87020 169.0
19.87520 151.0
19.88020 156.0
19.88520 132.0
19.89020 159.0
19.89520 126.0
19.90020 128.0
19.90520 131.0
19.91020 107.0
19.91520 102.0
19.92020 110.0
19.92520 111.0
19.93020 111.0
19.93520 106.0
19.94020 90.0
19.94520 98.0
19.95020 89.0
19.95520 75.0
19.96020 87.0
19.96520 83.0
19.97020 86.0
19.97520 83.0
19.98020 76.0
19.98520 65.0
19.99020 81.0
19.99520 67.0
20.00020 75.0
20.00520 80.0
20.01020 73.0
20.01520 62.0
20.02020 64.0
20.02520 55.0
20.03020 63.0
20.03520 52.0
20.04020 60.0
20.04520 60.0
20.05020 58.0
20.05520 70.0
20.06020 63.0
20.06520 51.0
20.07020 53.0
20.07520 48.0
20.08020 45.0
20.08520 49.0
20.09020 48.0
20.09520 39.0
20.10020 45.0
20.10520 35.0
20.11020 38.0
20.11520 51.0
20.12020 36.0
20.12520 49.0
20.13020 34.0
20.13520 64.0
20.14020 46.0
20.14520 36.0
20.15020 41.0
20.15520 30.0
20.16020 43.0
20.16520 60.0
20.17020 44.0
20.17520 37.0
20.18020 43.0
20.18520 44.0
20.19020 44.0
20.19520 37.0
20.20020 48.0
20.20520 32.0
20.21020 39.0
20.21520 51.0
20.22020 36.0
20.22520 30.0
20.23020 35.0
20.23520 36.0
20.24020 48.0
20.24520 32.0
20.25020 40.0
20.25520 44.0
20.26020 37.0
20.26520 39.0
20.27020 44.0
20.27520 32.0
20.28020 41.0
20.28520 29.0
20.29020 22.0
20.29520 24.0
20.30020 43.0
20.30520 34.0
20.31020 34.0
20.31520 37.0
20.32020 29.0
20.32520 38.0
20.33020 44.0
20.33520 36.0
20.34020 38.0
20.34520 40.0
20.35020 50.0
20.35520 33.0
20.36020 37.0
20.36520 25.0
20.37020 35.0
20.37520 35.0
20.38020 29.0
20.38520 36.0
20.39020 30.0
20.39520 36.0
20.40020 35.0
20.40520 44.0
20.41020 28.0
20.41520 33.0
20.42020 30.0
20.42520 29.0
20.43020 31.0
20.43520 23.0
20.44020 33.0
20.44520 32.0
20.45020 34.0
20.45520 27.0
20.46020 27.0
20.46520 26.0
20.47020 37.0
20.47520 41.0
20.48020 42.0
20.48520 34.0
20.49020 40.0
20.49520 29.0
20.50020 33.0
20.50520 36.0
20.51020 30.0
20.51520 33.0
20.52020 41.0
20.52520 34.0
20.53020 36.0
20.53520 45.0
20.54020 31.0
20.54520 32.0
20.55020 39.0
20.55520 29.0
20.56020 34.0
20.56520 47.0
20.57020 19.0
20.57520 36.0
20.58020 35.0
20.58520 28.0
20.59020 38.0
20.59520 39.0
20.60020 32.0
20.60520 25.0
20.61020 30.0
20.61520 35.0
20.62020 26.0
20.62520 22.0
20.63020 37.0
20.63520 24.0
20.64020 29.0
20.64520 29.0
20.65020 19.0
20.65520 33.0
20.66020 42.0
20.66520 29.0
20.67020 28.0
20.67520 29.0
20.68020 35.0
20.68520 30.0
20.69020 27.0
20.69520 30.0
20.70020 32.0
20.70520 31.0
20.71020 37.0
20.71520 29.0
20.72020 39.0
20.72520 26.0
20.73020 45.0
20.73520 27.0
20.74020 33.0
20.74520 27.0
20.75020 23.0
20.75520 33.0
20.76020 31.0
20.76520 22.0
20.77020 34.0
20.77520 30.0
20.78020 33.0
20.78520 18.0
20.79020 29.0
20.79520 34.0
20.80020 37.0
20.80520 36.0
20.81020 26.0
20.81520 24.0
20.82020 29.0
20.82520 23.0
20.83020 21.0
20.83520 36.0
20.84020 26.0
20.84520 25.0
20.85020 31.0
20.85520 40.0
20.86020 27.0
20.86520 18.0
20.87020 30.0
20.87520 30.0
20.88020 23.0
20.88520 25.0
20.89020 37.0
20.89520 25.0
20.90020 30.0
20.90520 27.0
20.91020 39.0
20.91520 37.0
20.92020 27.0
20.92520 35.0
20.93020 30.0
20.93520 33.0
20.94020 34.0
20.94520 40.0
20.95020 25.0
20.95520 35.0
20.96020 24.0
20.96520 38.0
20.97020 33.0
20.97520 25.0
20.98020 31.0
20.98520 35.0
20.99020 30.0
20.99520 30.0
21.00020 28.0
21.00520 35.0
21.01020 33.0
21.01520 19.0
21.02020 26.0
21.02520 26.0
21.03020 35.0
21.03520 34.0
21.04020 33.0
21.04520 27.0
21.05020 18.0
21.05520 36.0
21.06020 30.0
21.06520 34.0
21.07020 32.0
21.07520 24.0
21.08020 26.0
21.08520 24.0
21.09020 31.0
21.09520 32.0
21.10020 23.0
21.10520 30.0
21.11020 37.0
21.11520 24.0
21.12020 28.0
21.12520 32.0
21.13020 28.0
21.13520 27.0
21.14020 29.0
21.14520 21.0
21.15020 30.0
21.15520 36.0
21.16020 29.0
21.16520 34.0
21.17020 27.0
21.17520 33.0
21.18020 21.0
21.18520 27.0
21.19020 29.0
21.19520 26.0
21.20020 20.0
21.20520 21.0
21.21020 30.0
21.21520 26.0
21.22020 35.0
21.22520 32.0
21.23020 27.0
21.23520 33.0
21.24020 35.0
21.24520 24.0
21.25020 31.0
21.25520 26.0
21.26020 27.0
21.26520 27.0
21.27020 38.0
21.27520 30.0
21.28020 32.0
21.28520 29.0
21.29020 38.0
21.29520 30.0
21.30020 33.0
21.30520 27.0
21.31020 30.0
21.31520 31.0
21.32020 26.0
21.32520 27.0
21.33020 41.0
21.33520 26.0
21.34020 32.0
21.34520 31.0
21.35020 35.0
21.35520 40.0
21.36020 24.0
21.36520 31.0
21.37020 26.0
21.37520 41.0
21.38020 42.0
21.38520 23.0
21.39020 32.0
21.39520 38.0
21.40020 26.0
21.40520 38.0
21.41020 31.0
21.41520 29.0
21.42020 30.0
21.42520 23.0
21.43020 29.0
21.43520 25.0
21.44020 29.0
21.44520 34.0
21.45020 27.0
21.45520 27.0
21.46020 28.0
21.46520 26.0
21.47020 39.0
21.47520 25.0
21.48020 31.0
21.48520 27.0
21.49020 26.0
21.49520 29.0
21.50020 25.0
21.50520 22.0
21.51020 27.0
21.51520 34.0
21.52020 25.0
21.52520 29.0
21.53020 22.0
21.53520 37.0
21.54020 34.0
21.54520 31.0
21.55020 29.0
21.55520 29.0
21.56020 26.0
21.56520 25.0
21.57020 25.0
21.57520 28.0
21.58020 30.0
21.58520 29.0
21.59020 17.0
21.59520 23.0
21.60020 27.0
21.60520 34.0
21.61020 30.0
21.61520 27.0
21.62020 24.0
21.62520 21.0
21.63020 22.0
21.63520 35.0
21.64020 18.0
21.64520 23.0
21.65020 21.0