File: data/W6816r1/XRD_Omega/w6816r1_scan_omega.xy
22.74820 35.0
22.75320 40.0
22.75820 39.0
22.76320 40.0
22.76820 44.0
22.77320 38.0
22.77820 46.0
22.78320 42.0
22.78820 31.0
22.79320 38.0
22.79820 23.0
22.80320 33.0
22.80820 37.0
22.81320 48.0
22.81820 36.0
22.82320 36.0
22.82820 31.0
22.83320 45.0
22.83820 52.0
22.84320 28.0
22.84820 34.0
22.85320 39.0
22.85820 40.0
22.86320 48.0
22.86820 37.0
22.87320 39.0
22.87820 31.0
22.88320 33.0
22.88820 41.0
22.89320 43.0
22.89820 43.0
22.90320 30.0
22.90820 37.0
22.91320 44.0
22.91820 44.0
22.92320 46.0
22.92820 47.0
22.93320 36.0
22.93820 42.0
22.94320 38.0
22.94820 38.0
22.95320 44.0
22.95820 41.0
22.96320 37.0
22.96820 42.0
22.97320 50.0
22.97820 36.0
22.98320 24.0
22.98820 39.0
22.99320 43.0
22.99820 42.0
23.00320 49.0
23.00820 41.0
23.01320 38.0
23.01820 43.0
23.02320 48.0
23.02820 38.0
23.03320 46.0
23.03820 65.0
23.04320 47.0
23.04820 39.0
23.05320 51.0
23.05820 46.0
23.06320 37.0
23.06820 42.0
23.07320 47.0
23.07820 36.0
23.08320 38.0
23.08820 48.0
23.09320 46.0
23.09820 43.0
23.10320 46.0
23.10820 41.0
23.11320 42.0
23.11820 54.0
23.12320 48.0
23.12820 39.0
23.13320 52.0
23.13820 52.0
23.14320 42.0
23.14820 55.0
23.15320 51.0
23.15820 54.0
23.16320 51.0
23.16820 51.0
23.17320 47.0
23.17820 44.0
23.18320 48.0
23.18820 41.0
23.19320 43.0
23.19820 46.0
23.20320 36.0
23.20820 45.0
23.21320 53.0
23.21820 56.0
23.22320 46.0
23.22820 49.0
23.23320 55.0
23.23820 50.0
23.24320 55.0
23.24820 50.0
23.25320 74.0
23.25820 45.0
23.26320 68.0
23.26820 59.0
23.27320 47.0
23.27820 34.0
23.28320 56.0
23.28820 45.0
23.29320 57.0
23.29820 53.0
23.30320 62.0
23.30820 58.0
23.31320 54.0
23.31820 41.0
23.32320 51.0
23.32820 57.0
23.33320 65.0
23.33820 64.0
23.34320 43.0
23.34820 54.0
23.35320 51.0
23.35820 60.0
23.36320 54.0
23.36820 50.0
23.37320 47.0
23.37820 68.0
23.38320 50.0
23.38820 61.0
23.39320 65.0
23.39820 60.0
23.40320 59.0
23.40820 55.0
23.41320 54.0
23.41820 59.0
23.42320 63.0
23.42820 66.0
23.43320 56.0
23.43820 66.0
23.44320 58.0
23.44820 54.0
23.45320 60.0
23.45820 59.0
23.46320 69.0
23.46820 76.0
23.47320 55.0
23.47820 70.0
23.48320 76.0
23.48820 62.0
23.49320 77.0
23.49820 73.0
23.50320 82.0
23.50820 71.0
23.51320 69.0
23.51820 87.0
23.52320 57.0
23.52820 85.0
23.53320 73.0
23.53820 73.0
23.54320 65.0
23.54820 75.0
23.55320 67.0
23.55820 83.0
23.56320 61.0
23.56820 76.0
23.57320 86.0
23.57820 79.0
23.58320 78.0
23.58820 74.0
23.59320 96.0
23.59820 91.0
23.60320 85.0
23.60820 86.0
23.61320 73.0
23.61820 75.0
23.62320 76.0
23.62820 93.0
23.63320 63.0
23.63820 75.0
23.64320 86.0
23.64820 89.0
23.65320 75.0
23.65820 101.0
23.66320 98.0
23.66820 103.0
23.67320 98.0
23.67820 85.0
23.68320 84.0
23.68820 107.0
23.69320 70.0
23.69820 107.0
23.70320 115.0
23.70820 93.0
23.71320 92.0
23.71820 99.0
23.72320 84.0
23.72820 87.0
23.73320 84.0
23.73820 75.0
23.74320 79.0
23.74820 104.0
23.75320 93.0
23.75820 110.0
23.76320 111.0
23.76820 116.0
23.77320 103.0
23.77820 82.0
23.78320 86.0
23.78820 109.0
23.79320 108.0
23.79820 130.0
23.80320 106.0
23.80820 117.0
23.81320 102.0
23.81820 104.0
23.82320 108.0
23.82820 100.0
23.83320 92.0
23.83820 134.0
23.84320 120.0
23.84820 100.0
23.85320 110.0
23.85820 133.0
23.86320 123.0
23.86820 145.0
23.87320 126.0
23.87820 130.0
23.88320 124.0
23.88820 130.0
23.89320 124.0
23.89820 123.0
23.90320 134.0
23.90820 123.0
23.91320 148.0
23.91820 120.0
23.92320 146.0
23.92820 145.0
23.93320 137.0
23.93820 155.0
23.94320 136.0
23.94820 159.0
23.95320 145.0
23.95820 157.0
23.96320 142.0
23.96820 158.0
23.97320 165.0
23.97820 164.0
23.98320 158.0
23.98820 158.0
23.99320 168.0
23.99820 170.0
24.00320 173.0
24.00820 163.0
24.01320 177.0
24.01820 209.0
24.02320 162.0
24.02820 165.0
24.03320 160.0
24.03820 189.0
24.04320 201.0
24.04820 204.0
24.05320 190.0
24.05820 196.0
24.06320 194.0
24.06820 165.0
24.07320 186.0
24.07820 216.0
24.08320 205.0
24.08820 178.0
24.09320 190.0
24.09820 211.0
24.10320 188.0
24.10820 186.0
24.11320 227.0
24.11820 218.0
24.12320 210.0
24.12820 201.0
24.13320 226.0
24.13820 236.0
24.14320 204.0
24.14820 207.0
24.15320 231.0
24.15820 221.0
24.16320 219.0
24.16820 207.0
24.17320 204.0
24.17820 232.0
24.18320 214.0
24.18820 224.0
24.19320 251.0
24.19820 254.0
24.20320 256.0
24.20820 241.0
24.21320 219.0
24.21820 257.0
24.22320 239.0
24.22820 259.0
24.23320 303.0
24.23820 258.0
24.24320 253.0
24.24820 267.0
24.25320 253.0
24.25820 259.0
24.26320 268.0
24.26820 292.0
24.27320 264.0
24.27820 287.0
24.28320 290.0
24.28820 287.0
24.29320 281.0
24.29820 288.0
24.30320 328.0
24.30820 301.0
24.31320 292.0
24.31820 299.0
24.32320 314.0
24.32820 326.0
24.33320 322.0
24.33820 330.0
24.34320 330.0
24.34820 331.0
24.35320 288.0
24.35820 335.0
24.36320 364.0
24.36820 332.0
24.37320 336.0
24.37820 356.0
24.38320 344.0
24.38820 357.0
24.39320 382.0
24.39820 352.0
24.40320 333.0
24.40820 399.0
24.41320 375.0
24.41820 369.0
24.42320 359.0
24.42820 380.0
24.43320 410.0
24.43820 411.0
24.44320 442.0
24.44820 391.0
24.45320 416.0
24.45820 374.0
24.46320 415.0
24.46820 402.0
24.47320 394.0
24.47820 426.0
24.48320 414.0
24.48820 431.0
24.49320 413.0
24.49820 425.0
24.50320 393.0
24.50820 429.0
24.51320 451.0
24.51820 461.0
24.52320 479.0
24.52820 469.0
24.53320 475.0
24.53820 459.0
24.54320 485.0
24.54820 449.0
24.55320 418.0
24.55820 436.0
24.56320 473.0
24.56820 464.0
24.57320 457.0
24.57820 513.0
24.58320 453.0
24.58820 507.0
24.59320 495.0
24.59820 493.0
24.60320 532.0
24.60820 482.0
24.61320 517.0
24.61820 505.0
24.62320 514.0
24.62820 549.0
24.63320 565.0
24.63820 573.0
24.64320 544.0
24.64820 563.0
24.65320 546.0
24.65820 566.0
24.66320 576.0
24.66820 539.0
24.67320 563.0
24.67820 562.0
24.68320 542.0
24.68820 551.0
24.69320 569.0
24.69820 558.0
24.70320 592.0
24.70820 547.0
24.71320 583.0
24.71820 533.0
24.72320 552.0
24.72820 575.0
24.73320 632.0
24.73820 601.0
24.74320 582.0
24.74820 613.0
24.75320 571.0
24.75820 584.0
24.76320 587.0
24.76820 517.0
24.77320 579.0
24.77820 564.0
24.78320 529.0
24.78820 585.0
24.79320 591.0
24.79820 530.0
24.80320 614.0
24.80820 605.0
24.81320 624.0
24.81820 598.0
24.82320 593.0
24.82820 619.0
24.83320 633.0
24.83820 615.0
24.84320 623.0
24.84820 594.0
24.85320 589.0
24.85820 624.0
24.86320 620.0
24.86820 578.0
24.87320 583.0
24.87820 582.0
24.88320 583.0
24.88820 500.0
24.89320 511.0
24.89820 476.0
24.90320 476.0
24.90820 515.0
24.91320 505.0
24.91820 506.0
24.92320 469.0
24.92820 533.0
24.93320 478.0
24.93820 492.0
24.94320 489.0
24.94820 458.0
24.95320 488.0
24.95820 469.0
24.96320 435.0
24.96820 507.0
24.97320 441.0
24.97820 450.0
24.98320 469.0
24.98820 466.0
24.99320 451.0
24.99820 454.0
25.00320 435.0
25.00820 438.0
25.01320 408.0
25.01820 456.0
25.02320 420.0
25.02820 425.0
25.03320 428.0
25.03820 435.0
25.04320 456.0
25.04820 380.0
25.05320 435.0
25.05820 427.0
25.06320 451.0
25.06820 403.0
25.07320 403.0
25.07820 425.0
25.08320 397.0
25.08820 399.0
25.09320 398.0
25.09820 390.0
25.10320 372.0
25.10820 375.0
25.11320 411.0
25.11820 372.0
25.12320 382.0
25.12820 390.0
25.13320 390.0
25.13820 409.0
25.14320 326.0
25.14820 338.0
25.15320 357.0
25.15820 383.0
25.16320 357.0
25.16820 365.0
25.17320 350.0
25.17820 350.0
25.18320 357.0
25.18820 331.0
25.19320 334.0
25.19820 330.0
25.20320 312.0
25.20820 342.0
25.21320 348.0
25.21820 326.0
25.22320 299.0
25.22820 290.0
25.23320 317.0
25.23820 301.0
25.24320 298.0
25.24820 293.0
25.25320 292.0
25.25820 261.0
25.26320 318.0
25.26820 268.0
25.27320 273.0
25.27820 266.0
25.28320 274.0
25.28820 275.0
25.29320 273.0
25.29820 259.0
25.30320 268.0
25.30820 273.0
25.31320 273.0
25.31820 287.0
25.32320 274.0
25.32820 262.0
25.33320 216.0
25.33820 243.0
25.34320 228.0
25.34820 218.0
25.35320 269.0
25.35820 230.0
25.36320 268.0
25.36820 260.0
25.37320 231.0
25.37820 231.0
25.38320 221.0
25.38820 231.0
25.39320 231.0
25.39820 214.0
25.40320 213.0
25.40820 217.0
25.41320 212.0
25.41820 211.0
25.42320 220.0
25.42820 212.0
25.43320 198.0
25.43820 227.0
25.44320 193.0
25.44820 206.0
25.45320 197.0
25.45820 179.0
25.46320 201.0
25.46820 175.0
25.47320 196.0
25.47820 176.0
25.48320 162.0
25.48820 173.0
25.49320 189.0
25.49820 173.0
25.50320 197.0
25.50820 168.0
25.51320 175.0
25.51820 154.0
25.52320 170.0
25.52820 170.0
25.53320 151.0
25.53820 166.0
25.54320 163.0
25.54820 166.0
25.55320 169.0
25.55820 139.0
25.56320 180.0
25.56820 143.0
25.57320 173.0
25.57820 143.0
25.58320 148.0
25.58820 151.0
25.59320 155.0
25.59820 150.0
25.60320 148.0
25.60820 142.0
25.61320 115.0
25.61820 117.0
25.62320 131.0
25.62820 128.0
25.63320 139.0
25.63820 122.0
25.64320 121.0
25.64820 152.0
25.65320 126.0
25.65820 130.0
25.66320 119.0
25.66820 136.0
25.67320 156.0
25.67820 149.0
25.68320 120.0
25.68820 117.0
25.69320 111.0
25.69820 127.0
25.70320 106.0
25.70820 104.0
25.71320 116.0
25.71820 107.0
25.72320 113.0
25.72820 117.0
25.73320 116.0
25.73820 109.0
25.74320 110.0
25.74820 108.0
25.75320 105.0
25.75820 118.0
25.76320 123.0
25.76820 105.0
25.77320 106.0
25.77820 101.0
25.78320 91.0
25.78820 95.0
25.79320 121.0
25.79820 100.0
25.80320 106.0
25.80820 106.0
25.81320 77.0
25.81820 86.0
25.82320 107.0
25.82820 92.0
25.83320 94.0
25.83820 103.0
25.84320 83.0
25.84820 80.0
25.85320 86.0
25.85820 80.0
25.86320 89.0
25.86820 91.0
25.87320 87.0
25.87820 80.0
25.88320 94.0
25.88820 100.0
25.89320 86.0
25.89820 79.0
25.90320 82.0
25.90820 83.0
25.91320 86.0
25.91820 80.0
25.92320 94.0
25.92820 74.0
25.93320 72.0
25.93820 74.0
25.94320 77.0
25.94820 74.0
25.95320 84.0
25.95820 66.0
25.96320 67.0
25.96820 82.0
25.97320 72.0
25.97820 67.0
25.98320 69.0
25.98820 68.0
25.99320 70.0
25.99820 70.0
26.00320 71.0
26.00820 75.0
26.01320 61.0
26.01820 70.0
26.02320 62.0
26.02820 76.0
26.03320 51.0
26.03820 87.0
26.04320 46.0
26.04820 63.0
26.05320 69.0
26.05820 69.0
26.06320 49.0
26.06820 65.0
26.07320 62.0
26.07820 67.0
26.08320 66.0
26.08820 63.0
26.09320 61.0
26.09820 56.0
26.10320 50.0
26.10820 52.0
26.11320 77.0
26.11820 70.0
26.12320 58.0
26.12820 61.0
26.13320 47.0
26.13820 62.0
26.14320 63.0
26.14820 52.0
26.15320 42.0
26.15820 53.0
26.16320 61.0
26.16820 39.0
26.17320 37.0
26.17820 51.0
26.18320 53.0
26.18820 53.0
26.19320 59.0
26.19820 47.0
26.20320 44.0
26.20820 54.0
26.21320 54.0
26.21820 44.0
26.22320 59.0
26.22820 49.0
26.23320 42.0
26.23820 58.0
26.24320 59.0
26.24820 55.0
26.25320 44.0
26.25820 52.0
26.26320 40.0
26.26820 47.0
26.27320 55.0
26.27820 41.0
26.28320 59.0
26.28820 53.0
26.29320 48.0
26.29820 55.0
26.30320 44.0
26.30820 45.0
26.31320 60.0
26.31820 37.0
26.32320 40.0
26.32820 43.0
26.33320 56.0
26.33820 35.0
26.34320 52.0
26.34820 52.0
26.35320 49.0
26.35820 53.0
26.36320 47.0
26.36820 40.0
26.37320 57.0
26.37820 39.0
26.38320 41.0
26.38820 41.0
26.39320 35.0
26.39820 37.0
26.40320 49.0
26.40820 41.0
26.41320 45.0
26.41820 40.0
26.42320 48.0
26.42820 57.0
26.43320 48.0
26.43820 42.0
26.44320 40.0
26.44820 43.0
26.45320 35.0
26.45820 40.0
26.46320 33.0
26.46820 36.0
26.47320 56.0
26.47820 34.0
26.48320 35.0
26.48820 43.0
26.49320 31.0
26.49820 42.0
26.50320 43.0
26.50820 42.0
26.51320 44.0
26.51820 38.0
26.52320 38.0
26.52820 40.0
26.53320 46.0
26.53820 39.0
26.54320 32.0
26.54820 37.0
26.55320 44.0
26.55820 51.0
26.56320 40.0
26.56820 39.0
26.57320 43.0
26.57820 40.0
26.58320 46.0
26.58820 43.0
26.59320 35.0
26.59820 33.0
26.60320 41.0
26.60820 31.0
26.61320 43.0
26.61820 36.0
26.62320 26.0
26.62820 35.0
26.63320 40.0
26.63820 35.0
26.64320 46.0
26.64820 41.0
26.65320 42.0
26.65820 59.0
26.66320 40.0
26.66820 34.0
26.67320 41.0
26.67820 36.0
26.68320 31.0
26.68820 49.0
26.69320 37.0
26.69820 38.0
26.70320 36.0
26.70820 42.0
26.71320 39.0
26.71820 33.0
26.72320 22.0
26.72820 42.0