File: data/W6905a/XRD_Omega/scan_omega_4deg_step_0.005deg0_C6_1.xy
15.96910 267.0
15.97410 258.0
15.97910 229.0
15.98410 254.0
15.98910 264.0
15.99410 235.0
15.99910 266.0
16.00410 265.0
16.00910 252.0
16.01410 258.0
16.01910 236.0
16.02410 271.0
16.02910 254.0
16.03410 285.0
16.03910 276.0
16.04410 277.0
16.04910 245.0
16.05410 284.0
16.05910 305.0
16.06410 288.0
16.06910 273.0
16.07410 270.0
16.07910 272.0
16.08410 289.0
16.08910 283.0
16.09410 300.0
16.09910 277.0
16.10410 309.0
16.10910 296.0
16.11410 299.0
16.11910 313.0
16.12410 311.0
16.12910 289.0
16.13410 304.0
16.13910 335.0
16.14410 292.0
16.14910 326.0
16.15410 334.0
16.15910 308.0
16.16410 298.0
16.16910 315.0
16.17410 305.0
16.17910 329.0
16.18410 310.0
16.18910 291.0
16.19410 310.0
16.19910 325.0
16.20410 342.0
16.20910 329.0
16.21410 358.0
16.21910 316.0
16.22410 327.0
16.22910 305.0
16.23410 355.0
16.23910 367.0
16.24410 328.0
16.24910 304.0
16.25410 353.0
16.25910 328.0
16.26410 359.0
16.26910 326.0
16.27410 389.0
16.27910 367.0
16.28410 356.0
16.28910 347.0
16.29410 337.0
16.29910 373.0
16.30410 346.0
16.30910 345.0
16.31410 369.0
16.31910 347.0
16.32410 386.0
16.32910 375.0
16.33410 390.0
16.33910 342.0
16.34410 419.0
16.34910 397.0
16.35410 397.0
16.35910 401.0
16.36410 412.0
16.36910 411.0
16.37410 394.0
16.37910 409.0
16.38410 397.0
16.38910 425.0
16.39410 411.0
16.39910 436.0
16.40410 421.0
16.40910 425.0
16.41410 409.0
16.41910 443.0
16.42410 438.0
16.42910 450.0
16.43410 430.0
16.43910 420.0
16.44410 432.0
16.44910 424.0
16.45410 456.0
16.45910 434.0
16.46410 491.0
16.46910 444.0
16.47410 481.0
16.47910 448.0
16.48410 481.0
16.48910 452.0
16.49410 514.0
16.49910 491.0
16.50410 484.0
16.50910 456.0
16.51410 457.0
16.51910 496.0
16.52410 518.0
16.52910 496.0
16.53410 486.0
16.53910 483.0
16.54410 488.0
16.54910 487.0
16.55410 522.0
16.55910 522.0
16.56410 534.0
16.56910 539.0
16.57410 555.0
16.57910 551.0
16.58410 513.0
16.58910 525.0
16.59410 512.0
16.59910 621.0
16.60410 545.0
16.60910 552.0
16.61410 547.0
16.61910 577.0
16.62410 548.0
16.62910 627.0
16.63410 543.0
16.63910 551.0
16.64410 594.0
16.64910 589.0
16.65410 601.0
16.65910 577.0
16.66410 591.0
16.66910 609.0
16.67410 593.0
16.67910 609.0
16.68410 619.0
16.68910 613.0
16.69410 647.0
16.69910 676.0
16.70410 649.0
16.70910 684.0
16.71410 663.0
16.71910 687.0
16.72410 633.0
16.72910 669.0
16.73410 680.0
16.73910 627.0
16.74410 687.0
16.74910 705.0
16.75410 715.0
16.75910 679.0
16.76410 698.0
16.76910 738.0
16.77410 737.0
16.77910 712.0
16.78410 780.0
16.78910 740.0
16.79410 724.0
16.79910 769.0
16.80410 779.0
16.80910 762.0
16.81410 722.0
16.81910 768.0
16.82410 784.0
16.82910 800.0
16.83410 792.0
16.83910 826.0
16.84410 868.0
16.84910 786.0
16.85410 821.0
16.85910 799.0
16.86410 870.0
16.86910 867.0
16.87410 859.0
16.87910 914.0
16.88410 843.0
16.88910 903.0
16.89410 871.0
16.89910 905.0
16.90410 889.0
16.90910 862.0
16.91410 901.0
16.91910 917.0
16.92410 1030.0
16.92910 914.0
16.93410 983.0
16.93910 964.0
16.94410 970.0
16.94910 1017.0
16.95410 920.0
16.95910 972.0
16.96410 1018.0
16.96910 981.0
16.97410 1005.0
16.97910 1002.0
16.98410 995.0
16.98910 987.0
16.99410 1056.0
16.99910 1078.0
17.00410 1070.0
17.00910 1094.0
17.01410 1103.0
17.01910 1025.0
17.02410 1069.0
17.02910 1091.0
17.03410 1100.0
17.03910 1179.0
17.04410 1174.0
17.04910 1191.0
17.05410 1137.0
17.05910 1200.0
17.06410 1154.0
17.06910 1256.0
17.07410 1191.0
17.07910 1308.0
17.08410 1303.0
17.08910 1243.0
17.09410 1187.0
17.09910 1161.0
17.10410 1182.0
17.10910 1316.0
17.11410 1217.0
17.11910 1307.0
17.12410 1294.0
17.12910 1352.0
17.13410 1398.0
17.13910 1358.0
17.14410 1355.0
17.14910 1426.0
17.15410 1427.0
17.15910 1381.0
17.16410 1369.0
17.16910 1375.0
17.17410 1438.0
17.17910 1375.0
17.18410 1446.0
17.18910 1455.0
17.19410 1418.0
17.19910 1522.0
17.20410 1536.0
17.20910 1511.0
17.21410 1451.0
17.21910 1550.0
17.22410 1452.0
17.22910 1519.0
17.23410 1582.0
17.23910 1529.0
17.24410 1526.0
17.24910 1596.0
17.25410 1503.0
17.25910 1543.0
17.26410 1679.0
17.26910 1591.0
17.27410 1641.0
17.27910 1725.0
17.28410 1632.0
17.28910 1672.0
17.29410 1778.0
17.29910 1792.0
17.30410 1727.0
17.30910 1821.0
17.31410 1798.0
17.31910 1764.0
17.32410 1796.0
17.32910 1902.0
17.33410 1799.0
17.33910 1834.0
17.34410 1860.0
17.34910 1872.0
17.35410 1845.0
17.35910 2041.0
17.36410 1927.0
17.36910 1957.0
17.37410 1959.0
17.37910 1975.0
17.38410 2038.0
17.38910 1999.0
17.39410 2054.0
17.39910 2117.0
17.40410 2072.0
17.40910 2105.0
17.41410 2112.0
17.41910 2141.0
17.42410 2173.0
17.42910 2244.0
17.43410 2151.0
17.43910 2106.0
17.44410 2213.0
17.44910 2189.0
17.45410 2235.0
17.45910 2267.0
17.46410 2278.0
17.46910 2128.0
17.47410 2268.0
17.47910 2291.0
17.48410 2303.0
17.48910 2306.0
17.49410 2252.0
17.49910 2399.0
17.50410 2320.0
17.50910 2356.0
17.51410 2429.0
17.51910 2430.0
17.52410 2348.0
17.52910 2423.0
17.53410 2465.0
17.53910 2468.0
17.54410 2524.0
17.54910 2529.0
17.55410 2492.0
17.55910 2529.0
17.56410 2556.0
17.56910 2610.0
17.57410 2585.0
17.57910 2563.0
17.58410 2707.0
17.58910 2700.0
17.59410 2625.0
17.59910 2719.0
17.60410 2759.0
17.60910 2697.0
17.61410 2790.0
17.61910 2634.0
17.62410 2741.0
17.62910 2701.0
17.63410 2794.0
17.63910 2814.0
17.64410 2749.0
17.64910 2791.0
17.65410 2922.0
17.65910 2877.0
17.66410 2896.0
17.66910 2910.0
17.67410 2994.0
17.67910 2901.0
17.68410 2897.0
17.68910 2956.0
17.69410 2960.0
17.69910 3040.0
17.70410 2932.0
17.70910 2938.0
17.71410 3012.0
17.71910 3079.0
17.72410 3045.0
17.72910 3090.0
17.73410 3027.0
17.73910 3136.0
17.74410 3165.0
17.74910 3146.0
17.75410 3160.0
17.75910 3129.0
17.76410 3117.0
17.76910 3285.0
17.77410 3178.0
17.77910 3314.0
17.78410 3162.0
17.78910 3305.0
17.79410 3178.0
17.79910 3301.0
17.80410 3298.0
17.80910 3365.0
17.81410 3379.0
17.81910 3443.0
17.82410 3454.0
17.82910 3430.0
17.83410 3732.0
17.83910 3680.0
17.84410 3819.0
17.84910 4000.0
17.85410 4003.0
17.85910 4097.0
17.86410 4055.0
17.86910 4097.0
17.87410 4117.0
17.87910 4129.0
17.88410 4249.0
17.88910 4168.0
17.89410 4352.0
17.89910 4333.0
17.90410 4548.0
17.90910 4551.0
17.91410 4707.0
17.91910 5009.0
17.92410 4939.0
17.92910 4953.0
17.93410 5161.0
17.93910 5117.0
17.94410 5115.0
17.94910 5260.0
17.95410 5382.0
17.95910 5144.0
17.96410 5078.0
17.96910 5149.0
17.97410 5041.0
17.97910 5084.0
17.98410 4744.0
17.98910 4708.0
17.99410 4588.0
17.99910 4486.0
18.00410 4392.0
18.00910 4290.0
18.01410 4168.0
18.01910 4072.0
18.02410 3897.0
18.02910 3923.0
18.03410 3702.0
18.03910 3696.0
18.04410 3596.0
18.04910 3498.0
18.05410 3589.0
18.05910 3508.0
18.06410 3475.0
18.06910 3463.0
18.07410 3444.0
18.07910 3417.0
18.08410 3431.0
18.08910 3400.0
18.09410 3221.0
18.09910 3301.0
18.10410 3244.0
18.10910 3148.0
18.11410 3226.0
18.11910 3150.0
18.12410 3158.0
18.12910 3139.0
18.13410 3085.0
18.13910 3187.0
18.14410 3042.0
18.14910 2998.0
18.15410 2997.0
18.15910 2877.0
18.16410 2841.0
18.16910 2937.0
18.17410 2905.0
18.17910 2812.0
18.18410 2767.0
18.18910 2790.0
18.19410 2772.0
18.19910 2832.0
18.20410 2875.0
18.20910 2731.0
18.21410 2743.0
18.21910 2840.0
18.22410 2841.0
18.22910 2812.0
18.23410 2696.0
18.23910 2683.0
18.24410 2593.0
18.24910 2598.0
18.25410 2643.0
18.25910 2555.0
18.26410 2553.0
18.26910 2587.0
18.27410 2523.0
18.27910 2624.0
18.28410 2519.0
18.28910 2480.0
18.29410 2398.0
18.29910 2454.0
18.30410 2445.0
18.30910 2454.0
18.31410 2473.0
18.31910 2362.0
18.32410 2366.0
18.32910 2404.0
18.33410 2369.0
18.33910 2323.0
18.34410 2320.0
18.34910 2317.0
18.35410 2232.0
18.35910 2305.0
18.36410 2293.0
18.36910 2198.0
18.37410 2286.0
18.37910 2158.0
18.38410 2160.0
18.38910 2157.0
18.39410 2153.0
18.39910 2104.0
18.40410 2116.0
18.40910 2023.0
18.41410 2115.0
18.41910 2010.0
18.42410 2113.0
18.42910 2010.0
18.43410 2009.0
18.43910 2017.0
18.44410 1947.0
18.44910 1959.0
18.45410 1917.0
18.45910 1944.0
18.46410 1908.0
18.46910 1852.0
18.47410 1835.0
18.47910 1786.0
18.48410 1770.0
18.48910 1856.0
18.49410 1864.0
18.49910 1789.0
18.50410 1768.0
18.50910 1758.0
18.51410 1782.0
18.51910 1748.0
18.52410 1690.0
18.52910 1730.0
18.53410 1682.0
18.53910 1676.0
18.54410 1650.0
18.54910 1701.0
18.55410 1649.0
18.55910 1685.0
18.56410 1680.0
18.56910 1602.0
18.57410 1541.0
18.57910 1641.0
18.58410 1644.0
18.58910 1551.0
18.59410 1442.0
18.59910 1463.0
18.60410 1504.0
18.60910 1573.0
18.61410 1503.0
18.61910 1464.0
18.62410 1500.0
18.62910 1372.0
18.63410 1434.0
18.63910 1424.0
18.64410 1406.0
18.64910 1404.0
18.65410 1357.0
18.65910 1388.0
18.66410 1318.0
18.66910 1280.0
18.67410 1330.0
18.67910 1293.0
18.68410 1241.0
18.68910 1318.0
18.69410 1288.0
18.69910 1215.0
18.70410 1208.0
18.70910 1276.0
18.71410 1239.0
18.71910 1132.0
18.72410 1178.0
18.72910 1188.0
18.73410 1166.0
18.73910 1193.0
18.74410 1124.0
18.74910 1134.0
18.75410 1063.0
18.75910 1081.0
18.76410 1142.0
18.76910 1051.0
18.77410 1086.0
18.77910 1091.0
18.78410 1057.0
18.78910 1060.0
18.79410 1081.0
18.79910 1040.0
18.80410 1035.0
18.80910 1038.0
18.81410 1076.0
18.81910 1066.0
18.82410 992.0
18.82910 980.0
18.83410 961.0
18.83910 1028.0
18.84410 970.0
18.84910 936.0
18.85410 965.0
18.85910 989.0
18.86410 967.0
18.86910 930.0
18.87410 921.0
18.87910 983.0
18.88410 931.0
18.88910 912.0
18.89410 844.0
18.89910 860.0
18.90410 818.0
18.90910 891.0
18.91410 865.0
18.91910 803.0
18.92410 836.0
18.92910 877.0
18.93410 752.0
18.93910 844.0
18.94410 842.0
18.94910 810.0
18.95410 778.0
18.95910 788.0
18.96410 747.0
18.96910 747.0
18.97410 793.0
18.97910 742.0
18.98410 788.0
18.98910 677.0
18.99410 737.0
18.99910 749.0
19.00410 734.0
19.00910 710.0
19.01410 708.0
19.01910 617.0
19.02410 763.0
19.02910 715.0
19.03410 715.0
19.03910 677.0
19.04410 696.0
19.04910 651.0
19.05410 715.0
19.05910 656.0
19.06410 649.0
19.06910 640.0
19.07410 684.0
19.07910 635.0
19.08410 612.0
19.08910 590.0
19.09410 601.0
19.09910 622.0
19.10410 583.0
19.10910 556.0
19.11410 630.0
19.11910 610.0
19.12410 644.0
19.12910 611.0
19.13410 603.0
19.13910 575.0
19.14410 573.0
19.14910 550.0
19.15410 540.0
19.15910 538.0
19.16410 574.0
19.16910 548.0
19.17410 531.0
19.17910 509.0
19.18410 546.0
19.18910 573.0
19.19410 498.0
19.19910 478.0
19.20410 502.0
19.20910 481.0
19.21410 549.0
19.21910 459.0
19.22410 497.0
19.22910 488.0
19.23410 467.0
19.23910 464.0
19.24410 477.0
19.24910 472.0
19.25410 459.0
19.25910 510.0
19.26410 472.0
19.26910 425.0
19.27410 428.0
19.27910 493.0
19.28410 439.0
19.28910 419.0
19.29410 450.0
19.29910 474.0
19.30410 370.0
19.30910 396.0
19.31410 428.0
19.31910 427.0
19.32410 411.0
19.32910 427.0
19.33410 407.0
19.33910 442.0
19.34410 411.0
19.34910 403.0
19.35410 396.0
19.35910 409.0
19.36410 396.0
19.36910 433.0
19.37410 406.0
19.37910 416.0
19.38410 406.0
19.38910 374.0
19.39410 354.0
19.39910 381.0
19.40410 395.0
19.40910 365.0
19.41410 371.0
19.41910 365.0
19.42410 364.0
19.42910 342.0
19.43410 337.0
19.43910 354.0
19.44410 371.0
19.44910 341.0
19.45410 340.0
19.45910 356.0
19.46410 344.0
19.46910 343.0
19.47410 363.0
19.47910 318.0
19.48410 321.0
19.48910 337.0
19.49410 313.0
19.49910 315.0
19.50410 295.0
19.50910 325.0
19.51410 335.0
19.51910 324.0
19.52410 300.0
19.52910 325.0
19.53410 322.0
19.53910 303.0
19.54410 280.0
19.54910 295.0
19.55410 340.0
19.55910 299.0
19.56410 288.0
19.56910 299.0
19.57410 293.0
19.57910 260.0
19.58410 282.0
19.58910 306.0
19.59410 303.0
19.59910 287.0
19.60410 253.0
19.60910 271.0
19.61410 268.0
19.61910 287.0
19.62410 268.0
19.62910 293.0
19.63410 273.0
19.63910 262.0
19.64410 249.0
19.64910 264.0
19.65410 258.0
19.65910 241.0
19.66410 253.0
19.66910 254.0
19.67410 247.0
19.67910 238.0
19.68410 261.0
19.68910 268.0
19.69410 272.0
19.69910 232.0
19.70410 247.0
19.70910 247.0
19.71410 235.0
19.71910 247.0
19.72410 262.0
19.72910 246.0
19.73410 218.0
19.73910 236.0
19.74410 228.0
19.74910 228.0
19.75410 250.0
19.75910 212.0
19.76410 231.0
19.76910 252.0
19.77410 243.0
19.77910 212.0
19.78410 215.0
19.78910 205.0
19.79410 228.0
19.79910 219.0
19.80410 209.0
19.80910 178.0
19.81410 202.0
19.81910 230.0
19.82410 218.0
19.82910 233.0
19.83410 173.0
19.83910 225.0
19.84410 195.0
19.84910 206.0
19.85410 214.0
19.85910 202.0
19.86410 199.0
19.86910 224.0
19.87410 199.0
19.87910 186.0
19.88410 205.0
19.88910 180.0
19.89410 212.0
19.89910 209.0
19.90410 188.0
19.90910 182.0
19.91410 177.0
19.91910 182.0
19.92410 187.0
19.92910 164.0