File: data/W6819/XRD_Omega/W6819_Cr2O3_scan_omega_2deg_step_0.002deg0_2.xy
18.36690 178.0
18.36890 168.0
18.37090 191.0
18.37290 219.0
18.37490 197.0
18.37690 206.0
18.37890 190.0
18.38090 187.0
18.38290 178.0
18.38490 185.0
18.38690 186.0
18.38890 197.0
18.39090 208.0
18.39290 205.0
18.39490 209.0
18.39690 204.0
18.39890 206.0
18.40090 199.0
18.40290 214.0
18.40490 225.0
18.40690 237.0
18.40890 198.0
18.41090 197.0
18.41290 192.0
18.41490 200.0
18.41690 206.0
18.41890 209.0
18.42090 198.0
18.42290 228.0
18.42490 177.0
18.42690 184.0
18.42890 187.0
18.43090 224.0
18.43290 202.0
18.43490 247.0
18.43690 203.0
18.43890 219.0
18.44090 219.0
18.44290 212.0
18.44490 218.0
18.44690 217.0
18.44890 230.0
18.45090 217.0
18.45290 179.0
18.45490 222.0
18.45690 230.0
18.45890 204.0
18.46090 226.0
18.46290 245.0
18.46490 257.0
18.46690 212.0
18.46890 225.0
18.47090 217.0
18.47290 188.0
18.47490 231.0
18.47690 231.0
18.47890 221.0
18.48090 226.0
18.48290 218.0
18.48490 207.0
18.48690 224.0
18.48890 236.0
18.49090 221.0
18.49290 239.0
18.49490 219.0
18.49690 225.0
18.49890 204.0
18.50090 212.0
18.50290 223.0
18.50490 206.0
18.50690 259.0
18.50890 239.0
18.51090 235.0
18.51290 232.0
18.51490 211.0
18.51690 240.0
18.51890 234.0
18.52090 248.0
18.52290 213.0
18.52490 224.0
18.52690 215.0
18.52890 236.0
18.53090 238.0
18.53290 207.0
18.53490 224.0
18.53690 204.0
18.53890 235.0
18.54090 207.0
18.54290 235.0
18.54490 245.0
18.54690 218.0
18.54890 227.0
18.55090 229.0
18.55290 232.0
18.55490 219.0
18.55690 232.0
18.55890 244.0
18.56090 226.0
18.56290 232.0
18.56490 244.0
18.56690 241.0
18.56890 251.0
18.57090 195.0
18.57290 215.0
18.57490 236.0
18.57690 249.0
18.57890 275.0
18.58090 251.0
18.58290 221.0
18.58490 221.0
18.58690 234.0
18.58890 246.0
18.59090 230.0
18.59290 243.0
18.59490 240.0
18.59690 241.0
18.59890 266.0
18.60090 262.0
18.60290 254.0
18.60490 237.0
18.60690 241.0
18.60890 257.0
18.61090 250.0
18.61290 273.0
18.61490 258.0
18.61690 247.0
18.61890 254.0
18.62090 262.0
18.62290 262.0
18.62490 241.0
18.62690 245.0
18.62890 291.0
18.63090 263.0
18.63290 245.0
18.63490 267.0
18.63690 267.0
18.63890 237.0
18.64090 277.0
18.64290 257.0
18.64490 226.0
18.64690 248.0
18.64890 265.0
18.65090 265.0
18.65290 260.0
18.65490 278.0
18.65690 271.0
18.65890 242.0
18.66090 269.0
18.66290 277.0
18.66490 262.0
18.66690 262.0
18.66890 275.0
18.67090 291.0
18.67290 302.0
18.67490 308.0
18.67690 284.0
18.67890 269.0
18.68090 280.0
18.68290 316.0
18.68490 273.0
18.68690 284.0
18.68890 274.0
18.69090 296.0
18.69290 287.0
18.69490 289.0
18.69690 261.0
18.69890 319.0
18.70090 303.0
18.70290 298.0
18.70490 282.0
18.70690 322.0
18.70890 299.0
18.71090 303.0
18.71290 317.0
18.71490 342.0
18.71690 264.0
18.71890 306.0
18.72090 270.0
18.72290 316.0
18.72490 294.0
18.72690 327.0
18.72890 309.0
18.73090 317.0
18.73290 313.0
18.73490 303.0
18.73690 329.0
18.73890 340.0
18.74090 290.0
18.74290 314.0
18.74490 339.0
18.74690 298.0
18.74890 325.0
18.75090 290.0
18.75290 309.0
18.75490 302.0
18.75690 359.0
18.75890 316.0
18.76090 346.0
18.76290 328.0
18.76490 312.0
18.76690 353.0
18.76890 316.0
18.77090 309.0
18.77290 364.0
18.77490 330.0
18.77690 376.0
18.77890 355.0
18.78090 374.0
18.78290 346.0
18.78490 346.0
18.78690 404.0
18.78890 354.0
18.79090 345.0
18.79290 395.0
18.79490 339.0
18.79690 367.0
18.79890 351.0
18.80090 372.0
18.80290 400.0
18.80490 386.0
18.80690 408.0
18.80890 384.0
18.81090 364.0
18.81290 370.0
18.81490 402.0
18.81690 373.0
18.81890 383.0
18.82090 420.0
18.82290 403.0
18.82490 379.0
18.82690 423.0
18.82890 424.0
18.83090 391.0
18.83290 410.0
18.83490 381.0
18.83690 401.0
18.83890 412.0
18.84090 405.0
18.84290 379.0
18.84490 398.0
18.84690 406.0
18.84890 403.0
18.85090 411.0
18.85290 416.0
18.85490 416.0
18.85690 416.0
18.85890 428.0
18.86090 434.0
18.86290 472.0
18.86490 489.0
18.86690 436.0
18.86890 426.0
18.87090 452.0
18.87290 454.0
18.87490 456.0
18.87690 439.0
18.87890 435.0
18.88090 456.0
18.88290 467.0
18.88490 428.0
18.88690 447.0
18.88890 451.0
18.89090 456.0
18.89290 467.0
18.89490 487.0
18.89690 510.0
18.89890 457.0
18.90090 492.0
18.90290 440.0
18.90490 470.0
18.90690 471.0
18.90890 474.0
18.91090 440.0
18.91290 545.0
18.91490 538.0
18.91690 531.0
18.91890 481.0
18.92090 517.0
18.92290 552.0
18.92490 495.0
18.92690 507.0
18.92890 536.0
18.93090 525.0
18.93290 550.0
18.93490 529.0
18.93690 563.0
18.93890 553.0
18.94090 475.0
18.94290 535.0
18.94490 549.0
18.94690 592.0
18.94890 551.0
18.95090 582.0
18.95290 541.0
18.95490 586.0
18.95690 565.0
18.95890 601.0
18.96090 527.0
18.96290 519.0
18.96490 523.0
18.96690 603.0
18.96890 611.0
18.97090 555.0
18.97290 576.0
18.97490 583.0
18.97690 583.0
18.97890 598.0
18.98090 611.0
18.98290 634.0
18.98490 611.0
18.98690 616.0
18.98890 674.0
18.99090 671.0
18.99290 644.0
18.99490 607.0
18.99690 620.0
18.99890 627.0
19.00090 660.0
19.00290 678.0
19.00490 635.0
19.00690 659.0
19.00890 675.0
19.01090 703.0
19.01290 702.0
19.01490 665.0
19.01690 731.0
19.01890 668.0
19.02090 670.0
19.02290 681.0
19.02490 702.0
19.02690 670.0
19.02890 687.0
19.03090 783.0
19.03290 701.0
19.03490 749.0
19.03690 739.0
19.03890 707.0
19.04090 731.0
19.04290 736.0
19.04490 716.0
19.04690 708.0
19.04890 755.0
19.05090 770.0
19.05290 791.0
19.05490 808.0
19.05690 757.0
19.05890 870.0
19.06090 824.0
19.06290 862.0
19.06490 847.0
19.06690 828.0
19.06890 820.0
19.07090 831.0
19.07290 848.0
19.07490 848.0
19.07690 826.0
19.07890 837.0
19.08090 824.0
19.08290 798.0
19.08490 873.0
19.08690 835.0
19.08890 894.0
19.09090 871.0
19.09290 910.0
19.09490 880.0
19.09690 893.0
19.09890 876.0
19.10090 905.0
19.10290 888.0
19.10490 912.0
19.10690 913.0
19.10890 921.0
19.11090 938.0
19.11290 968.0
19.11490 927.0
19.11690 990.0
19.11890 914.0
19.12090 955.0
19.12290 1032.0
19.12490 1035.0
19.12690 964.0
19.12890 983.0
19.13090 1005.0
19.13290 1043.0
19.13490 1086.0
19.13690 1039.0
19.13890 1049.0
19.14090 1024.0
19.14290 1076.0
19.14490 1138.0
19.14690 1078.0
19.14890 1149.0
19.15090 1129.0
19.15290 1098.0
19.15490 1135.0
19.15690 1090.0
19.15890 1097.0
19.16090 1164.0
19.16290 1157.0
19.16490 1167.0
19.16690 1218.0
19.16890 1212.0
19.17090 1205.0
19.17290 1198.0
19.17490 1191.0
19.17690 1190.0
19.17890 1252.0
19.18090 1214.0
19.18290 1279.0
19.18490 1279.0
19.18690 1314.0
19.18890 1335.0
19.19090 1285.0
19.19290 1340.0
19.19490 1359.0
19.19690 1317.0
19.19890 1340.0
19.20090 1344.0
19.20290 1388.0
19.20490 1417.0
19.20690 1410.0
19.20890 1455.0
19.21090 1449.0
19.21290 1388.0
19.21490 1414.0
19.21690 1420.0
19.21890 1399.0
19.22090 1441.0
19.22290 1527.0
19.22490 1539.0
19.22690 1482.0
19.22890 1588.0
19.23090 1541.0
19.23290 1545.0
19.23490 1518.0
19.23690 1522.0
19.23890 1555.0
19.24090 1556.0
19.24290 1622.0
19.24490 1567.0
19.24690 1704.0
19.24890 1637.0
19.25090 1630.0
19.25290 1680.0
19.25490 1731.0
19.25690 1728.0
19.25890 1657.0
19.26090 1735.0
19.26290 1634.0
19.26490 1716.0
19.26690 1714.0
19.26890 1735.0
19.27090 1684.0
19.27290 1738.0
19.27490 1715.0
19.27690 1787.0
19.27890 1831.0
19.28090 1776.0
19.28290 1849.0
19.28490 1772.0
19.28690 1786.0
19.28890 1797.0
19.29090 1804.0
19.29290 1718.0
19.29490 1761.0
19.29690 1753.0
19.29890 1900.0
19.30090 1834.0
19.30290 1858.0
19.30490 1764.0
19.30690 1789.0
19.30890 1859.0
19.31090 1822.0
19.31290 1875.0
19.31490 1878.0
19.31690 1864.0
19.31890 1903.0
19.32090 1825.0
19.32290 1796.0
19.32490 1884.0
19.32690 1928.0
19.32890 1933.0
19.33090 1818.0
19.33290 1918.0
19.33490 1894.0
19.33690 1852.0
19.33890 1876.0
19.34090 1899.0
19.34290 1894.0
19.34490 1881.0
19.34690 1890.0
19.34890 1922.0
19.35090 1926.0
19.35290 1953.0
19.35490 1903.0
19.35690 1948.0
19.35890 1884.0
19.36090 1914.0
19.36290 1781.0
19.36490 1875.0
19.36690 1842.0
19.36890 1954.0
19.37090 1895.0
19.37290 1913.0
19.37490 1849.0
19.37690 1881.0
19.37890 1910.0
19.38090 1898.0
19.38290 1953.0
19.38490 1894.0
19.38690 1841.0
19.38890 1892.0
19.39090 1795.0
19.39290 1871.0
19.39490 1865.0
19.39690 1923.0
19.39890 1967.0
19.40090 1960.0
19.40290 1902.0
19.40490 1867.0
19.40690 1826.0
19.40890 1834.0
19.41090 1807.0
19.41290 1812.0
19.41490 1805.0
19.41690 1843.0
19.41890 1794.0
19.42090 1836.0
19.42290 1869.0
19.42490 1813.0
19.42690 1805.0
19.42890 1804.0
19.43090 1839.0
19.43290 1738.0
19.43490 1721.0
19.43690 1680.0
19.43890 1749.0
19.44090 1771.0
19.44290 1694.0
19.44490 1794.0
19.44690 1770.0
19.44890 1771.0
19.45090 1834.0
19.45290 1739.0
19.45490 1786.0
19.45690 1741.0
19.45890 1738.0
19.46090 1761.0
19.46290 1743.0
19.46490 1679.0
19.46690 1657.0
19.46890 1702.0
19.47090 1656.0
19.47290 1628.0
19.47490 1605.0
19.47690 1583.0
19.47890 1664.0
19.48090 1691.0
19.48290 1709.0
19.48490 1608.0
19.48690 1582.0
19.48890 1588.0
19.49090 1598.0
19.49290 1625.0
19.49490 1601.0
19.49690 1610.0
19.49890 1592.0
19.50090 1555.0
19.50290 1581.0
19.50490 1578.0
19.50690 1539.0
19.50890 1509.0
19.51090 1514.0
19.51290 1459.0
19.51490 1479.0
19.51690 1515.0
19.51890 1446.0
19.52090 1521.0
19.52290 1446.0
19.52490 1515.0
19.52690 1420.0
19.52890 1417.0
19.53090 1421.0
19.53290 1380.0
19.53490 1437.0
19.53690 1402.0
19.53890 1441.0
19.54090 1356.0
19.54290 1351.0
19.54490 1360.0
19.54690 1310.0
19.54890 1291.0
19.55090 1285.0
19.55290 1405.0
19.55490 1273.0
19.55690 1330.0
19.55890 1250.0
19.56090 1302.0
19.56290 1237.0
19.56490 1249.0
19.56690 1191.0
19.56890 1186.0
19.57090 1202.0
19.57290 1121.0
19.57490 1189.0
19.57690 1198.0
19.57890 1118.0
19.58090 1211.0
19.58290 1144.0
19.58490 1239.0
19.58690 1153.0
19.58890 1192.0
19.59090 1124.0
19.59290 1147.0
19.59490 1138.0
19.59690 1158.0
19.59890 1082.0
19.60090 1074.0
19.60290 1080.0
19.60490 1116.0
19.60690 1057.0
19.60890 1071.0
19.61090 1087.0
19.61290 1068.0
19.61490 997.0
19.61690 1050.0
19.61890 1085.0
19.62090 1029.0
19.62290 1079.0
19.62490 1021.0
19.62690 962.0
19.62890 936.0
19.63090 1026.0
19.63290 984.0
19.63490 909.0
19.63690 970.0
19.63890 970.0
19.64090 947.0
19.64290 976.0
19.64490 921.0
19.64690 947.0
19.64890 947.0
19.65090 925.0
19.65290 937.0
19.65490 903.0
19.65690 930.0
19.65890 892.0
19.66090 843.0
19.66290 895.0
19.66490 845.0
19.66690 889.0
19.66890 836.0
19.67090 824.0
19.67290 879.0
19.67490 848.0
19.67690 827.0
19.67890 875.0
19.68090 828.0
19.68290 865.0
19.68490 816.0
19.68690 825.0
19.68890 834.0
19.69090 813.0
19.69290 863.0
19.69490 736.0
19.69690 830.0
19.69890 802.0
19.70090 845.0
19.70290 739.0
19.70490 738.0
19.70690 761.0
19.70890 747.0
19.71090 764.0
19.71290 767.0
19.71490 750.0
19.71690 732.0
19.71890 754.0
19.72090 750.0
19.72290 759.0
19.72490 810.0
19.72690 743.0
19.72890 724.0
19.73090 776.0
19.73290 737.0
19.73490 750.0
19.73690 703.0
19.73890 680.0
19.74090 728.0
19.74290 733.0
19.74490 733.0
19.74690 730.0
19.74890 750.0
19.75090 763.0
19.75290 775.0
19.75490 762.0
19.75690 766.0
19.75890 866.0
19.76090 824.0
19.76290 786.0
19.76490 847.0
19.76690 880.0
19.76890 874.0
19.77090 910.0
19.77290 953.0
19.77490 913.0
19.77690 887.0
19.77890 916.0
19.78090 875.0
19.78290 856.0
19.78490 838.0
19.78690 853.0
19.78890 812.0
19.79090 782.0
19.79290 771.0
19.79490 714.0
19.79690 702.0
19.79890 671.0
19.80090 738.0
19.80290 679.0
19.80490 674.0
19.80690 671.0
19.80890 685.0
19.81090 635.0
19.81290 636.0
19.81490 606.0
19.81690 616.0
19.81890 615.0
19.82090 612.0
19.82290 615.0
19.82490 612.0
19.82690 609.0
19.82890 637.0
19.83090 624.0
19.83290 587.0
19.83490 592.0
19.83690 653.0
19.83890 573.0
19.84090 626.0
19.84290 587.0
19.84490 582.0
19.84690 588.0
19.84890 587.0
19.85090 603.0
19.85290 593.0
19.85490 571.0
19.85690 577.0
19.85890 575.0
19.86090 555.0
19.86290 553.0
19.86490 506.0
19.86690 530.0
19.86890 561.0
19.87090 523.0
19.87290 526.0
19.87490 517.0
19.87690 531.0
19.87890 502.0
19.88090 504.0
19.88290 523.0
19.88490 462.0
19.88690 510.0
19.88890 498.0
19.89090 472.0
19.89290 485.0
19.89490 518.0
19.89690 455.0
19.89890 451.0
19.90090 465.0
19.90290 507.0
19.90490 483.0
19.90690 528.0
19.90890 489.0
19.91090 477.0
19.91290 497.0
19.91490 460.0
19.91690 520.0
19.91890 504.0
19.92090 488.0
19.92290 491.0
19.92490 477.0
19.92690 476.0
19.92890 462.0
19.93090 491.0
19.93290 485.0
19.93490 443.0
19.93690 457.0
19.93890 441.0
19.94090 467.0
19.94290 448.0
19.94490 479.0
19.94690 408.0
19.94890 421.0
19.95090 444.0
19.95290 425.0
19.95490 401.0
19.95690 373.0
19.95890 408.0
19.96090 413.0
19.96290 390.0
19.96490 397.0
19.96690 389.0
19.96890 388.0
19.97090 347.0
19.97290 367.0
19.97490 382.0
19.97690 374.0
19.97890 401.0
19.98090 387.0
19.98290 384.0
19.98490 389.0
19.98690 375.0
19.98890 357.0
19.99090 364.0
19.99290 348.0
19.99490 339.0
19.99690 340.0
19.99890 316.0
20.00090 326.0
20.00290 344.0
20.00490 333.0
20.00690 346.0
20.00890 316.0
20.01090 361.0
20.01290 317.0
20.01490 319.0
20.01690 319.0
20.01890 320.0
20.02090 316.0
20.02290 285.0
20.02490 337.0
20.02690 288.0
20.02890 315.0
20.03090 316.0
20.03290 351.0
20.03490 300.0
20.03690 301.0
20.03890 312.0
20.04090 321.0
20.04290 327.0
20.04490 328.0
20.04690 300.0
20.04890 304.0
20.05090 319.0
20.05290 287.0
20.05490 282.0
20.05690 293.0
20.05890 303.0
20.06090 321.0
20.06290 270.0
20.06490 301.0
20.06690 299.0
20.06890 259.0
20.07090 257.0
20.07290 286.0
20.07490 287.0
20.07690 253.0
20.07890 261.0
20.08090 280.0
20.08290 282.0
20.08490 266.0
20.08690 282.0
20.08890 277.0
20.09090 267.0
20.09290 295.0
20.09490 262.0
20.09690 281.0
20.09890 289.0
20.10090 255.0
20.10290 273.0
20.10490 231.0
20.10690 277.0
20.10890 250.0
20.11090 265.0
20.11290 263.0
20.11490 274.0
20.11690 288.0
20.11890 240.0
20.12090 248.0
20.12290 258.0
20.12490 248.0
20.12690 251.0
20.12890 266.0
20.13090 244.0
20.13290 245.0
20.13490 228.0
20.13690 265.0
20.13890 233.0
20.14090 232.0
20.14290 253.0
20.14490 261.0
20.14690 259.0
20.14890 207.0
20.15090 209.0
20.15290 255.0
20.15490 266.0
20.15690 226.0
20.15890 263.0
20.16090 220.0
20.16290 258.0
20.16490 237.0
20.16690 244.0
20.16890 243.0
20.17090 250.0
20.17290 245.0
20.17490 217.0
20.17690 219.0
20.17890 234.0
20.18090 242.0
20.18290 220.0
20.18490 236.0
20.18690 260.0
20.18890 235.0
20.19090 234.0
20.19290 230.0
20.19490 269.0
20.19690 218.0
20.19890 231.0
20.20090 219.0
20.20290 222.0
20.20490 224.0
20.20690 226.0
20.20890 237.0
20.21090 229.0
20.21290 241.0
20.21490 216.0
20.21690 207.0
20.21890 212.0
20.22090 239.0
20.22290 211.0
20.22490 222.0
20.22690 235.0
20.22890 208.0
20.23090 223.0
20.23290 210.0
20.23490 224.0
20.23690 233.0
20.23890 239.0
20.24090 221.0
20.24290 222.0
20.24490 209.0
20.24690 178.0
20.24890 244.0
20.25090 232.0
20.25290 205.0
20.25490 236.0
20.25690 215.0
20.25890 207.0
20.26090 183.0
20.26290 229.0
20.26490 198.0
20.26690 201.0
20.26890 213.0
20.27090 229.0
20.27290 221.0
20.27490 203.0
20.27690 223.0
20.27890 212.0
20.28090 205.0
20.28290 222.0
20.28490 216.0
20.28690 202.0
20.28890 195.0
20.29090 206.0
20.29290 216.0
20.29490 197.0
20.29690 205.0
20.29890 198.0
20.30090 212.0
20.30290 189.0
20.30490 226.0
20.30690 210.0
20.30890 202.0
20.31090 214.0
20.31290 200.0
20.31490 208.0
20.31690 199.0
20.31890 219.0
20.32090 209.0
20.32290 207.0
20.32490 182.0
20.32690 179.0
20.32890 208.0
20.33090 183.0
20.33290 204.0
20.33490 170.0
20.33690 209.0
20.33890 189.0
20.34090 186.0
20.34290 194.0
20.34490 191.0
20.34690 194.0
20.34890 199.0
20.35090 170.0