File: data/W6933c/XRD_2ThetaOmega/c_scan_2th-om_10-130deg_PIXscan_17min.xy
10.0035 44.0
10.0872 68.0
10.1709 58.0
10.2546 70.0
10.3383 58.0
10.422 54.0
10.5057 59.0
10.5894 56.0
10.6731 59.0
10.7568 59.0
10.8405 56.0
10.9242 41.0
11.0079 48.0
11.0916 41.0
11.1753 50.0
11.259 46.0
11.3428 46.0
11.4265 44.0
11.5102 57.0
11.5939 48.0
11.6776 55.0
11.7613 56.0
11.845 37.0
11.9287 43.0
12.0124 45.0
12.0961 53.0
12.1798 49.0
12.2635 56.0
12.3472 50.0
12.4309 44.0
12.5146 52.0
12.5983 54.0
12.682 43.0
12.7657 60.0
12.8495 52.0
12.9332 50.0
13.0169 57.0
13.1006 43.0
13.1843 48.0
13.268 38.0
13.3517 47.0
13.4354 43.0
13.5191 39.0
13.6028 41.0
13.6865 44.0
13.7702 36.0
13.8539 43.0
13.9376 56.0
14.0213 39.0
14.105 46.0
14.1887 41.0
14.2724 34.0
14.3562 32.0
14.4399 43.0
14.5236 26.0
14.6073 23.0
14.691 36.0
14.7747 46.0
14.8584 44.0
14.9421 35.0
15.0258 40.0
15.1095 37.0
15.1932 38.0
15.2769 30.0
15.3606 33.0
15.4443 30.0
15.528 33.0
15.6117 36.0
15.6954 35.0
15.7791 32.0
15.8629 34.0
15.9466 29.0
16.0303 36.0
16.114 41.0
16.1977 25.0
16.2814 40.0
16.3651 33.0
16.4488 36.0
16.5325 35.0
16.6162 36.0
16.6999 34.0
16.7836 44.0
16.8673 31.0
16.951 30.0
17.0347 30.0
17.1184 25.0
17.2021 35.0
17.2858 20.0
17.3696 31.0
17.4533 31.0
17.537 29.0
17.6207 34.0
17.7044 24.0
17.7881 29.0
17.8718 35.0
17.9555 22.0
18.0392 27.0
18.1229 36.0
18.2066 40.0
18.2903 35.0
18.374 27.0
18.4577 27.0
18.5414 30.0
18.6251 20.0
18.7088 25.0
18.7925 22.0
18.8763 36.0
18.96 24.0
19.0437 27.0
19.1274 35.0
19.2111 28.0
19.2948 26.0
19.3785 33.0
19.4622 23.0
19.5459 30.0
19.6296 27.0
19.7133 31.0
19.797 28.0
19.8807 27.0
19.9644 27.0
20.0481 26.0
20.1318 27.0
20.2155 32.0
20.2992 24.0
20.383 40.0
20.4667 42.0
20.5504 35.0
20.6341 18.0
20.7178 22.0
20.8015 23.0
20.8852 24.0
20.9689 24.0
21.0526 35.0
21.1363 27.0
21.22 30.0
21.3037 33.0
21.3874 17.0
21.4711 29.0
21.5548 23.0
21.6385 17.0
21.7222 19.0
21.8059 22.0
21.8897 27.0
21.9734 22.0
22.0571 22.0
22.1408 24.0
22.2245 21.0
22.3082 24.0
22.3919 25.0
22.4756 25.0
22.5593 31.0
22.643 16.0
22.7267 21.0
22.8104 22.0
22.8941 18.0
22.9778 27.0
23.0615 19.0
23.1452 23.0
23.2289 31.0
23.3126 25.0
23.3964 24.0
23.4801 24.0
23.5638 13.0
23.6475 25.0
23.7312 27.0
23.8149 22.0
23.8986 27.0
23.9823 27.0
24.066 13.0
24.1497 11.0
24.2334 23.0
24.3171 19.0
24.4008 15.0
24.4845 17.0
24.5682 24.0
24.6519 24.0
24.7356 25.0
24.8193 27.0
24.9031 19.0
24.9868 25.0
25.0705 18.0
25.1542 26.0
25.2379 27.0
25.3216 25.0
25.4053 21.0
25.489 19.0
25.5727 18.0
25.6564 19.0
25.7401 15.0
25.8238 21.0
25.9075 20.0
25.9912 13.0
26.0749 24.0
26.1586 17.0
26.2423 18.0
26.326 29.0
26.4098 14.0
26.4935 30.0
26.5772 18.0
26.6609 26.0
26.7446 23.0
26.8283 19.0
26.912 16.0
26.9957 25.0
27.0794 19.0
27.1631 21.0
27.2468 24.0
27.3305 27.0
27.4142 21.0
27.4979 18.0
27.5816 17.0
27.6653 23.0
27.749 20.0
27.8327 18.0
27.9165 26.0
28.0002 24.0
28.0839 20.0
28.1676 18.0
28.2513 29.0
28.335 14.0
28.4187 20.0
28.5024 14.0
28.5861 18.0
28.6698 13.0
28.7535 22.0
28.8372 23.0
28.9209 23.0
29.0046 21.0
29.0883 22.0
29.172 27.0
29.2557 13.0
29.3394 22.0
29.4232 18.0
29.5069 22.0
29.5906 21.0
29.6743 21.0
29.758 21.0
29.8417 24.0
29.9254 17.0
30.0091 20.0
30.0928 29.0
30.1765 16.0
30.2602 18.0
30.3439 18.0
30.4276 18.0
30.5113 20.0
30.595 14.0
30.6787 19.0
30.7624 22.0
30.8461 19.0
30.9298 19.0
31.0136 24.0
31.0973 16.0
31.181 30.0
31.2647 19.0
31.3484 22.0
31.4321 21.0
31.5158 22.0
31.5995 19.0
31.6832 20.0
31.7669 19.0
31.8506 16.0
31.9343 17.0
32.018 16.0
32.1017 21.0
32.1854 19.0
32.2691 24.0
32.3528 32.0
32.4365 20.0
32.5203 20.0
32.604 21.0
32.6877 28.0
32.7714 15.0
32.8551 22.0
32.9388 24.0
33.0225 14.0
33.1062 18.0
33.1899 21.0
33.2736 18.0
33.3573 22.0
33.441 30.0
33.5247 18.0
33.6084 21.0
33.6921 11.0
33.7758 13.0
33.8595 15.0
33.9432 18.0
34.027 18.0
34.1107 17.0
34.1944 23.0
34.2781 25.0
34.3618 16.0
34.4455 18.0
34.5292 26.0
34.6129 19.0
34.6966 17.0
34.7803 20.0
34.864 19.0
34.9477 15.0
35.0314 22.0
35.1151 23.0
35.1988 27.0
35.2825 20.0
35.3662 21.0
35.4499 24.0
35.5337 24.0
35.6174 28.0
35.7011 22.0
35.7848 18.0
35.8685 24.0
35.9522 24.0
36.0359 17.0
36.1196 21.0
36.2033 23.0
36.287 21.0
36.3707 19.0
36.4544 25.0
36.5381 21.0
36.6218 18.0
36.7055 14.0
36.7892 24.0
36.8729 21.0
36.9566 20.0
37.0404 15.0
37.1241 17.0
37.2078 24.0
37.2915 13.0
37.3752 31.0
37.4589 31.0
37.5426 12.0
37.6263 21.0
37.71 27.0
37.7937 24.0
37.8774 21.0
37.9611 29.0
38.0448 24.0
38.1285 34.0
38.2122 31.0
38.2959 32.0
38.3796 48.0
38.4633 34.0
38.5471 44.0
38.6308 42.0
38.7145 61.0
38.7982 67.0
38.8819 118.0
38.9656 206.0
39.0493 490.0
39.133 936.0
39.2167 1216.0
39.3004 894.0
39.3841 387.0
39.4678 140.0
39.5515 71.0
39.6352 51.0
39.7189 43.0
39.8026 39.0
39.8863 31.0
39.97 25.0
40.0538 37.0
40.1375 20.0
40.2212 29.0
40.3049 33.0
40.3886 19.0
40.4723 24.0
40.556 24.0
40.6397 21.0
40.7234 30.0
40.8071 27.0
40.8908 27.0
40.9745 35.0
41.0582 33.0
41.1419 34.0
41.2256 34.0
41.3093 57.0
41.393 110.0
41.4767 129.0
41.5605 2457.0
41.6442 1638.0
41.7279 4158.0
41.8116 140.0
41.8953 75.0
41.979 41.0
42.0627 39.0
42.1464 42.0
42.2301 26.0
42.3138 30.0
42.3975 34.0
42.4812 39.0
42.5649 23.0
42.6486 18.0
42.7323 32.0
42.816 19.0
42.8997 18.0
42.9834 24.0
43.0672 15.0
43.1509 21.0
43.2346 13.0
43.3183 20.0
43.402 26.0
43.4857 30.0
43.5694 17.0
43.6531 24.0
43.7368 22.0
43.8205 24.0
43.9042 26.0
43.9879 30.0
44.0716 33.0
44.1553 31.0
44.239 29.0
44.3227 45.0
44.4064 30.0
44.4901 46.0
44.5739 32.0
44.6576 22.0
44.7413 24.0
44.825 21.0
44.9087 26.0
44.9924 21.0
45.0761 21.0
45.1598 19.0
45.2435 28.0
45.3272 18.0
45.4109 20.0
45.4946 19.0
45.5783 29.0
45.662 29.0
45.7457 18.0
45.8294 21.0
45.9131 15.0
45.9968 18.0
46.0806 22.0
46.1643 20.0
46.248 28.0
46.3317 20.0
46.4154 20.0
46.4991 29.0
46.5828 12.0
46.6665 15.0
46.7502 18.0
46.8339 21.0
46.9176 29.0
47.0013 15.0
47.085 27.0
47.1687 21.0
47.2524 24.0
47.3361 17.0
47.4198 17.0
47.5035 11.0
47.5873 28.0
47.671 19.0
47.7547 7.0
47.8384 20.0
47.9221 24.0
48.0058 20.0
48.0895 16.0
48.1732 24.0
48.2569 18.0
48.3406 27.0
48.4243 31.0
48.508 19.0
48.5917 25.0
48.6754 15.0
48.7591 29.0
48.8428 26.0
48.9265 26.0
49.0102 20.0
49.094 14.0
49.1777 17.0
49.2614 20.0
49.3451 15.0
49.4288 25.0
49.5125 16.0
49.5962 15.0
49.6799 20.0
49.7636 22.0
49.8473 20.0
49.931 23.0
50.0147 18.0
50.0984 20.0
50.1821 16.0
50.2658 19.0
50.3495 21.0
50.4332 19.0
50.5169 16.0
50.6007 21.0
50.6844 22.0
50.7681 22.0
50.8518 18.0
50.9355 20.0
51.0192 13.0
51.1029 18.0
51.1866 29.0
51.2703 26.0
51.354 17.0
51.4377 22.0
51.5214 14.0
51.6051 16.0
51.6888 20.0
51.7725 24.0
51.8562 28.0
51.9399 20.0
52.0236 14.0
52.1074 33.0
52.1911 16.0
52.2748 29.0
52.3585 32.0
52.4422 31.0
52.5259 22.0
52.6096 19.0
52.6933 21.0
52.777 17.0
52.8607 22.0
52.9444 17.0
53.0281 17.0
53.1118 22.0
53.1955 32.0
53.2792 28.0
53.3629 24.0
53.4466 24.0
53.5303 23.0
53.6141 24.0
53.6978 21.0
53.7815 25.0
53.8652 23.0
53.9489 26.0
54.0326 28.0
54.1163 30.0
54.2 21.0
54.2837 14.0
54.3674 25.0
54.4511 8.0
54.5348 17.0
54.6185 18.0
54.7022 16.0
54.7859 17.0
54.8696 27.0
54.9533 14.0
55.037 29.0
55.1208 18.0
55.2045 23.0
55.2882 24.0
55.3719 25.0
55.4556 22.0
55.5393 12.0
55.623 23.0
55.7067 27.0
55.7904 23.0
55.8741 22.0
55.9578 23.0
56.0415 18.0
56.1252 24.0
56.2089 23.0
56.2926 23.0
56.3763 26.0
56.46 21.0
56.5437 21.0
56.6275 25.0
56.7112 21.0
56.7949 29.0
56.8786 20.0
56.9623 25.0
57.046 24.0
57.1297 25.0
57.2134 16.0
57.2971 19.0
57.3808 19.0
57.4645 19.0
57.5482 27.0
57.6319 16.0
57.7156 17.0
57.7993 25.0
57.883 26.0
57.9667 22.0
58.0504 21.0
58.1342 28.0
58.2179 19.0
58.3016 19.0
58.3853 25.0
58.469 24.0
58.5527 26.0
58.6364 24.0
58.7201 25.0
58.8038 24.0
58.8875 23.0
58.9712 15.0
59.0549 25.0
59.1386 15.0
59.2223 28.0
59.306 20.0
59.3897 21.0
59.4734 17.0
59.5571 16.0
59.6409 21.0
59.7246 25.0
59.8083 27.0
59.892 13.0
59.9757 21.0
60.0594 14.0
60.1431 24.0
60.2268 19.0
60.3105 25.0
60.3942 25.0
60.4779 16.0
60.5616 16.0
60.6453 26.0
60.729 29.0
60.8127 38.0
60.8964 17.0
60.9801 20.0
61.0638 19.0
61.1476 18.0
61.2313 21.0
61.315 25.0
61.3987 28.0
61.4824 26.0
61.5661 19.0
61.6498 25.0
61.7335 21.0
61.8172 19.0
61.9009 22.0
61.9846 18.0
62.0683 30.0
62.152 24.0
62.2357 16.0
62.3194 30.0
62.4031 12.0
62.4868 24.0
62.5705 28.0
62.6543 24.0
62.738 25.0
62.8217 29.0
62.9054 19.0
62.9891 19.0
63.0728 27.0
63.1565 23.0
63.2402 15.0
63.3239 27.0
63.4076 19.0
63.4913 22.0
63.575 22.0
63.6587 19.0
63.7424 23.0
63.8261 29.0
63.9098 33.0
63.9935 23.0
64.0772 27.0
64.161 30.0
64.2447 18.0
64.3284 24.0
64.4121 22.0
64.4958 22.0
64.5795 30.0
64.6632 26.0
64.7469 27.0
64.8306 23.0
64.9143 26.0
64.998 25.0
65.0817 26.0
65.1654 13.0
65.2491 21.0
65.3328 20.0
65.4165 19.0
65.5002 34.0
65.5839 26.0
65.6677 27.0
65.7514 34.0
65.8351 31.0
65.9188 27.0
66.0025 30.0
66.0862 20.0
66.1699 20.0
66.2536 32.0
66.3373 18.0
66.421 28.0
66.5047 30.0
66.5884 19.0
66.6721 21.0
66.7558 26.0
66.8395 13.0
66.9232 31.0
67.0069 30.0
67.0906 27.0
67.1744 23.0
67.2581 22.0
67.3418 24.0
67.4255 20.0
67.5092 20.0
67.5929 15.0
67.6766 25.0
67.7603 32.0
67.844 26.0
67.9277 22.0
68.0114 35.0
68.0951 28.0
68.1788 21.0
68.2625 24.0
68.3462 32.0
68.4299 26.0
68.5136 23.0
68.5973 24.0
68.6811 29.0
68.7648 27.0
68.8485 21.0
68.9322 19.0
69.0159 23.0
69.0996 22.0
69.1833 24.0
69.267 21.0
69.3507 15.0
69.4344 26.0
69.5181 18.0
69.6018 18.0
69.6855 28.0
69.7692 23.0
69.8529 26.0
69.9366 27.0
70.0203 25.0
70.104 25.0
70.1878 16.0
70.2715 25.0
70.3552 13.0
70.4389 20.0
70.5226 26.0
70.6063 21.0
70.69 26.0
70.7737 23.0
70.8574 21.0
70.9411 17.0
71.0248 22.0
71.1085 33.0
71.1922 27.0
71.2759 23.0
71.3596 23.0
71.4433 29.0
71.527 18.0
71.6107 16.0
71.6945 21.0
71.7782 19.0
71.8619 21.0
71.9456 28.0
72.0293 24.0
72.113 32.0
72.1967 22.0
72.2804 26.0
72.3641 28.0
72.4478 15.0
72.5315 32.0
72.6152 20.0
72.6989 24.0
72.7826 26.0
72.8663 12.0
72.95 23.0
73.0337 21.0
73.1174 27.0
73.2012 20.0
73.2849 30.0
73.3686 25.0
73.4523 31.0
73.536 38.0
73.6197 21.0
73.7034 17.0
73.7871 21.0
73.8708 25.0
73.9545 22.0
74.0382 25.0
74.1219 30.0
74.2056 21.0
74.2893 33.0
74.373 22.0
74.4567 23.0
74.5404 26.0
74.6241 31.0
74.7079 27.0
74.7916 28.0
74.8753 21.0
74.959 27.0
75.0427 26.0
75.1264 28.0
75.2101 28.0
75.2938 28.0
75.3775 21.0
75.4612 25.0
75.5449 26.0
75.6286 27.0
75.7123 25.0
75.796 23.0
75.8797 20.0
75.9634 31.0
76.0471 28.0
76.1308 23.0
76.2146 25.0
76.2983 20.0
76.382 20.0
76.4657 28.0
76.5494 19.0
76.6331 31.0
76.7168 27.0
76.8005 22.0
76.8842 22.0
76.9679 19.0
77.0516 25.0
77.1353 24.0
77.219 27.0
77.3027 29.0
77.3864 23.0
77.4701 24.0
77.5538 31.0
77.6375 27.0
77.7213 26.0
77.805 24.0
77.8887 27.0
77.9724 34.0
78.0561 33.0
78.1398 19.0
78.2235 30.0
78.3072 24.0
78.3909 29.0
78.4746 15.0
78.5583 24.0
78.642 23.0
78.7257 31.0
78.8094 21.0
78.8931 32.0
78.9768 22.0
79.0605 30.0
79.1442 40.0
79.228 31.0
79.3117 35.0
79.3954 29.0
79.4791 30.0
79.5628 22.0
79.6465 26.0
79.7302 28.0
79.8139 29.0
79.8976 29.0
79.9813 76.0
80.065 33.0
80.1487 26.0
80.2324 33.0
80.3161 27.0
80.3998 24.0
80.4835 25.0
80.5672 22.0
80.6509 36.0
80.7347 28.0
80.8184 31.0
80.9021 22.0
80.9858 26.0
81.0695 28.0
81.1532 23.0
81.2369 35.0
81.3206 28.0
81.4043 23.0
81.488 29.0
81.5717 26.0
81.6554 39.0
81.7391 21.0
81.8228 28.0
81.9065 32.0
81.9902 40.0
82.0739 28.0
82.1576 29.0
82.2414 35.0
82.3251 32.0
82.4088 36.0
82.4925 41.0
82.5762 40.0
82.6599 30.0
82.7436 29.0
82.8273 31.0
82.911 39.0
82.9947 30.0
83.0784 35.0
83.1621 38.0
83.2458 41.0
83.3295 36.0
83.4132 43.0
83.4969 34.0
83.5806 39.0
83.6643 52.0
83.7481 54.0
83.8318 49.0
83.9155 62.0
83.9992 88.0
84.0829 119.0
84.1666 153.0
84.2503 173.0
84.334 178.0
84.4177 191.0
84.5014 230.0
84.5851 209.0
84.6688 149.0
84.7525 123.0
84.8362 107.0
84.9199 76.0
85.0036 73.0
85.0873 47.0
85.171 37.0
85.2548 40.0
85.3385 31.0
85.4222 36.0
85.5059 46.0
85.5896 31.0
85.6733 18.0
85.757 34.0
85.8407 25.0
85.9244 21.0
86.0081 42.0
86.0918 29.0
86.1755 34.0
86.2592 23.0
86.3429 13.0
86.4266 36.0
86.5103 29.0
86.594 26.0
86.6777 39.0
86.7615 34.0
86.8452 23.0
86.9289 45.0
87.0126 31.0
87.0963 28.0
87.18 26.0
87.2637 26.0
87.3474 33.0
87.4311 25.0
87.5148 33.0
87.5985 26.0
87.6822 28.0
87.7659 31.0
87.8496 28.0
87.9333 28.0
88.017 31.0
88.1007 25.0
88.1844 43.0
88.2682 32.0
88.3519 33.0
88.4356 18.0
88.5193 40.0
88.603 33.0
88.6867 43.0
88.7704 38.0
88.8541 24.0
88.9378 26.0
89.0215 31.0
89.1052 34.0
89.1889 36.0
89.2726 49.0
89.3563 35.0
89.44 36.0
89.5237 32.0
89.6074 43.0
89.6911 43.0
89.7749 49.0
89.8586 40.0
89.9423 55.0
90.026 77.0
90.1097 83.0
90.1934 109.0
90.2771 94.0
90.3608 120.0
90.4445 171.0
90.5282 460.0
90.6119 3390.0
90.6956 7626.0
90.7793 769.0
90.863 719.0
90.9467 6455.0
91.0304 962.0
91.1141 210.0
91.1978 116.0
91.2816 102.0
91.3653 90.0
91.449 54.0
91.5327 71.0
91.6164 52.0
91.7001 47.0
91.7838 44.0
91.8675 40.0
91.9512 40.0
92.0349 43.0
92.1186 52.0
92.2023 36.0
92.286 45.0
92.3697 31.0
92.4534 43.0
92.5371 28.0
92.6208 34.0
92.7045 35.0
92.7883 36.0
92.872 32.0
92.9557 29.0
93.0394 38.0
93.1231 27.0
93.2068 26.0
93.2905 30.0
93.3742 39.0
93.4579 27.0
93.5416 33.0
93.6253 31.0
93.709 32.0
93.7927 25.0
93.8764 29.0
93.9601 29.0
94.0438 28.0
94.1275 51.0
94.2112 27.0
94.295 23.0
94.3787 33.0
94.4624 31.0
94.5461 24.0
94.6298 35.0
94.7135 23.0
94.7972 30.0
94.8809 30.0
94.9646 25.0
95.0483 33.0
95.132 22.0
95.2157 30.0
95.2994 30.0
95.3831 32.0
95.4668 21.0
95.5505 36.0
95.6342 24.0
95.7179 22.0
95.8017 23.0
95.8854 31.0
95.9691 34.0
96.0528 23.0
96.1365 32.0
96.2202 29.0
96.3039 31.0
96.3876 22.0
96.4713 25.0
96.555 23.0
96.6387 20.0
96.7224 21.0
96.8061 28.0
96.8898 26.0
96.9735 24.0
97.0572 28.0
97.1409 31.0
97.2246 29.0
97.3084 27.0
97.3921 25.0
97.4758 32.0
97.5595 28.0
97.6432 26.0
97.7269 22.0
97.8106 29.0
97.8943 24.0
97.978 29.0
98.0617 36.0
98.1454 37.0
98.2291 25.0
98.3128 28.0
98.3965 33.0
98.4802 37.0
98.5639 23.0
98.6476 26.0
98.7313 28.0
98.8151 29.0
98.8988 34.0
98.9825 36.0
99.0662 21.0
99.1499 22.0
99.2336 32.0
99.3173 30.0
99.401 30.0
99.4847 32.0
99.5684 30.0
99.6521 26.0
99.7358 28.0
99.8195 30.0
99.9032 24.0
99.9869 26.0
100.071 28.0
100.154 25.0
100.238 18.0
100.322 22.0
100.405 30.0
100.489 34.0
100.573 29.0
100.657 32.0
100.74 23.0
100.824 20.0
100.908 25.0
100.991 30.0
101.075 32.0
101.159 27.0
101.243 42.0
101.326 25.0
101.41 28.0
101.494 22.0
101.577 27.0
101.661 33.0
101.745 28.0
101.828 32.0
101.912 42.0
101.996 24.0
102.08 27.0
102.163 32.0
102.247 15.0
102.331 24.0
102.414 20.0
102.498 25.0
102.582 20.0
102.666 34.0
102.749 39.0
102.833 17.0
102.917 31.0
103 30.0
103.084 30.0
103.168 23.0
103.251 22.0
103.335 26.0
103.419 27.0
103.503 30.0
103.586 26.0
103.67 34.0
103.754 30.0
103.837 29.0
103.921 23.0
104.005 18.0
104.089 29.0
104.172 25.0
104.256 30.0
104.34 34.0
104.423 24.0
104.507 17.0
104.591 23.0
104.674 28.0
104.758 25.0
104.842 28.0
104.926 29.0
105.009 22.0
105.093 27.0
105.177 30.0
105.26 27.0
105.344 26.0
105.428 23.0
105.511 29.0
105.595 32.0
105.679 28.0
105.763 25.0
105.846 26.0
105.93 36.0
106.014 26.0
106.097 39.0
106.181 42.0
106.265 24.0
106.349 31.0
106.432 24.0
106.516 26.0
106.6 22.0
106.683 41.0
106.767 37.0
106.851 32.0
106.934 29.0
107.018 20.0
107.102 35.0
107.186 33.0
107.269 33.0
107.353 32.0
107.437 27.0
107.52 29.0
107.604 24.0
107.688 26.0
107.772 18.0
107.855 25.0
107.939 25.0
108.023 32.0
108.106 26.0
108.19 16.0
108.274 34.0
108.357 32.0
108.441 28.0
108.525 27.0
108.609 25.0
108.692 29.0
108.776 23.0
108.86 26.0
108.943 37.0
109.027 25.0
109.111 21.0
109.195 27.0
109.278 31.0
109.362 32.0
109.446 32.0
109.529 17.0
109.613 27.0
109.697 25.0
109.78 20.0
109.864 26.0
109.948 27.0
110.032 34.0
110.115 23.0
110.199 31.0
110.283 25.0
110.366 25.0
110.45 29.0
110.534 22.0
110.618 27.0
110.701 23.0
110.785 35.0
110.869 29.0
110.952 40.0
111.036 33.0
111.12 18.0
111.203 23.0
111.287 22.0
111.371 23.0
111.455 18.0
111.538 25.0
111.622 28.0
111.706 29.0
111.789 17.0
111.873 22.0
111.957 32.0
112.041 38.0
112.124 28.0
112.208 29.0
112.292 28.0
112.375 32.0
112.459 34.0
112.543 27.0
112.626 22.0
112.71 29.0
112.794 38.0
112.878 25.0
112.961 25.0
113.045 29.0
113.129 32.0
113.212 27.0
113.296 38.0
113.38 26.0
113.464 33.0
113.547 28.0
113.631 27.0
113.715 29.0
113.798 22.0
113.882 30.0
113.966 30.0
114.049 26.0
114.133 25.0
114.217 25.0
114.301 31.0
114.384 42.0
114.468 31.0
114.552 27.0
114.635 24.0
114.719 23.0
114.803 25.0
114.887 20.0
114.97 28.0
115.054 28.0
115.138 28.0
115.221 31.0
115.305 33.0
115.389 25.0
115.472 35.0
115.556 32.0
115.64 28.0
115.724 30.0
115.807 30.0
115.891 28.0
115.975 31.0
116.058 35.0
116.142 37.0
116.226 28.0
116.31 37.0
116.393 19.0
116.477 31.0
116.561 25.0
116.644 33.0
116.728 25.0
116.812 28.0
116.895 33.0
116.979 31.0
117.063 36.0
117.147 33.0
117.23 21.0
117.314 31.0
117.398 22.0
117.481 28.0
117.565 31.0
117.649 21.0
117.733 31.0
117.816 28.0
117.9 26.0
117.984 17.0
118.067 30.0
118.151 23.0
118.235 28.0
118.318 29.0
118.402 34.0
118.486 27.0
118.57 16.0
118.653 21.0
118.737 29.0
118.821 16.0
118.904 21.0
118.988 34.0
119.072 34.0
119.156 35.0
119.239 27.0
119.323 30.0
119.407 35.0
119.49 25.0
119.574 16.0
119.658 30.0
119.741 43.0
119.825 31.0
119.909 23.0
119.993 27.0
120.076 35.0
120.16 32.0
120.244 22.0
120.327 37.0
120.411 37.0
120.495 27.0
120.578 20.0
120.662 28.0
120.746 35.0
120.83 29.0
120.913 33.0
120.997 26.0
121.081 28.0
121.164 26.0
121.248 23.0
121.332 26.0
121.416 31.0
121.499 36.0
121.583 21.0
121.667 28.0
121.75 25.0
121.834 32.0
121.918 26.0
122.001 22.0
122.085 27.0
122.169 25.0
122.253 21.0
122.336 21.0
122.42 27.0
122.504 26.0
122.587 34.0
122.671 31.0
122.755 35.0
122.839 26.0
122.922 31.0
123.006 34.0
123.09 35.0
123.173 28.0
123.257 28.0
123.341 34.0
123.424 29.0
123.508 28.0
123.592 36.0
123.676 26.0
123.759 40.0
123.843 25.0
123.927 28.0
124.01 30.0
124.094 41.0
124.178 37.0
124.262 25.0
124.345 20.0
124.429 21.0
124.513 27.0
124.596 32.0
124.68 35.0
124.764 26.0
124.847 27.0
124.931 24.0
125.015 28.0
125.099 30.0
125.182 28.0
125.266 32.0
125.35 27.0
125.433 32.0
125.517 38.0
125.601 32.0
125.685 19.0
125.768 21.0
125.852 36.0
125.936 26.0
126.019 28.0
126.103 23.0
126.187 22.0
126.27 22.0
126.354 31.0
126.438 31.0
126.522 21.0
126.605 28.0
126.689 33.0
126.773 41.0
126.856 31.0
126.94 27.0
127.024 31.0
127.108 24.0
127.191 33.0
127.275 36.0
127.359 22.0
127.442 25.0
127.526 23.0
127.61 29.0
127.693 27.0
127.777 28.0
127.861 30.0
127.945 30.0
128.028 20.0
128.112 26.0
128.196 28.0
128.279 25.0
128.363 31.0
128.447 29.0
128.531 24.0
128.614 29.0
128.698 31.0
128.782 33.0
128.865 33.0
128.949 25.0
129.033 31.0
129.116 36.0
129.2 30.0
129.284 22.0
129.368 30.0
129.451 20.0
129.535 28.0
129.619 27.0
129.702 26.0
129.786 30.0
129.87 32.0
129.954 28.0
129.998 30.0