File: data/W6933c/XRD_2ThetaOmega/w6933c_2theta
35.01000 3.0
35.02000 0.0
35.03000 3.0
35.04000 1.0
35.05000 1.0
35.06000 0.0
35.07000 0.0
35.08000 0.0
35.09000 1.0
35.10000 1.0
35.11000 4.0
35.12000 0.0
35.13000 1.0
35.14000 2.0
35.15000 1.0
35.16000 2.0
35.17000 1.0
35.18000 2.0
35.19000 1.0
35.20000 2.0
35.21000 1.0
35.22000 0.0
35.23000 0.0
35.24000 1.0
35.25000 1.0
35.26000 0.0
35.27000 1.0
35.28000 1.0
35.29000 2.0
35.30000 0.0
35.31000 1.0
35.32000 0.0
35.33000 0.0
35.34000 2.0
35.35000 0.0
35.36000 1.0
35.37000 1.0
35.38000 4.0
35.39000 1.0
35.40000 1.0
35.41000 1.0
35.42000 1.0
35.43000 1.0
35.44000 3.0
35.45000 2.0
35.46000 0.0
35.47000 0.0
35.48000 4.0
35.49000 2.0
35.50000 2.0
35.51000 1.0
35.52000 0.0
35.53000 0.0
35.54000 0.0
35.55000 0.0
35.56000 1.0
35.57000 2.0
35.58000 1.0
35.59000 2.0
35.60000 4.0
35.61000 2.0
35.62000 0.0
35.63000 2.0
35.64000 0.0
35.65000 1.0
35.66000 0.0
35.67000 1.0
35.68000 1.0
35.69000 1.0
35.70000 2.0
35.71000 1.0
35.72000 0.0
35.73000 2.0
35.74000 1.0
35.75000 1.0
35.76000 2.0
35.77000 0.0
35.78000 0.0
35.79000 0.0
35.80000 0.0
35.81000 1.0
35.82000 0.0
35.83000 0.0
35.84000 1.0
35.85000 1.0
35.86000 0.0
35.87000 2.0
35.88000 1.0
35.89000 4.0
35.90000 1.0
35.91000 0.0
35.92000 1.0
35.93000 0.0
35.94000 1.0
35.95000 2.0
35.96000 4.0
35.97000 1.0
35.98000 1.0
35.99000 3.0
36.00000 0.0
36.01000 1.0
36.02000 2.0
36.03000 3.0
36.04000 0.0
36.05000 0.0
36.06000 3.0
36.07000 0.0
36.08000 2.0
36.09000 0.0
36.10000 1.0
36.11000 1.0
36.12000 0.0
36.13000 1.0
36.14000 1.0
36.15000 0.0
36.16000 3.0
36.17000 1.0
36.18000 1.0
36.19000 1.0
36.20000 1.0
36.21000 2.0
36.22000 2.0
36.23000 1.0
36.24000 0.0
36.25000 1.0
36.26000 3.0
36.27000 0.0
36.28000 0.0
36.29000 1.0
36.30000 1.0
36.31000 2.0
36.32000 0.0
36.33000 0.0
36.34000 2.0
36.35000 0.0
36.36000 1.0
36.37000 1.0
36.38000 0.0
36.39000 0.0
36.40000 1.0
36.41000 2.0
36.42000 1.0
36.43000 1.0
36.44000 2.0
36.45000 1.0
36.46000 1.0
36.47000 0.0
36.48000 0.0
36.49000 1.0
36.50000 0.0
36.51000 2.0
36.52000 0.0
36.53000 1.0
36.54000 1.0
36.55000 1.0
36.56000 3.0
36.57000 2.0
36.58000 0.0
36.59000 2.0
36.60000 2.0
36.61000 0.0
36.62000 0.0
36.63000 0.0
36.64000 1.0
36.65000 0.0
36.66000 2.0
36.67000 1.0
36.68000 0.0
36.69000 0.0
36.70000 0.0
36.71000 2.0
36.72000 1.0
36.73000 1.0
36.74000 0.0
36.75000 1.0
36.76000 1.0
36.77000 1.0
36.78000 4.0
36.79000 0.0
36.80000 0.0
36.81000 0.0
36.82000 1.0
36.83000 1.0
36.84000 2.0
36.85000 0.0
36.86000 2.0
36.87000 1.0
36.88000 0.0
36.89000 0.0
36.90000 0.0
36.91000 1.0
36.92000 1.0
36.93000 1.0
36.94000 2.0
36.95000 4.0
36.96000 1.0
36.97000 1.0
36.98000 1.0
36.99000 2.0
37.00000 2.0
37.01000 2.0
37.02000 0.0
37.03000 0.0
37.04000 2.0
37.05000 0.0
37.06000 3.0
37.07000 1.0
37.08000 1.0
37.09000 4.0
37.10000 2.0
37.11000 1.0
37.12000 4.0
37.13000 2.0
37.14000 3.0
37.15000 1.0
37.16000 2.0
37.17000 2.0
37.18000 0.0
37.19000 3.0
37.20000 1.0
37.21000 0.0
37.22000 2.0
37.23000 1.0
37.24000 2.0
37.25000 1.0
37.26000 2.0
37.27000 1.0
37.28000 0.0
37.29000 1.0
37.30000 1.0
37.31000 2.0
37.32000 1.0
37.33000 0.0
37.34000 2.0
37.35000 2.0
37.36000 4.0
37.37000 0.0
37.38000 1.0
37.39000 0.0
37.40000 2.0
37.41000 2.0
37.42000 0.0
37.43000 2.0
37.44000 1.0
37.45000 2.0
37.46000 1.0
37.47000 0.0
37.48000 1.0
37.49000 1.0
37.50000 3.0
37.51000 2.0
37.52000 1.0
37.53000 1.0
37.54000 2.0
37.55000 0.0
37.56000 3.0
37.57000 0.0
37.58000 2.0
37.59000 0.0
37.60000 1.0
37.61000 2.0
37.62000 5.0
37.63000 1.0
37.64000 1.0
37.65000 2.0
37.66000 3.0
37.67000 2.0
37.68000 0.0
37.69000 3.0
37.70000 0.0
37.71000 0.0
37.72000 4.0
37.73000 1.0
37.74000 0.0
37.75000 2.0
37.76000 1.0
37.77000 0.0
37.78000 3.0
37.79000 2.0
37.80000 2.0
37.81000 2.0
37.82000 2.0
37.83000 6.0
37.84000 0.0
37.85000 1.0
37.86000 1.0
37.87000 0.0
37.88000 3.0
37.89000 1.0
37.90000 0.0
37.91000 1.0
37.92000 3.0
37.93000 2.0
37.94000 2.0
37.95000 1.0
37.96000 3.0
37.97000 2.0
37.98000 3.0
37.99000 1.0
38.00000 3.0
38.01000 2.0
38.02000 1.0
38.03000 1.0
38.04000 1.0
38.05000 4.0
38.06000 2.0
38.07000 0.0
38.08000 4.0
38.09000 4.0
38.10000 1.0
38.11000 2.0
38.12000 1.0
38.13000 4.0
38.14000 5.0
38.15000 2.0
38.16000 5.0
38.17000 2.0
38.18000 2.0
38.19000 3.0
38.20000 4.0
38.21000 5.0
38.22000 3.0
38.23000 3.0
38.24000 1.0
38.25000 1.0
38.26000 5.0
38.27000 4.0
38.28000 2.0
38.29000 3.0
38.30000 4.0
38.31000 3.0
38.32000 4.0
38.33000 7.0
38.34000 4.0
38.35000 3.0
38.36000 4.0
38.37000 8.0
38.38000 3.0
38.39000 2.0
38.40000 2.0
38.41000 3.0
38.42000 5.0
38.43000 5.0
38.44000 2.0
38.45000 5.0
38.46000 6.0
38.47000 3.0
38.48000 7.0
38.49000 12.0
38.50000 3.0
38.51000 7.0
38.52000 5.0
38.53000 10.0
38.54000 6.0
38.55000 8.0
38.56000 11.0
38.57000 6.0
38.58000 7.0
38.59000 7.0
38.60000 11.0
38.61000 6.0
38.62000 9.0
38.63000 13.0
38.64000 13.0
38.65000 10.0
38.66000 9.0
38.67000 16.0
38.68000 4.0
38.69000 9.0
38.70000 7.0
38.71000 8.0
38.72000 17.0
38.73000 14.0
38.74000 6.0
38.75000 8.0
38.76000 14.0
38.77000 19.0
38.78000 18.0
38.79000 15.0
38.80000 19.0
38.81000 16.0
38.82000 23.0
38.83000 12.0
38.84000 16.0
38.85000 18.0
38.86000 16.0
38.87000 25.0
38.88000 24.0
38.89000 26.0
38.90000 24.0
38.91000 32.0
38.92000 32.0
38.93000 24.0
38.94000 35.0
38.95000 34.0
38.96000 37.0
38.97000 47.0
38.98000 43.0
38.99000 49.0
39.00000 48.0
39.01000 50.0
39.02000 54.0
39.03000 72.0
39.04000 70.0
39.05000 73.0
39.06000 100.0
39.07000 86.0
39.08000 129.0
39.09000 129.0
39.10000 124.0
39.11000 163.0
39.12000 165.0
39.13000 203.0
39.14000 223.0
39.15000 231.0
39.16000 232.0
39.17000 245.0
39.18000 251.0
39.19000 280.0
39.20000 281.0
39.21000 337.0
39.22000 353.0
39.23000 384.0
39.24000 418.0
39.25000 409.0
39.26000 390.0
39.27000 420.0
39.28000 382.0
39.29000 346.0
39.30000 379.0
39.31000 364.0
39.32000 349.0
39.33000 345.0
39.34000 319.0
39.35000 312.0
39.36000 257.0
39.37000 233.0
39.38000 244.0
39.39000 225.0
39.40000 232.0
39.41000 211.0
39.42000 153.0
39.43000 165.0
39.44000 172.0
39.45000 120.0
39.46000 107.0
39.47000 89.0
39.48000 80.0
39.49000 74.0
39.50000 70.0
39.51000 64.0
39.52000 50.0
39.53000 58.0
39.54000 42.0
39.55000 49.0
39.56000 39.0
39.57000 32.0
39.58000 38.0
39.59000 31.0
39.60000 30.0
39.61000 14.0
39.62000 13.0
39.63000 14.0
39.64000 19.0
39.65000 17.0
39.66000 14.0
39.67000 16.0
39.68000 13.0
39.69000 11.0
39.70000 9.0
39.71000 4.0
39.72000 12.0
39.73000 16.0
39.74000 12.0
39.75000 4.0
39.76000 11.0
39.77000 11.0
39.78000 6.0
39.79000 10.0
39.80000 6.0
39.81000 7.0
39.82000 5.0
39.83000 5.0
39.84000 6.0
39.85000 5.0
39.86000 8.0
39.87000 6.0
39.88000 5.0
39.89000 5.0
39.90000 3.0
39.91000 7.0
39.92000 1.0
39.93000 6.0
39.94000 3.0
39.95000 4.0
39.96000 3.0
39.97000 5.0
39.98000 6.0
39.99000 4.0
40.00000 4.0
40.01000 3.0
40.02000 6.0
40.03000 0.0
40.04000 3.0
40.05000 1.0
40.06000 5.0
40.07000 4.0
40.08000 2.0
40.09000 2.0
40.10000 1.0
40.11000 4.0
40.12000 1.0
40.13000 5.0
40.14000 3.0
40.15000 1.0
40.16000 3.0
40.17000 3.0
40.18000 1.0
40.19000 2.0
40.20000 3.0
40.21000 2.0
40.22000 1.0
40.23000 1.0
40.24000 2.0
40.25000 2.0
40.26000 4.0
40.27000 1.0
40.28000 6.0
40.29000 3.0
40.30000 2.0
40.31000 3.0
40.32000 2.0
40.33000 2.0
40.34000 4.0
40.35000 1.0
40.36000 4.0
40.37000 1.0
40.38000 3.0
40.39000 2.0
40.40000 1.0
40.41000 3.0
40.42000 1.0
40.43000 2.0
40.44000 2.0
40.45000 1.0
40.46000 3.0
40.47000 1.0
40.48000 1.0
40.49000 2.0
40.50000 1.0
40.51000 0.0
40.52000 0.0
40.53000 1.0
40.54000 3.0
40.55000 2.0
40.56000 1.0
40.57000 1.0
40.58000 4.0
40.59000 4.0
40.60000 2.0
40.61000 0.0
40.62000 5.0
40.63000 2.0
40.64000 2.0
40.65000 1.0
40.66000 2.0
40.67000 1.0
40.68000 2.0
40.69000 3.0
40.70000 4.0
40.71000 1.0
40.72000 2.0
40.73000 2.0
40.74000 5.0
40.75000 5.0
40.76000 5.0
40.77000 2.0
40.78000 3.0
40.79000 2.0
40.80000 2.0
40.81000 5.0
40.82000 4.0
40.83000 2.0
40.84000 1.0
40.85000 3.0
40.86000 3.0
40.87000 2.0
40.88000 3.0
40.89000 0.0
40.90000 5.0
40.91000 6.0
40.92000 1.0
40.93000 4.0
40.94000 2.0
40.95000 1.0
40.96000 3.0
40.97000 4.0
40.98000 2.0
40.99000 6.0
41.00000 2.0
41.01000 4.0
41.02000 2.0
41.03000 4.0
41.04000 3.0
41.05000 2.0
41.06000 4.0
41.07000 7.0
41.08000 5.0
41.09000 5.0
41.10000 3.0
41.11000 4.0
41.12000 6.0
41.13000 2.0
41.14000 4.0
41.15000 2.0
41.16000 4.0
41.17000 4.0
41.18000 8.0
41.19000 8.0
41.20000 5.0
41.21000 2.0
41.22000 4.0
41.23000 4.0
41.24000 9.0
41.25000 3.0
41.26000 9.0
41.27000 9.0
41.28000 4.0
41.29000 5.0
41.30000 5.0
41.31000 8.0
41.32000 12.0
41.33000 5.0
41.34000 9.0
41.35000 8.0
41.36000 7.0
41.37000 19.0
41.38000 12.0
41.39000 9.0
41.40000 15.0
41.41000 10.0
41.42000 22.0
41.43000 30.0
41.44000 38.0
41.45000 50.0
41.46000 57.0
41.47000 51.0
41.48000 64.0
41.49000 66.0
41.50000 66.0
41.51000 59.0
41.52000 48.0
41.53000 47.0
41.54000 52.0
41.55000 72.0
41.56000 90.0
41.57000 82.0
41.58000 99.0
41.59000 147.0
41.60000 201.0
41.61000 321.0
41.62000 482.0
41.63000 926.0
41.64000 2254.0
41.65000 4313.0
41.66000 5415.0
41.67000 4201.0
41.68000 2188.0
41.69000 1017.0
41.70000 481.0
41.71000 316.0
41.72000 320.0
41.73000 365.0
41.74000 618.0
41.75000 1188.0
41.76000 2275.0
41.77000 2603.0
41.78000 2073.0
41.79000 1118.0
41.80000 526.0
41.81000 289.0
41.82000 174.0
41.83000 124.0
41.84000 114.0
41.85000 82.0
41.86000 85.0
41.87000 80.0
41.88000 81.0
41.89000 64.0
41.90000 57.0
41.91000 51.0
41.92000 67.0
41.93000 51.0
41.94000 44.0
41.95000 44.0
41.96000 49.0
41.97000 40.0
41.98000 34.0
41.99000 31.0
42.00000 40.0
42.01000 26.0
42.02000 29.0
42.03000 23.0
42.04000 21.0
42.05000 30.0
42.06000 17.0
42.07000 10.0
42.08000 18.0
42.09000 15.0
42.10000 6.0
42.11000 12.0
42.12000 11.0
42.13000 9.0
42.14000 9.0
42.15000 6.0
42.16000 10.0
42.17000 10.0
42.18000 6.0
42.19000 8.0
42.20000 9.0
42.21000 10.0
42.22000 7.0
42.23000 5.0
42.24000 9.0
42.25000 10.0
42.26000 10.0
42.27000 7.0
42.28000 7.0
42.29000 4.0
42.30000 5.0
42.31000 6.0
42.32000 5.0
42.33000 4.0
42.34000 5.0
42.35000 3.0
42.36000 7.0
42.37000 5.0
42.38000 4.0
42.39000 11.0
42.40000 9.0
42.41000 5.0
42.42000 4.0
42.43000 5.0
42.44000 2.0
42.45000 7.0
42.46000 7.0
42.47000 2.0
42.48000 3.0
42.49000 3.0
42.50000 4.0
42.51000 5.0
42.52000 3.0
42.53000 7.0
42.54000 2.0
42.55000 2.0
42.56000 7.0
42.57000 3.0
42.58000 2.0
42.59000 4.0
42.60000 9.0
42.61000 4.0
42.62000 5.0
42.63000 6.0
42.64000 5.0
42.65000 3.0
42.66000 0.0
42.67000 3.0
42.68000 4.0
42.69000 2.0
42.70000 3.0
42.71000 4.0
42.72000 3.0
42.73000 3.0
42.74000 1.0
42.75000 6.0
42.76000 3.0
42.77000 3.0
42.78000 6.0
42.79000 8.0
42.80000 2.0
42.81000 7.0
42.82000 5.0
42.83000 3.0
42.84000 4.0
42.85000 2.0
42.86000 6.0
42.87000 3.0
42.88000 1.0
42.89000 2.0
42.90000 4.0
42.91000 5.0
42.92000 1.0
42.93000 5.0
42.94000 1.0
42.95000 6.0
42.96000 6.0
42.97000 2.0
42.98000 0.0
42.99000 2.0
43.00000 6.0
43.01000 2.0
43.02000 4.0
43.03000 4.0
43.04000 2.0
43.05000 0.0
43.06000 2.0
43.07000 1.0
43.08000 8.0
43.09000 1.0
43.10000 1.0
43.11000 1.0
43.12000 2.0
43.13000 5.0
43.14000 3.0
43.15000 2.0
43.16000 5.0
43.17000 1.0
43.18000 1.0
43.19000 2.0
43.20000 1.0
43.21000 2.0
43.22000 4.0
43.23000 1.0
43.24000 3.0
43.25000 2.0
43.26000 2.0
43.27000 4.0
43.28000 2.0
43.29000 0.0
43.30000 2.0
43.31000 6.0
43.32000 3.0
43.33000 5.0
43.34000 5.0
43.35000 2.0
43.36000 5.0
43.37000 1.0
43.38000 4.0
43.39000 0.0
43.40000 3.0
43.41000 4.0
43.42000 2.0
43.43000 3.0
43.44000 3.0
43.45000 2.0
43.46000 4.0
43.47000 1.0
43.48000 3.0
43.49000 3.0
43.50000 4.0
43.51000 0.0
43.52000 2.0
43.53000 3.0
43.54000 6.0
43.55000 1.0
43.56000 3.0
43.57000 5.0
43.58000 3.0
43.59000 4.0
43.60000 4.0
43.61000 2.0
43.62000 4.0
43.63000 3.0
43.64000 3.0
43.65000 1.0
43.66000 5.0
43.67000 5.0
43.68000 6.0
43.69000 3.0
43.70000 4.0
43.71000 3.0
43.72000 1.0
43.73000 5.0
43.74000 4.0
43.75000 3.0
43.76000 4.0
43.77000 1.0
43.78000 2.0
43.79000 3.0
43.80000 5.0
43.81000 2.0
43.82000 3.0
43.83000 4.0
43.84000 6.0
43.85000 1.0
43.86000 1.0
43.87000 1.0
43.88000 4.0
43.89000 3.0
43.90000 3.0
43.91000 3.0
43.92000 5.0
43.93000 2.0
43.94000 4.0
43.95000 4.0
43.96000 2.0
43.97000 0.0
43.98000 2.0
43.99000 3.0
44.00000 1.0
44.01000 4.0
44.02000 2.0
44.03000 4.0
44.04000 4.0
44.05000 2.0
44.06000 7.0
44.07000 1.0
44.08000 2.0
44.09000 2.0
44.10000 1.0
44.11000 4.0
44.12000 2.0
44.13000 0.0
44.14000 2.0
44.15000 2.0
44.16000 1.0
44.17000 3.0
44.18000 2.0
44.19000 5.0
44.20000 3.0
44.21000 4.0
44.22000 2.0
44.23000 3.0
44.24000 1.0
44.25000 2.0
44.26000 2.0
44.27000 3.0
44.28000 4.0
44.29000 1.0
44.30000 4.0
44.31000 2.0
44.32000 0.0
44.33000 2.0
44.34000 3.0
44.35000 2.0
44.36000 2.0
44.37000 3.0
44.38000 1.0
44.39000 3.0
44.40000 1.0
44.41000 3.0
44.42000 4.0
44.43000 1.0
44.44000 3.0
44.45000 3.0
44.46000 3.0
44.47000 3.0
44.48000 1.0
44.49000 1.0
44.50000 3.0
44.51000 1.0
44.52000 3.0
44.53000 3.0
44.54000 0.0
44.55000 4.0
44.56000 1.0
44.57000 1.0
44.58000 3.0
44.59000 4.0
44.60000 3.0
44.61000 2.0
44.62000 4.0
44.63000 6.0
44.64000 0.0
44.65000 1.0
44.66000 4.0
44.67000 4.0
44.68000 1.0
44.69000 5.0
44.70000 1.0
44.71000 8.0
44.72000 2.0
44.73000 3.0
44.74000 0.0
44.75000 2.0
44.76000 1.0
44.77000 0.0
44.78000 1.0
44.79000 6.0
44.80000 3.0
44.81000 1.0
44.82000 1.0
44.83000 4.0
44.84000 2.0
44.85000 3.0
44.86000 5.0
44.87000 3.0
44.88000 2.0
44.89000 1.0
44.90000 1.0
44.91000 0.0
44.92000 1.0
44.93000 1.0
44.94000 3.0
44.95000 3.0
44.96000 5.0
44.97000 2.0
44.98000 4.0
44.99000 0.0