File: data/W6856c/XRD_2ThetaOmega/W6856c_absolute_2th-om_10-130deg_PIXscan_17min_4.xy
10.0035 27.0
10.0872 35.0
10.1709 17.0
10.2546 23.0
10.3383 14.0
10.422 23.0
10.5057 29.0
10.5894 12.0
10.6731 12.0
10.7568 15.0
10.8405 17.0
10.9242 25.0
11.0079 26.0
11.0916 20.0
11.1753 19.0
11.259 19.0
11.3428 24.0
11.4265 19.0
11.5102 21.0
11.5939 18.0
11.6776 17.0
11.7613 22.0
11.845 22.0
11.9287 16.0
12.0124 20.0
12.0961 27.0
12.1798 23.0
12.2635 23.0
12.3472 23.0
12.4309 21.0
12.5146 13.0
12.5983 20.0
12.682 18.0
12.7657 15.0
12.8495 13.0
12.9332 16.0
13.0169 13.0
13.1006 16.0
13.1843 25.0
13.268 17.0
13.3517 23.0
13.4354 15.0
13.5191 16.0
13.6028 12.0
13.6865 20.0
13.7702 20.0
13.8539 18.0
13.9376 16.0
14.0213 16.0
14.105 11.0
14.1887 18.0
14.2724 27.0
14.3562 16.0
14.4399 19.0
14.5236 12.0
14.6073 14.0
14.691 21.0
14.7747 14.0
14.8584 10.0
14.9421 12.0
15.0258 19.0
15.1095 20.0
15.1932 16.0
15.2769 17.0
15.3606 12.0
15.4443 15.0
15.528 12.0
15.6117 13.0
15.6954 16.0
15.7791 13.0
15.8629 18.0
15.9466 20.0
16.0303 13.0
16.114 15.0
16.1977 10.0
16.2814 10.0
16.3651 9.0
16.4488 12.0
16.5325 17.0
16.6162 13.0
16.6999 11.0
16.7836 9.0
16.8673 19.0
16.951 13.0
17.0347 20.0
17.1184 12.0
17.2021 15.0
17.2858 13.0
17.3696 19.0
17.4533 14.0
17.537 9.0
17.6207 15.0
17.7044 9.0
17.7881 10.0
17.8718 16.0
17.9555 13.0
18.0392 11.0
18.1229 10.0
18.2066 10.0
18.2903 12.0
18.374 13.0
18.4577 16.0
18.5414 10.0
18.6251 13.0
18.7088 10.0
18.7925 7.0
18.8763 10.0
18.96 14.0
19.0437 14.0
19.1274 12.0
19.2111 10.0
19.2948 19.0
19.3785 8.0
19.4622 10.0
19.5459 11.0
19.6296 9.0
19.7133 11.0
19.797 11.0
19.8807 14.0
19.9644 11.0
20.0481 15.0
20.1318 12.0
20.2155 13.0
20.2992 13.0
20.383 18.0
20.4667 22.0
20.5504 9.0
20.6341 19.0
20.7178 15.0
20.8015 18.0
20.8852 8.0
20.9689 11.0
21.0526 12.0
21.1363 15.0
21.22 8.0
21.3037 11.0
21.3874 10.0
21.4711 16.0
21.5548 13.0
21.6385 4.0
21.7222 12.0
21.8059 9.0
21.8897 14.0
21.9734 5.0
22.0571 11.0
22.1408 5.0
22.2245 13.0
22.3082 14.0
22.3919 17.0
22.4756 12.0
22.5593 13.0
22.643 7.0
22.7267 10.0
22.8104 14.0
22.8941 8.0
22.9778 14.0
23.0615 13.0
23.1452 5.0
23.2289 11.0
23.3126 10.0
23.3964 9.0
23.4801 4.0
23.5638 11.0
23.6475 7.0
23.7312 9.0
23.8149 11.0
23.8986 5.0
23.9823 5.0
24.066 8.0
24.1497 10.0
24.2334 12.0
24.3171 4.0
24.4008 11.0
24.4845 16.0
24.5682 15.0
24.6519 11.0
24.7356 10.0
24.8193 10.0
24.9031 9.0
24.9868 10.0
25.0705 10.0
25.1542 7.0
25.2379 6.0
25.3216 9.0
25.4053 9.0
25.489 4.0
25.5727 10.0
25.6564 9.0
25.7401 6.0
25.8238 8.0
25.9075 5.0
25.9912 4.0
26.0749 3.0
26.1586 11.0
26.2423 11.0
26.326 4.0
26.4098 12.0
26.4935 9.0
26.5772 6.0
26.6609 7.0
26.7446 11.0
26.8283 8.0
26.912 10.0
26.9957 6.0
27.0794 15.0
27.1631 7.0
27.2468 11.0
27.3305 10.0
27.4142 5.0
27.4979 13.0
27.5816 5.0
27.6653 13.0
27.749 12.0
27.8327 5.0
27.9165 12.0
28.0002 6.0
28.0839 8.0
28.1676 13.0
28.2513 10.0
28.335 12.0
28.4187 9.0
28.5024 5.0
28.5861 7.0
28.6698 12.0
28.7535 5.0
28.8372 11.0
28.9209 11.0
29.0046 9.0
29.0883 8.0
29.172 6.0
29.2557 3.0
29.3394 9.0
29.4232 9.0
29.5069 7.0
29.5906 9.0
29.6743 7.0
29.758 8.0
29.8417 4.0
29.9254 14.0
30.0091 8.0
30.0928 8.0
30.1765 11.0
30.2602 7.0
30.3439 7.0
30.4276 13.0
30.5113 0.0
30.595 7.0
30.6787 11.0
30.7624 7.0
30.8461 5.0
30.9298 9.0
31.0136 9.0
31.0973 9.0
31.181 12.0
31.2647 5.0
31.3484 5.0
31.4321 13.0
31.5158 15.0
31.5995 12.0
31.6832 5.0
31.7669 7.0
31.8506 6.0
31.9343 8.0
32.018 5.0
32.1017 11.0
32.1854 9.0
32.2691 6.0
32.3528 0.0
32.4365 18.0
32.5203 19.0
32.604 12.0
32.6877 17.0
32.7714 8.0
32.8551 15.0
32.9388 13.0
33.0225 11.0
33.1062 15.0
33.1899 10.0
33.2736 7.0
33.3573 19.0
33.441 5.0
33.5247 10.0
33.6084 7.0
33.6921 9.0
33.7758 10.0
33.8595 9.0
33.9432 6.0
34.027 13.0
34.1107 14.0
34.1944 7.0
34.2781 7.0
34.3618 7.0
34.4455 5.0
34.5292 8.0
34.6129 7.0
34.6966 12.0
34.7803 12.0
34.864 7.0
34.9477 11.0
35.0314 7.0
35.1151 12.0
35.1988 10.0
35.2825 8.0
35.3662 11.0
35.4499 7.0
35.5337 8.0
35.6174 12.0
35.7011 4.0
35.7848 10.0
35.8685 9.0
35.9522 8.0
36.0359 13.0
36.1196 6.0
36.2033 8.0
36.287 7.0
36.3707 9.0
36.4544 8.0
36.5381 5.0
36.6218 15.0
36.7055 12.0
36.7892 13.0
36.8729 6.0
36.9566 11.0
37.0404 10.0
37.1241 11.0
37.2078 9.0
37.2915 6.0
37.3752 15.0
37.4589 13.0
37.5426 16.0
37.6263 13.0
37.71 9.0
37.7937 11.0
37.8774 11.0
37.9611 8.0
38.0448 14.0
38.1285 11.0
38.2122 14.0
38.2959 14.0
38.3796 10.0
38.4633 10.0
38.5471 18.0
38.6308 20.0
38.7145 25.0
38.7982 24.0
38.8819 31.0
38.9656 32.0
39.0493 41.0
39.133 46.0
39.2167 81.0
39.3004 113.0
39.3841 174.0
39.4678 302.0
39.5515 370.0
39.6352 274.0
39.7189 167.0
39.8026 136.0
39.8863 70.0
39.97 42.0
40.0538 30.0
40.1375 19.0
40.2212 17.0
40.3049 18.0
40.3886 23.0
40.4723 14.0
40.556 15.0
40.6397 9.0
40.7234 21.0
40.8071 10.0
40.8908 12.0
40.9745 22.0
41.0582 24.0
41.1419 14.0
41.2256 15.0
41.3093 14.0
41.393 54.0
41.4767 69.0
41.5605 558.0
41.6442 1617.0
41.7279 3027.0
41.8116 99.0
41.8953 45.0
41.979 39.0
42.0627 18.0
42.1464 25.0
42.2301 21.0
42.3138 34.0
42.3975 27.0
42.4812 21.0
42.5649 16.0
42.6486 18.0
42.7323 15.0
42.816 18.0
42.8997 13.0
42.9834 17.0
43.0672 14.0
43.1509 19.0
43.2346 8.0
43.3183 8.0
43.402 14.0
43.4857 14.0
43.5694 14.0
43.6531 12.0
43.7368 4.0
43.8205 14.0
43.9042 11.0
43.9879 16.0
44.0716 11.0
44.1553 12.0
44.239 21.0
44.3227 20.0
44.4064 24.0
44.4901 19.0
44.5739 12.0
44.6576 19.0
44.7413 7.0
44.825 11.0
44.9087 8.0
44.9924 13.0
45.0761 5.0
45.1598 10.0
45.2435 13.0
45.3272 15.0
45.4109 11.0
45.4946 10.0
45.5783 8.0
45.662 13.0
45.7457 6.0
45.8294 8.0
45.9131 13.0
45.9968 13.0
46.0806 6.0
46.1643 9.0
46.248 15.0
46.3317 11.0
46.4154 11.0
46.4991 11.0
46.5828 12.0
46.6665 9.0
46.7502 15.0
46.8339 8.0
46.9176 12.0
47.0013 11.0
47.085 5.0
47.1687 11.0
47.2524 8.0
47.3361 7.0
47.4198 7.0
47.5035 9.0
47.5873 5.0
47.671 6.0
47.7547 7.0
47.8384 20.0
47.9221 12.0
48.0058 8.0
48.0895 6.0
48.1732 7.0
48.2569 7.0
48.3406 11.0
48.4243 10.0
48.508 8.0
48.5917 12.0
48.6754 12.0
48.7591 9.0
48.8428 9.0
48.9265 8.0
49.0102 5.0
49.094 15.0
49.1777 10.0
49.2614 12.0
49.3451 8.0
49.4288 17.0
49.5125 12.0
49.5962 8.0
49.6799 12.0
49.7636 8.0
49.8473 15.0
49.931 7.0
50.0147 9.0
50.0984 14.0
50.1821 12.0
50.2658 7.0
50.3495 10.0
50.4332 11.0
50.5169 12.0
50.6007 14.0
50.6844 9.0
50.7681 16.0
50.8518 14.0
50.9355 11.0
51.0192 13.0
51.1029 10.0
51.1866 4.0
51.2703 14.0
51.354 16.0
51.4377 5.0
51.5214 10.0
51.6051 12.0
51.6888 6.0
51.7725 10.0
51.8562 5.0
51.9399 13.0
52.0236 9.0
52.1074 13.0
52.1911 10.0
52.2748 4.0
52.3585 9.0
52.4422 6.0
52.5259 18.0
52.6096 7.0
52.6933 12.0
52.777 17.0
52.8607 11.0
52.9444 7.0
53.0281 9.0
53.1118 18.0
53.1955 7.0
53.2792 14.0
53.3629 13.0
53.4466 9.0
53.5303 2.0
53.6141 14.0
53.6978 9.0
53.7815 11.0
53.8652 12.0
53.9489 11.0
54.0326 6.0
54.1163 16.0
54.2 7.0
54.2837 10.0
54.3674 12.0
54.4511 10.0
54.5348 11.0
54.6185 9.0
54.7022 5.0
54.7859 11.0
54.8696 10.0
54.9533 10.0
55.037 7.0
55.1208 8.0
55.2045 11.0
55.2882 12.0
55.3719 13.0
55.4556 11.0
55.5393 15.0
55.623 11.0
55.7067 11.0
55.7904 12.0
55.8741 14.0
55.9578 11.0
56.0415 9.0
56.1252 13.0
56.2089 7.0
56.2926 13.0
56.3763 6.0
56.46 12.0
56.5437 8.0
56.6275 13.0
56.7112 15.0
56.7949 12.0
56.8786 11.0
56.9623 9.0
57.046 8.0
57.1297 8.0
57.2134 8.0
57.2971 7.0
57.3808 8.0
57.4645 11.0
57.5482 4.0
57.6319 8.0
57.7156 9.0
57.7993 6.0
57.883 12.0
57.9667 16.0
58.0504 12.0
58.1342 12.0
58.2179 14.0
58.3016 13.0
58.3853 8.0
58.469 12.0
58.5527 8.0
58.6364 3.0
58.7201 13.0
58.8038 6.0
58.8875 10.0
58.9712 11.0
59.0549 15.0
59.1386 9.0
59.2223 7.0
59.306 8.0
59.3897 11.0
59.4734 11.0
59.5571 15.0
59.6409 15.0
59.7246 6.0
59.8083 11.0
59.892 9.0
59.9757 6.0
60.0594 14.0
60.1431 11.0
60.2268 10.0
60.3105 15.0
60.3942 12.0
60.4779 6.0
60.5616 6.0
60.6453 14.0
60.729 7.0
60.8127 12.0
60.8964 14.0
60.9801 11.0
61.0638 13.0
61.1476 5.0
61.2313 13.0
61.315 15.0
61.3987 10.0
61.4824 15.0
61.5661 8.0
61.6498 17.0
61.7335 18.0
61.8172 6.0
61.9009 13.0
61.9846 7.0
62.0683 11.0
62.152 8.0
62.2357 13.0
62.3194 9.0
62.4031 10.0
62.4868 11.0
62.5705 14.0
62.6543 10.0
62.738 12.0
62.8217 5.0
62.9054 15.0
62.9891 11.0
63.0728 20.0
63.1565 15.0
63.2402 10.0
63.3239 10.0
63.4076 9.0
63.4913 12.0
63.575 13.0
63.6587 15.0
63.7424 9.0
63.8261 13.0
63.9098 11.0
63.9935 13.0
64.0772 13.0
64.161 12.0
64.2447 12.0
64.3284 4.0
64.4121 16.0
64.4958 6.0
64.5795 19.0
64.6632 15.0
64.7469 16.0
64.8306 13.0
64.9143 8.0
64.998 11.0
65.0817 10.0
65.1654 8.0
65.2491 13.0
65.3328 9.0
65.4165 14.0
65.5002 12.0
65.5839 10.0
65.6677 15.0
65.7514 9.0
65.8351 14.0
65.9188 20.0
66.0025 20.0
66.0862 10.0
66.1699 14.0
66.2536 14.0
66.3373 11.0
66.421 12.0
66.5047 15.0
66.5884 9.0
66.6721 18.0
66.7558 11.0
66.8395 10.0
66.9232 18.0
67.0069 15.0
67.0906 8.0
67.1744 12.0
67.2581 9.0
67.3418 6.0
67.4255 12.0
67.5092 9.0
67.5929 12.0
67.6766 7.0
67.7603 12.0
67.844 5.0
67.9277 17.0
68.0114 17.0
68.0951 11.0
68.1788 14.0
68.2625 14.0
68.3462 10.0
68.4299 11.0
68.5136 10.0
68.5973 11.0
68.6811 15.0
68.7648 11.0
68.8485 10.0
68.9322 19.0
69.0159 20.0
69.0996 11.0
69.1833 6.0
69.267 9.0
69.3507 12.0
69.4344 11.0
69.5181 12.0
69.6018 13.0
69.6855 12.0
69.7692 13.0
69.8529 15.0
69.9366 9.0
70.0203 9.0
70.104 10.0
70.1878 15.0
70.2715 7.0
70.3552 14.0
70.4389 14.0
70.5226 16.0
70.6063 18.0
70.69 9.0
70.7737 10.0
70.8574 13.0
70.9411 9.0
71.0248 11.0
71.1085 12.0
71.1922 12.0
71.2759 12.0
71.3596 17.0
71.4433 15.0
71.527 8.0
71.6107 9.0
71.6945 19.0
71.7782 13.0
71.8619 8.0
71.9456 12.0
72.0293 11.0
72.113 14.0
72.1967 12.0
72.2804 19.0
72.3641 15.0
72.4478 11.0
72.5315 15.0
72.6152 10.0
72.6989 9.0
72.7826 15.0
72.8663 7.0
72.95 14.0
73.0337 13.0
73.1174 9.0
73.2012 9.0
73.2849 10.0
73.3686 18.0
73.4523 12.0
73.536 14.0
73.6197 13.0
73.7034 10.0
73.7871 14.0
73.8708 11.0
73.9545 8.0
74.0382 10.0
74.1219 9.0
74.2056 6.0
74.2893 9.0
74.373 11.0
74.4567 13.0
74.5404 14.0
74.6241 15.0
74.7079 6.0
74.7916 13.0
74.8753 10.0
74.959 15.0
75.0427 10.0
75.1264 15.0
75.2101 12.0
75.2938 14.0
75.3775 12.0
75.4612 14.0
75.5449 15.0
75.6286 9.0
75.7123 13.0
75.796 12.0
75.8797 12.0
75.9634 6.0
76.0471 15.0
76.1308 5.0
76.2146 17.0
76.2983 8.0
76.382 19.0
76.4657 9.0
76.5494 8.0
76.6331 13.0
76.7168 8.0
76.8005 6.0
76.8842 11.0
76.9679 17.0
77.0516 10.0
77.1353 11.0
77.219 13.0
77.3027 16.0
77.3864 13.0
77.4701 13.0
77.5538 10.0
77.6375 10.0
77.7213 9.0
77.805 9.0
77.8887 9.0
77.9724 14.0
78.0561 17.0
78.1398 11.0
78.2235 10.0
78.3072 8.0
78.3909 14.0
78.4746 8.0
78.5583 10.0
78.642 12.0
78.7257 6.0
78.8094 4.0
78.8931 13.0
78.9768 6.0
79.0605 10.0
79.1442 19.0
79.228 5.0
79.3117 12.0
79.3954 10.0
79.4791 6.0
79.5628 18.0
79.6465 10.0
79.7302 20.0
79.8139 13.0
79.8976 21.0
79.9813 26.0
80.065 26.0
80.1487 12.0
80.2324 14.0
80.3161 13.0
80.3998 14.0
80.4835 18.0
80.5672 8.0
80.6509 15.0
80.7347 16.0
80.8184 6.0
80.9021 11.0
80.9858 15.0
81.0695 11.0
81.1532 6.0
81.2369 9.0
81.3206 9.0
81.4043 12.0
81.488 15.0
81.5717 3.0
81.6554 8.0
81.7391 9.0
81.8228 17.0
81.9065 20.0
81.9902 16.0
82.0739 13.0
82.1576 7.0
82.2414 15.0
82.3251 10.0
82.4088 9.0
82.4925 8.0
82.5762 16.0
82.6599 14.0
82.7436 8.0
82.8273 10.0
82.911 10.0
82.9947 20.0
83.0784 9.0
83.1621 15.0
83.2458 17.0
83.3295 19.0
83.4132 17.0
83.4969 12.0
83.5806 17.0
83.6643 18.0
83.7481 17.0
83.8318 21.0
83.9155 32.0
83.9992 19.0
84.0829 25.0
84.1666 17.0
84.2503 16.0
84.334 18.0
84.4177 22.0
84.5014 21.0
84.5851 22.0
84.6688 26.0
84.7525 32.0
84.8362 27.0
84.9199 43.0
85.0036 34.0
85.0873 63.0
85.171 44.0
85.2548 65.0
85.3385 54.0
85.4222 54.0
85.5059 68.0
85.5896 49.0
85.6733 45.0
85.757 34.0
85.8407 41.0
85.9244 52.0
86.0081 37.0
86.0918 12.0
86.1755 20.0
86.2592 19.0
86.3429 16.0
86.4266 13.0
86.5103 9.0
86.594 14.0
86.6777 17.0
86.7615 8.0
86.8452 25.0
86.9289 7.0
87.0126 13.0
87.0963 16.0
87.18 13.0
87.2637 16.0
87.3474 12.0
87.4311 4.0
87.5148 12.0
87.5985 7.0
87.6822 18.0
87.7659 11.0
87.8496 14.0
87.9333 5.0
88.017 15.0
88.1007 9.0
88.1844 14.0
88.2682 15.0
88.3519 17.0
88.4356 18.0
88.5193 13.0
88.603 16.0
88.6867 12.0
88.7704 17.0
88.8541 13.0
88.9378 19.0
89.0215 17.0
89.1052 15.0
89.1889 20.0
89.2726 21.0
89.3563 20.0
89.44 13.0
89.5237 31.0
89.6074 18.0
89.6911 20.0
89.7749 15.0
89.8586 25.0
89.9423 25.0
90.026 18.0
90.1097 35.0
90.1934 52.0
90.2771 57.0
90.3608 46.0
90.4445 73.0
90.5282 139.0
90.6119 1209.0
90.6956 5134.0
90.7793 455.0
90.863 372.0
90.9467 3337.0
91.0304 656.0
91.1141 122.0
91.1978 73.0
91.2816 49.0
91.3653 42.0
91.449 37.0
91.5327 33.0
91.6164 35.0
91.7001 33.0
91.7838 24.0
91.8675 18.0
91.9512 23.0
92.0349 24.0
92.1186 30.0
92.2023 22.0
92.286 30.0
92.3697 16.0
92.4534 24.0
92.5371 23.0
92.6208 25.0
92.7045 19.0
92.7883 15.0
92.872 12.0
92.9557 17.0
93.0394 26.0
93.1231 15.0
93.2068 15.0
93.2905 16.0
93.3742 17.0
93.4579 24.0
93.5416 21.0
93.6253 18.0
93.709 19.0
93.7927 14.0
93.8764 23.0
93.9601 12.0
94.0438 15.0
94.1275 7.0
94.2112 12.0
94.295 17.0
94.3787 13.0
94.4624 16.0
94.5461 12.0
94.6298 17.0
94.7135 13.0
94.7972 17.0
94.8809 11.0
94.9646 20.0
95.0483 9.0
95.132 13.0
95.2157 11.0
95.2994 9.0
95.3831 14.0
95.4668 18.0
95.5505 17.0
95.6342 11.0
95.7179 16.0
95.8017 9.0
95.8854 13.0
95.9691 13.0
96.0528 16.0
96.1365 12.0
96.2202 10.0
96.3039 13.0
96.3876 7.0
96.4713 14.0
96.555 11.0
96.6387 14.0
96.7224 14.0
96.8061 9.0
96.8898 12.0
96.9735 7.0
97.0572 20.0
97.1409 5.0
97.2246 11.0
97.3084 13.0
97.3921 10.0
97.4758 15.0
97.5595 12.0
97.6432 17.0
97.7269 7.0
97.8106 23.0
97.8943 14.0
97.978 11.0
98.0617 12.0
98.1454 12.0
98.2291 10.0
98.3128 14.0
98.3965 15.0
98.4802 12.0
98.5639 9.0
98.6476 13.0
98.7313 9.0
98.8151 7.0
98.8988 13.0
98.9825 9.0
99.0662 19.0
99.1499 10.0
99.2336 13.0
99.3173 14.0
99.401 17.0
99.4847 12.0
99.5684 9.0
99.6521 15.0
99.7358 12.0
99.8195 17.0
99.9032 11.0
99.9869 13.0
100.071 14.0
100.154 10.0
100.238 6.0
100.322 18.0
100.405 11.0
100.489 10.0
100.573 14.0
100.657 14.0
100.74 10.0
100.824 8.0
100.908 16.0
100.991 14.0
101.075 7.0
101.159 10.0
101.243 15.0
101.326 13.0
101.41 8.0
101.494 10.0
101.577 11.0
101.661 8.0
101.745 14.0
101.828 16.0
101.912 14.0
101.996 13.0
102.08 9.0
102.163 9.0
102.247 6.0
102.331 10.0
102.414 14.0
102.498 13.0
102.582 7.0
102.666 17.0
102.749 6.0
102.833 13.0
102.917 18.0
103 11.0
103.084 14.0
103.168 14.0
103.251 17.0
103.335 12.0
103.419 13.0
103.503 16.0
103.586 7.0
103.67 11.0
103.754 12.0
103.837 15.0
103.921 11.0
104.005 9.0
104.089 13.0
104.172 7.0
104.256 10.0
104.34 10.0
104.423 10.0
104.507 9.0
104.591 15.0
104.674 10.0
104.758 12.0
104.842 17.0
104.926 9.0
105.009 12.0
105.093 12.0
105.177 9.0
105.26 7.0
105.344 9.0
105.428 14.0
105.511 12.0
105.595 15.0
105.679 13.0
105.763 14.0
105.846 8.0
105.93 13.0
106.014 12.0
106.097 8.0
106.181 8.0
106.265 9.0
106.349 10.0
106.432 11.0
106.516 16.0
106.6 12.0
106.683 15.0
106.767 12.0
106.851 7.0
106.934 6.0
107.018 12.0
107.102 16.0
107.186 14.0
107.269 12.0
107.353 11.0
107.437 18.0
107.52 6.0
107.604 11.0
107.688 15.0
107.772 7.0
107.855 10.0
107.939 14.0
108.023 10.0
108.106 7.0
108.19 8.0
108.274 12.0
108.357 15.0
108.441 13.0
108.525 12.0
108.609 11.0
108.692 11.0
108.776 12.0
108.86 18.0
108.943 16.0
109.027 16.0
109.111 11.0
109.195 8.0
109.278 15.0
109.362 10.0
109.446 16.0
109.529 16.0
109.613 14.0
109.697 15.0
109.78 8.0
109.864 12.0
109.948 17.0
110.032 11.0
110.115 4.0
110.199 10.0
110.283 9.0
110.366 8.0
110.45 17.0
110.534 10.0
110.618 11.0
110.701 19.0
110.785 8.0
110.869 14.0
110.952 10.0
111.036 13.0
111.12 14.0
111.203 15.0
111.287 6.0
111.371 14.0
111.455 16.0
111.538 9.0
111.622 12.0
111.706 9.0
111.789 9.0
111.873 13.0
111.957 16.0
112.041 9.0
112.124 12.0
112.208 13.0
112.292 10.0
112.375 18.0
112.459 8.0
112.543 8.0
112.626 12.0
112.71 10.0
112.794 20.0
112.878 15.0
112.961 13.0
113.045 11.0
113.129 9.0
113.212 21.0
113.296 8.0
113.38 8.0
113.464 13.0
113.547 12.0
113.631 13.0
113.715 7.0
113.798 11.0
113.882 8.0
113.966 5.0
114.049 11.0
114.133 9.0
114.217 14.0
114.301 14.0
114.384 10.0
114.468 11.0
114.552 10.0
114.635 15.0
114.719 7.0
114.803 14.0
114.887 10.0
114.97 11.0
115.054 10.0
115.138 19.0
115.221 14.0
115.305 8.0
115.389 14.0
115.472 12.0
115.556 14.0
115.64 7.0
115.724 7.0
115.807 15.0
115.891 9.0
115.975 11.0
116.058 17.0
116.142 10.0
116.226 17.0
116.31 9.0
116.393 15.0
116.477 15.0
116.561 12.0
116.644 16.0
116.728 9.0
116.812 12.0
116.895 12.0
116.979 9.0
117.063 11.0
117.147 11.0
117.23 7.0
117.314 13.0
117.398 18.0
117.481 16.0
117.565 13.0
117.649 6.0
117.733 14.0
117.816 5.0
117.9 4.0
117.984 11.0
118.067 11.0
118.151 12.0
118.235 10.0
118.318 10.0
118.402 8.0
118.486 15.0
118.57 9.0
118.653 9.0
118.737 9.0
118.821 11.0
118.904 11.0
118.988 11.0
119.072 18.0
119.156 11.0
119.239 14.0
119.323 10.0
119.407 11.0
119.49 8.0
119.574 6.0
119.658 12.0
119.741 10.0
119.825 11.0
119.909 11.0
119.993 7.0
120.076 8.0
120.16 9.0
120.244 6.0
120.327 14.0
120.411 16.0
120.495 4.0
120.578 17.0
120.662 12.0
120.746 10.0
120.83 10.0
120.913 8.0
120.997 14.0
121.081 9.0
121.164 16.0
121.248 10.0
121.332 12.0
121.416 14.0
121.499 9.0
121.583 10.0
121.667 15.0
121.75 10.0
121.834 11.0
121.918 12.0
122.001 13.0
122.085 6.0
122.169 17.0
122.253 13.0
122.336 11.0
122.42 3.0
122.504 9.0
122.587 9.0
122.671 13.0
122.755 10.0
122.839 9.0
122.922 7.0
123.006 10.0
123.09 15.0
123.173 17.0
123.257 17.0
123.341 9.0
123.424 5.0
123.508 9.0
123.592 13.0
123.676 14.0
123.759 10.0
123.843 12.0
123.927 12.0
124.01 13.0
124.094 10.0
124.178 19.0
124.262 12.0
124.345 15.0
124.429 11.0
124.513 7.0
124.596 12.0
124.68 8.0
124.764 8.0
124.847 12.0
124.931 13.0
125.015 12.0
125.099 8.0
125.182 13.0
125.266 8.0
125.35 10.0
125.433 14.0
125.517 8.0
125.601 14.0
125.685 12.0
125.768 9.0
125.852 14.0
125.936 9.0
126.019 15.0
126.103 12.0
126.187 13.0
126.27 10.0
126.354 7.0
126.438 10.0
126.522 9.0
126.605 11.0
126.689 15.0
126.773 9.0
126.856 11.0
126.94 7.0
127.024 10.0
127.108 6.0
127.191 14.0
127.275 12.0
127.359 12.0
127.442 7.0
127.526 7.0
127.61 14.0
127.693 10.0
127.777 8.0
127.861 4.0
127.945 7.0
128.028 13.0
128.112 11.0
128.196 9.0
128.279 15.0
128.363 12.0
128.447 6.0
128.531 8.0
128.614 7.0
128.698 5.0
128.782 14.0
128.865 10.0
128.949 7.0
129.033 10.0
129.116 8.0
129.2 11.0
129.284 12.0
129.368 6.0
129.451 9.0
129.535 10.0
129.619 8.0
129.702 10.0
129.786 8.0
129.87 9.0
129.954 6.0
129.998 9.0