File: data/W6818/XRD_2ThetaOmega/W6818_absolute_2th-om_10-130deg_PIXscan_17min_1.xy
10.0035 16.0
10.0872 22.0
10.1709 10.0
10.2546 16.0
10.3383 16.0
10.422 20.0
10.5057 13.0
10.5894 25.0
10.6731 24.0
10.7568 19.0
10.8405 28.0
10.9242 26.0
11.0079 17.0
11.0916 16.0
11.1753 18.0
11.259 11.0
11.3428 25.0
11.4265 21.0
11.5102 20.0
11.5939 16.0
11.6776 25.0
11.7613 14.0
11.845 17.0
11.9287 17.0
12.0124 20.0
12.0961 17.0
12.1798 16.0
12.2635 17.0
12.3472 17.0
12.4309 15.0
12.5146 17.0
12.5983 10.0
12.682 13.0
12.7657 16.0
12.8495 22.0
12.9332 19.0
13.0169 22.0
13.1006 18.0
13.1843 11.0
13.268 16.0
13.3517 16.0
13.4354 14.0
13.5191 17.0
13.6028 19.0
13.6865 18.0
13.7702 11.0
13.8539 16.0
13.9376 18.0
14.0213 10.0
14.105 19.0
14.1887 16.0
14.2724 15.0
14.3562 11.0
14.4399 6.0
14.5236 9.0
14.6073 11.0
14.691 7.0
14.7747 20.0
14.8584 18.0
14.9421 16.0
15.0258 17.0
15.1095 13.0
15.1932 9.0
15.2769 16.0
15.3606 11.0
15.4443 12.0
15.528 17.0
15.6117 13.0
15.6954 19.0
15.7791 16.0
15.8629 11.0
15.9466 13.0
16.0303 12.0
16.114 8.0
16.1977 11.0
16.2814 15.0
16.3651 12.0
16.4488 7.0
16.5325 14.0
16.6162 15.0
16.6999 5.0
16.7836 16.0
16.8673 10.0
16.951 12.0
17.0347 4.0
17.1184 21.0
17.2021 9.0
17.2858 16.0
17.3696 15.0
17.4533 10.0
17.537 10.0
17.6207 14.0
17.7044 9.0
17.7881 13.0
17.8718 9.0
17.9555 16.0
18.0392 16.0
18.1229 6.0
18.2066 11.0
18.2903 10.0
18.374 12.0
18.4577 11.0
18.5414 16.0
18.6251 9.0
18.7088 11.0
18.7925 7.0
18.8763 13.0
18.96 10.0
19.0437 6.0
19.1274 2.0
19.2111 12.0
19.2948 11.0
19.3785 9.0
19.4622 15.0
19.5459 11.0
19.6296 22.0
19.7133 15.0
19.797 13.0
19.8807 14.0
19.9644 15.0
20.0481 13.0
20.1318 7.0
20.2155 8.0
20.2992 6.0
20.383 17.0
20.4667 23.0
20.5504 9.0
20.6341 13.0
20.7178 14.0
20.8015 9.0
20.8852 9.0
20.9689 11.0
21.0526 9.0
21.1363 12.0
21.22 14.0
21.3037 4.0
21.3874 12.0
21.4711 15.0
21.5548 11.0
21.6385 11.0
21.7222 18.0
21.8059 7.0
21.8897 14.0
21.9734 5.0
22.0571 9.0
22.1408 10.0
22.2245 7.0
22.3082 10.0
22.3919 9.0
22.4756 9.0
22.5593 11.0
22.643 7.0
22.7267 7.0
22.8104 13.0
22.8941 9.0
22.9778 8.0
23.0615 8.0
23.1452 9.0
23.2289 10.0
23.3126 11.0
23.3964 7.0
23.4801 3.0
23.5638 5.0
23.6475 9.0
23.7312 7.0
23.8149 8.0
23.8986 6.0
23.9823 3.0
24.066 13.0
24.1497 12.0
24.2334 7.0
24.3171 10.0
24.4008 15.0
24.4845 10.0
24.5682 12.0
24.6519 9.0
24.7356 7.0
24.8193 9.0
24.9031 14.0
24.9868 7.0
25.0705 13.0
25.1542 12.0
25.2379 9.0
25.3216 7.0
25.4053 8.0
25.489 6.0
25.5727 13.0
25.6564 7.0
25.7401 10.0
25.8238 13.0
25.9075 11.0
25.9912 6.0
26.0749 8.0
26.1586 5.0
26.2423 6.0
26.326 5.0
26.4098 8.0
26.4935 10.0
26.5772 4.0
26.6609 7.0
26.7446 4.0
26.8283 6.0
26.912 8.0
26.9957 13.0
27.0794 7.0
27.1631 6.0
27.2468 5.0
27.3305 9.0
27.4142 8.0
27.4979 14.0
27.5816 9.0
27.6653 2.0
27.749 8.0
27.8327 8.0
27.9165 5.0
28.0002 8.0
28.0839 12.0
28.1676 4.0
28.2513 9.0
28.335 4.0
28.4187 9.0
28.5024 6.0
28.5861 8.0
28.6698 10.0
28.7535 12.0
28.8372 6.0
28.9209 4.0
29.0046 4.0
29.0883 10.0
29.172 9.0
29.2557 4.0
29.3394 12.0
29.4232 4.0
29.5069 10.0
29.5906 5.0
29.6743 3.0
29.758 7.0
29.8417 8.0
29.9254 6.0
30.0091 5.0
30.0928 7.0
30.1765 3.0
30.2602 5.0
30.3439 5.0
30.4276 7.0
30.5113 8.0
30.595 8.0
30.6787 7.0
30.7624 13.0
30.8461 3.0
30.9298 4.0
31.0136 4.0
31.0973 11.0
31.181 10.0
31.2647 8.0
31.3484 8.0
31.4321 7.0
31.5158 5.0
31.5995 5.0
31.6832 11.0
31.7669 12.0
31.8506 12.0
31.9343 11.0
32.018 7.0
32.1017 9.0
32.1854 5.0
32.2691 13.0
32.3528 4.0
32.4365 7.0
32.5203 5.0
32.604 4.0
32.6877 10.0
32.7714 4.0
32.8551 5.0
32.9388 3.0
33.0225 8.0
33.1062 7.0
33.1899 15.0
33.2736 7.0
33.3573 7.0
33.441 7.0
33.5247 8.0
33.6084 8.0
33.6921 6.0
33.7758 9.0
33.8595 4.0
33.9432 9.0
34.027 18.0
34.1107 5.0
34.1944 7.0
34.2781 7.0
34.3618 5.0
34.4455 8.0
34.5292 8.0
34.6129 4.0
34.6966 7.0
34.7803 13.0
34.864 8.0
34.9477 12.0
35.0314 7.0
35.1151 7.0
35.1988 5.0
35.2825 6.0
35.3662 6.0
35.4499 9.0
35.5337 11.0
35.6174 4.0
35.7011 5.0
35.7848 4.0
35.8685 10.0
35.9522 4.0
36.0359 11.0
36.1196 5.0
36.2033 8.0
36.287 3.0
36.3707 6.0
36.4544 8.0
36.5381 10.0
36.6218 11.0
36.7055 5.0
36.7892 6.0
36.8729 7.0
36.9566 8.0
37.0404 6.0
37.1241 7.0
37.2078 1.0
37.2915 12.0
37.3752 6.0
37.4589 12.0
37.5426 10.0
37.6263 7.0
37.71 5.0
37.7937 11.0
37.8774 10.0
37.9611 10.0
38.0448 12.0
38.1285 8.0
38.2122 11.0
38.2959 10.0
38.3796 12.0
38.4633 10.0
38.5471 7.0
38.6308 10.0
38.7145 9.0
38.7982 14.0
38.8819 10.0
38.9656 25.0
39.0493 25.0
39.133 25.0
39.2167 33.0
39.3004 100.0
39.3841 221.0
39.4678 620.0
39.5515 469.0
39.6352 185.0
39.7189 65.0
39.8026 61.0
39.8863 19.0
39.97 10.0
40.0538 15.0
40.1375 23.0
40.2212 12.0
40.3049 16.0
40.3886 12.0
40.4723 14.0
40.556 14.0
40.6397 6.0
40.7234 19.0
40.8071 14.0
40.8908 14.0
40.9745 19.0
41.0582 18.0
41.1419 10.0
41.2256 9.0
41.3093 21.0
41.393 45.0
41.4767 70.0
41.5605 747.0
41.6442 1161.0
41.7279 2864.0
41.8116 87.0
41.8953 41.0
41.979 35.0
42.0627 24.0
42.1464 24.0
42.2301 16.0
42.3138 17.0
42.3975 27.0
42.4812 32.0
42.5649 25.0
42.6486 18.0
42.7323 15.0
42.816 14.0
42.8997 15.0
42.9834 14.0
43.0672 17.0
43.1509 21.0
43.2346 12.0
43.3183 16.0
43.402 8.0
43.4857 5.0
43.5694 10.0
43.6531 8.0
43.7368 11.0
43.8205 11.0
43.9042 9.0
43.9879 7.0
44.0716 11.0
44.1553 10.0
44.239 13.0
44.3227 11.0
44.4064 20.0
44.4901 18.0
44.5739 18.0
44.6576 9.0
44.7413 9.0
44.825 7.0
44.9087 15.0
44.9924 13.0
45.0761 9.0
45.1598 9.0
45.2435 11.0
45.3272 4.0
45.4109 7.0
45.4946 7.0
45.5783 13.0
45.662 10.0
45.7457 7.0
45.8294 5.0
45.9131 8.0
45.9968 6.0
46.0806 7.0
46.1643 2.0
46.248 4.0
46.3317 12.0
46.4154 7.0
46.4991 11.0
46.5828 6.0
46.6665 10.0
46.7502 5.0
46.8339 10.0
46.9176 12.0
47.0013 12.0
47.085 10.0
47.1687 5.0
47.2524 5.0
47.3361 5.0
47.4198 13.0
47.5035 8.0
47.5873 4.0
47.671 10.0
47.7547 3.0
47.8384 7.0
47.9221 10.0
48.0058 3.0
48.0895 14.0
48.1732 12.0
48.2569 3.0
48.3406 3.0
48.4243 8.0
48.508 9.0
48.5917 9.0
48.6754 7.0
48.7591 5.0
48.8428 7.0
48.9265 5.0
49.0102 8.0
49.094 6.0
49.1777 8.0
49.2614 6.0
49.3451 6.0
49.4288 7.0
49.5125 6.0
49.5962 6.0
49.6799 11.0
49.7636 10.0
49.8473 8.0
49.931 11.0
50.0147 7.0
50.0984 6.0
50.1821 4.0
50.2658 8.0
50.3495 2.0
50.4332 7.0
50.5169 5.0
50.6007 12.0
50.6844 6.0
50.7681 9.0
50.8518 7.0
50.9355 6.0
51.0192 13.0
51.1029 3.0
51.1866 6.0
51.2703 6.0
51.354 8.0
51.4377 14.0
51.5214 3.0
51.6051 11.0
51.6888 4.0
51.7725 5.0
51.8562 8.0
51.9399 11.0
52.0236 11.0
52.1074 6.0
52.1911 6.0
52.2748 4.0
52.3585 4.0
52.4422 9.0
52.5259 11.0
52.6096 16.0
52.6933 12.0
52.777 2.0
52.8607 6.0
52.9444 5.0
53.0281 5.0
53.1118 3.0
53.1955 5.0
53.2792 6.0
53.3629 11.0
53.4466 9.0
53.5303 8.0
53.6141 10.0
53.6978 11.0
53.7815 8.0
53.8652 6.0
53.9489 12.0
54.0326 6.0
54.1163 9.0
54.2 12.0
54.2837 8.0
54.3674 12.0
54.4511 10.0
54.5348 12.0
54.6185 6.0
54.7022 8.0
54.7859 10.0
54.8696 9.0
54.9533 8.0
55.037 7.0
55.1208 12.0
55.2045 13.0
55.2882 7.0
55.3719 6.0
55.4556 8.0
55.5393 8.0
55.623 5.0
55.7067 11.0
55.7904 8.0
55.8741 5.0
55.9578 5.0
56.0415 9.0
56.1252 13.0
56.2089 4.0
56.2926 6.0
56.3763 8.0
56.46 6.0
56.5437 13.0
56.6275 9.0
56.7112 10.0
56.7949 12.0
56.8786 10.0
56.9623 5.0
57.046 11.0
57.1297 4.0
57.2134 11.0
57.2971 5.0
57.3808 8.0
57.4645 11.0
57.5482 13.0
57.6319 12.0
57.7156 19.0
57.7993 7.0
57.883 8.0
57.9667 5.0
58.0504 11.0
58.1342 11.0
58.2179 13.0
58.3016 9.0
58.3853 13.0
58.469 13.0
58.5527 17.0
58.6364 7.0
58.7201 13.0
58.8038 7.0
58.8875 6.0
58.9712 7.0
59.0549 8.0
59.1386 13.0
59.2223 9.0
59.306 3.0
59.3897 5.0
59.4734 10.0
59.5571 14.0
59.6409 6.0
59.7246 10.0
59.8083 12.0
59.892 13.0
59.9757 9.0
60.0594 6.0
60.1431 13.0
60.2268 6.0
60.3105 4.0
60.3942 10.0
60.4779 10.0
60.5616 9.0
60.6453 7.0
60.729 8.0
60.8127 8.0
60.8964 7.0
60.9801 9.0
61.0638 14.0
61.1476 8.0
61.2313 8.0
61.315 5.0
61.3987 11.0
61.4824 9.0
61.5661 9.0
61.6498 7.0
61.7335 10.0
61.8172 11.0
61.9009 16.0
61.9846 5.0
62.0683 4.0
62.152 11.0
62.2357 8.0
62.3194 10.0
62.4031 16.0
62.4868 8.0
62.5705 10.0
62.6543 8.0
62.738 7.0
62.8217 8.0
62.9054 8.0
62.9891 9.0
63.0728 4.0
63.1565 7.0
63.2402 5.0
63.3239 13.0
63.4076 11.0
63.4913 10.0
63.575 19.0
63.6587 6.0
63.7424 6.0
63.8261 9.0
63.9098 7.0
63.9935 6.0
64.0772 8.0
64.161 9.0
64.2447 7.0
64.3284 14.0
64.4121 10.0
64.4958 10.0
64.5795 9.0
64.6632 6.0
64.7469 5.0
64.8306 13.0
64.9143 10.0
64.998 10.0
65.0817 8.0
65.1654 10.0
65.2491 7.0
65.3328 14.0
65.4165 10.0
65.5002 7.0
65.5839 8.0
65.6677 8.0
65.7514 7.0
65.8351 8.0
65.9188 12.0
66.0025 4.0
66.0862 12.0
66.1699 9.0
66.2536 12.0
66.3373 4.0
66.421 12.0
66.5047 3.0
66.5884 13.0
66.6721 10.0
66.7558 1.0
66.8395 9.0
66.9232 8.0
67.0069 9.0
67.0906 17.0
67.1744 9.0
67.2581 7.0
67.3418 16.0
67.4255 6.0
67.5092 9.0
67.5929 9.0
67.6766 6.0
67.7603 1.0
67.844 11.0
67.9277 7.0
68.0114 16.0
68.0951 7.0
68.1788 7.0
68.2625 13.0
68.3462 10.0
68.4299 5.0
68.5136 8.0
68.5973 8.0
68.6811 8.0
68.7648 10.0
68.8485 6.0
68.9322 10.0
69.0159 6.0
69.0996 9.0
69.1833 8.0
69.267 8.0
69.3507 10.0
69.4344 5.0
69.5181 13.0
69.6018 12.0
69.6855 7.0
69.7692 10.0
69.8529 5.0
69.9366 6.0
70.0203 7.0
70.104 10.0
70.1878 11.0
70.2715 8.0
70.3552 9.0
70.4389 13.0
70.5226 6.0
70.6063 10.0
70.69 11.0
70.7737 11.0
70.8574 10.0
70.9411 9.0
71.0248 5.0
71.1085 3.0
71.1922 10.0
71.2759 9.0
71.3596 11.0
71.4433 10.0
71.527 4.0
71.6107 8.0
71.6945 8.0
71.7782 12.0
71.8619 7.0
71.9456 9.0
72.0293 9.0
72.113 10.0
72.1967 12.0
72.2804 5.0
72.3641 7.0
72.4478 5.0
72.5315 8.0
72.6152 15.0
72.6989 9.0
72.7826 9.0
72.8663 8.0
72.95 9.0
73.0337 18.0
73.1174 10.0
73.2012 12.0
73.2849 9.0
73.3686 8.0
73.4523 7.0
73.536 5.0
73.6197 8.0
73.7034 9.0
73.7871 8.0
73.8708 12.0
73.9545 10.0
74.0382 7.0
74.1219 13.0
74.2056 9.0
74.2893 12.0
74.373 11.0
74.4567 13.0
74.5404 8.0
74.6241 12.0
74.7079 13.0
74.7916 6.0
74.8753 10.0
74.959 7.0
75.0427 10.0
75.1264 2.0
75.2101 10.0
75.2938 5.0
75.3775 8.0
75.4612 10.0
75.5449 10.0
75.6286 13.0
75.7123 10.0
75.796 8.0
75.8797 12.0
75.9634 13.0
76.0471 9.0
76.1308 12.0
76.2146 12.0
76.2983 10.0
76.382 16.0
76.4657 4.0
76.5494 5.0
76.6331 5.0
76.7168 10.0
76.8005 12.0
76.8842 3.0
76.9679 8.0
77.0516 9.0
77.1353 9.0
77.219 7.0
77.3027 13.0
77.3864 9.0
77.4701 6.0
77.5538 11.0
77.6375 8.0
77.7213 11.0
77.805 5.0
77.8887 7.0
77.9724 14.0
78.0561 8.0
78.1398 3.0
78.2235 10.0
78.3072 12.0
78.3909 9.0
78.4746 4.0
78.5583 10.0
78.642 8.0
78.7257 12.0
78.8094 6.0
78.8931 9.0
78.9768 7.0
79.0605 6.0
79.1442 14.0
79.228 7.0
79.3117 9.0
79.3954 8.0
79.4791 13.0
79.5628 10.0
79.6465 7.0
79.7302 10.0
79.8139 8.0
79.8976 8.0
79.9813 19.0
80.065 6.0
80.1487 12.0
80.2324 11.0
80.3161 8.0
80.3998 5.0
80.4835 13.0
80.5672 8.0
80.6509 13.0
80.7347 11.0
80.8184 7.0
80.9021 9.0
80.9858 13.0
81.0695 6.0
81.1532 5.0
81.2369 15.0
81.3206 8.0
81.4043 8.0
81.488 10.0
81.5717 11.0
81.6554 4.0
81.7391 15.0
81.8228 7.0
81.9065 8.0
81.9902 11.0
82.0739 14.0
82.1576 13.0
82.2414 19.0
82.3251 15.0
82.4088 6.0
82.4925 9.0
82.5762 10.0
82.6599 9.0
82.7436 11.0
82.8273 5.0
82.911 6.0
82.9947 13.0
83.0784 12.0
83.1621 3.0
83.2458 6.0
83.3295 9.0
83.4132 10.0
83.4969 9.0
83.5806 10.0
83.6643 3.0
83.7481 14.0
83.8318 12.0
83.9155 13.0
83.9992 18.0
84.0829 13.0
84.1666 11.0
84.2503 8.0
84.334 19.0
84.4177 16.0
84.5014 19.0
84.5851 11.0
84.6688 23.0
84.7525 32.0
84.8362 37.0
84.9199 45.0
85.0036 84.0
85.0873 108.0
85.171 100.0
85.2548 82.0
85.3385 69.0
85.4222 47.0
85.5059 41.0
85.5896 33.0
85.6733 25.0
85.757 19.0
85.8407 21.0
85.9244 39.0
86.0081 24.0
86.0918 9.0
86.1755 11.0
86.2592 11.0
86.3429 11.0
86.4266 8.0
86.5103 8.0
86.594 11.0
86.6777 10.0
86.7615 10.0
86.8452 10.0
86.9289 12.0
87.0126 7.0
87.0963 10.0
87.18 12.0
87.2637 5.0
87.3474 9.0
87.4311 13.0
87.5148 16.0
87.5985 14.0
87.6822 9.0
87.7659 10.0
87.8496 5.0
87.9333 19.0
88.017 7.0
88.1007 9.0
88.1844 12.0
88.2682 7.0
88.3519 11.0
88.4356 5.0
88.5193 12.0
88.603 16.0
88.6867 10.0
88.7704 19.0
88.8541 11.0
88.9378 12.0
89.0215 10.0
89.1052 17.0
89.1889 7.0
89.2726 16.0
89.3563 13.0
89.44 15.0
89.5237 19.0
89.6074 12.0
89.6911 18.0
89.7749 12.0
89.8586 23.0
89.9423 23.0
90.026 32.0
90.1097 32.0
90.1934 48.0
90.2771 49.0
90.3608 62.0
90.4445 86.0
90.5282 166.0
90.6119 1381.0
90.6956 4818.0
90.7793 422.0
90.863 386.0
90.9467 3564.0
91.0304 707.0
91.1141 127.0
91.1978 75.0
91.2816 52.0
91.3653 42.0
91.449 27.0
91.5327 29.0
91.6164 19.0
91.7001 33.0
91.7838 28.0
91.8675 16.0
91.9512 22.0
92.0349 21.0
92.1186 10.0
92.2023 28.0
92.286 17.0
92.3697 23.0
92.4534 14.0
92.5371 15.0
92.6208 24.0
92.7045 17.0
92.7883 20.0
92.872 17.0
92.9557 19.0
93.0394 13.0
93.1231 12.0
93.2068 17.0
93.2905 24.0
93.3742 17.0
93.4579 11.0
93.5416 16.0
93.6253 12.0
93.709 5.0
93.7927 10.0
93.8764 12.0
93.9601 12.0
94.0438 12.0
94.1275 19.0
94.2112 15.0
94.295 12.0
94.3787 14.0
94.4624 12.0
94.5461 13.0
94.6298 16.0
94.7135 12.0
94.7972 19.0
94.8809 12.0
94.9646 7.0
95.0483 10.0
95.132 6.0
95.2157 10.0
95.2994 9.0
95.3831 9.0
95.4668 12.0
95.5505 13.0
95.6342 7.0
95.7179 15.0
95.8017 9.0
95.8854 12.0
95.9691 14.0
96.0528 12.0
96.1365 12.0
96.2202 9.0
96.3039 17.0
96.3876 9.0
96.4713 13.0
96.555 11.0
96.6387 9.0
96.7224 9.0
96.8061 10.0
96.8898 8.0
96.9735 6.0
97.0572 11.0
97.1409 10.0
97.2246 11.0
97.3084 7.0
97.3921 13.0
97.4758 9.0
97.5595 10.0
97.6432 17.0
97.7269 15.0
97.8106 7.0
97.8943 11.0
97.978 7.0
98.0617 5.0
98.1454 12.0
98.2291 12.0
98.3128 9.0
98.3965 10.0
98.4802 18.0
98.5639 12.0
98.6476 11.0
98.7313 18.0
98.8151 6.0
98.8988 10.0
98.9825 15.0
99.0662 14.0
99.1499 9.0
99.2336 7.0
99.3173 9.0
99.401 19.0
99.4847 14.0
99.5684 6.0
99.6521 9.0
99.7358 6.0
99.8195 6.0
99.9032 15.0
99.9869 10.0
100.071 5.0
100.154 11.0
100.238 10.0
100.322 6.0
100.405 3.0
100.489 6.0
100.573 12.0
100.657 12.0
100.74 11.0
100.824 8.0
100.908 8.0
100.991 6.0
101.075 8.0
101.159 13.0
101.243 6.0
101.326 6.0
101.41 13.0
101.494 9.0
101.577 8.0
101.661 19.0
101.745 8.0
101.828 7.0
101.912 10.0
101.996 13.0
102.08 12.0
102.163 7.0
102.247 19.0
102.331 10.0
102.414 9.0
102.498 9.0
102.582 10.0
102.666 8.0
102.749 8.0
102.833 10.0
102.917 10.0
103 13.0
103.084 6.0
103.168 10.0
103.251 9.0
103.335 10.0
103.419 12.0
103.503 10.0
103.586 13.0
103.67 10.0
103.754 6.0
103.837 16.0
103.921 9.0
104.005 11.0
104.089 10.0
104.172 8.0
104.256 6.0
104.34 7.0
104.423 15.0
104.507 12.0
104.591 9.0
104.674 12.0
104.758 9.0
104.842 10.0
104.926 9.0
105.009 6.0
105.093 8.0
105.177 12.0
105.26 8.0
105.344 11.0
105.428 11.0
105.511 6.0
105.595 10.0
105.679 5.0
105.763 8.0
105.846 8.0
105.93 11.0
106.014 12.0
106.097 10.0
106.181 13.0
106.265 10.0
106.349 9.0
106.432 11.0
106.516 15.0
106.6 7.0
106.683 7.0
106.767 10.0
106.851 10.0
106.934 10.0
107.018 13.0
107.102 15.0
107.186 6.0
107.269 13.0
107.353 8.0
107.437 5.0
107.52 7.0
107.604 3.0
107.688 13.0
107.772 14.0
107.855 10.0
107.939 10.0
108.023 12.0
108.106 15.0
108.19 10.0
108.274 12.0
108.357 12.0
108.441 12.0
108.525 13.0
108.609 11.0
108.692 12.0
108.776 16.0
108.86 12.0
108.943 8.0
109.027 9.0
109.111 11.0
109.195 8.0
109.278 7.0
109.362 11.0
109.446 9.0
109.529 10.0
109.613 12.0
109.697 3.0
109.78 14.0
109.864 14.0
109.948 9.0
110.032 7.0
110.115 18.0
110.199 10.0
110.283 9.0
110.366 12.0
110.45 2.0
110.534 8.0
110.618 12.0
110.701 18.0
110.785 16.0
110.869 16.0
110.952 9.0
111.036 11.0
111.12 9.0
111.203 12.0
111.287 10.0
111.371 5.0
111.455 12.0
111.538 8.0
111.622 10.0
111.706 11.0
111.789 8.0
111.873 7.0
111.957 10.0
112.041 7.0
112.124 12.0
112.208 7.0
112.292 12.0
112.375 8.0
112.459 14.0
112.543 9.0
112.626 9.0
112.71 8.0
112.794 18.0
112.878 10.0
112.961 9.0
113.045 11.0
113.129 10.0
113.212 20.0
113.296 11.0
113.38 13.0
113.464 10.0
113.547 14.0
113.631 13.0
113.715 10.0
113.798 12.0
113.882 15.0
113.966 12.0
114.049 12.0
114.133 12.0
114.217 6.0
114.301 9.0
114.384 12.0
114.468 12.0
114.552 9.0
114.635 11.0
114.719 12.0
114.803 7.0
114.887 14.0
114.97 12.0
115.054 16.0
115.138 12.0
115.221 11.0
115.305 8.0
115.389 15.0
115.472 14.0
115.556 14.0
115.64 13.0
115.724 10.0
115.807 10.0
115.891 7.0
115.975 8.0
116.058 11.0
116.142 7.0
116.226 13.0
116.31 11.0
116.393 10.0
116.477 11.0
116.561 9.0
116.644 7.0
116.728 9.0
116.812 12.0
116.895 7.0
116.979 12.0
117.063 9.0
117.147 12.0
117.23 3.0
117.314 5.0
117.398 10.0
117.481 10.0
117.565 12.0
117.649 14.0
117.733 12.0
117.816 7.0
117.9 9.0
117.984 12.0
118.067 11.0
118.151 8.0
118.235 12.0
118.318 10.0
118.402 11.0
118.486 11.0
118.57 9.0
118.653 10.0
118.737 10.0
118.821 14.0
118.904 8.0
118.988 13.0
119.072 10.0
119.156 12.0
119.239 13.0
119.323 11.0
119.407 17.0
119.49 17.0
119.574 10.0
119.658 16.0
119.741 13.0
119.825 8.0
119.909 18.0
119.993 11.0
120.076 7.0
120.16 12.0
120.244 12.0
120.327 4.0
120.411 16.0
120.495 16.0
120.578 14.0
120.662 15.0
120.746 9.0
120.83 11.0
120.913 9.0
120.997 12.0
121.081 9.0
121.164 15.0
121.248 10.0
121.332 14.0
121.416 12.0
121.499 12.0
121.583 9.0
121.667 12.0
121.75 7.0
121.834 9.0
121.918 6.0
122.001 5.0
122.085 12.0
122.169 12.0
122.253 12.0
122.336 12.0
122.42 8.0
122.504 7.0
122.587 11.0
122.671 18.0
122.755 13.0
122.839 13.0
122.922 13.0
123.006 12.0
123.09 13.0
123.173 12.0
123.257 9.0
123.341 16.0
123.424 6.0
123.508 12.0
123.592 7.0
123.676 14.0
123.759 11.0
123.843 10.0
123.927 14.0
124.01 10.0
124.094 16.0
124.178 6.0
124.262 4.0
124.345 9.0
124.429 12.0
124.513 14.0
124.596 4.0
124.68 3.0
124.764 11.0
124.847 16.0
124.931 12.0
125.015 12.0
125.099 11.0
125.182 9.0
125.266 13.0
125.35 12.0
125.433 12.0
125.517 13.0
125.601 8.0
125.685 15.0
125.768 8.0
125.852 12.0
125.936 11.0
126.019 10.0
126.103 10.0
126.187 15.0
126.27 13.0
126.354 11.0
126.438 10.0
126.522 13.0
126.605 10.0
126.689 8.0
126.773 10.0
126.856 10.0
126.94 12.0
127.024 6.0
127.108 11.0
127.191 5.0
127.275 12.0
127.359 13.0
127.442 13.0
127.526 10.0
127.61 14.0
127.693 13.0
127.777 11.0
127.861 11.0
127.945 6.0
128.028 13.0
128.112 9.0
128.196 14.0
128.279 16.0
128.363 10.0
128.447 12.0
128.531 12.0
128.614 8.0
128.698 16.0
128.782 6.0
128.865 13.0
128.949 11.0
129.033 12.0
129.116 9.0
129.2 10.0
129.284 10.0
129.368 18.0
129.451 13.0
129.535 9.0
129.619 14.0
129.702 7.0
129.786 10.0
129.87 8.0
129.954 12.0
129.998 13.0