File: data/W6910m/XRD_Omega/w6910m_m-Cr2O3_scan_omega_4deg_step_0.005deg0_1.xy
31.06810 74.0
31.07310 77.0
31.07810 72.0
31.08310 86.0
31.08810 88.0
31.09310 69.0
31.09810 93.0
31.10310 57.0
31.10810 76.0
31.11310 101.0
31.11810 79.0
31.12310 74.0
31.12810 80.0
31.13310 78.0
31.13810 85.0
31.14310 95.0
31.14810 83.0
31.15310 90.0
31.15810 109.0
31.16310 87.0
31.16810 79.0
31.17310 83.0
31.17810 103.0
31.18310 85.0
31.18810 90.0
31.19310 73.0
31.19810 93.0
31.20310 85.0
31.20810 74.0
31.21310 75.0
31.21810 100.0
31.22310 85.0
31.22810 97.0
31.23310 80.0
31.23810 96.0
31.24310 89.0
31.24810 106.0
31.25310 97.0
31.25810 80.0
31.26310 80.0
31.26810 91.0
31.27310 89.0
31.27810 90.0
31.28310 90.0
31.28810 85.0
31.29310 99.0
31.29810 94.0
31.30310 97.0
31.30810 85.0
31.31310 95.0
31.31810 97.0
31.32310 98.0
31.32810 89.0
31.33310 93.0
31.33810 95.0
31.34310 113.0
31.34810 91.0
31.35310 91.0
31.35810 88.0
31.36310 105.0
31.36810 97.0
31.37310 102.0
31.37810 65.0
31.38310 92.0
31.38810 98.0
31.39310 107.0
31.39810 74.0
31.40310 98.0
31.40810 106.0
31.41310 109.0
31.41810 106.0
31.42310 85.0
31.42810 105.0
31.43310 85.0
31.43810 105.0
31.44310 87.0
31.44810 104.0
31.45310 101.0
31.45810 100.0
31.46310 97.0
31.46810 111.0
31.47310 101.0
31.47810 84.0
31.48310 106.0
31.48810 101.0
31.49310 95.0
31.49810 101.0
31.50310 112.0
31.50810 107.0
31.51310 97.0
31.51810 97.0
31.52310 118.0
31.52810 125.0
31.53310 103.0
31.53810 114.0
31.54310 124.0
31.54810 128.0
31.55310 128.0
31.55810 99.0
31.56310 120.0
31.56810 113.0
31.57310 113.0
31.57810 128.0
31.58310 110.0
31.58810 123.0
31.59310 108.0
31.59810 118.0
31.60310 129.0
31.60810 129.0
31.61310 117.0
31.61810 121.0
31.62310 122.0
31.62810 122.0
31.63310 118.0
31.63810 127.0
31.64310 117.0
31.64810 129.0
31.65310 109.0
31.65810 127.0
31.66310 123.0
31.66810 131.0
31.67310 145.0
31.67810 140.0
31.68310 119.0
31.68810 137.0
31.69310 119.0
31.69810 135.0
31.70310 125.0
31.70810 143.0
31.71310 120.0
31.71810 139.0
31.72310 143.0
31.72810 137.0
31.73310 127.0
31.73810 129.0
31.74310 144.0
31.74810 141.0
31.75310 146.0
31.75810 147.0
31.76310 164.0
31.76810 156.0
31.77310 139.0
31.77810 131.0
31.78310 156.0
31.78810 158.0
31.79310 158.0
31.79810 179.0
31.80310 173.0
31.80810 164.0
31.81310 183.0
31.81810 154.0
31.82310 159.0
31.82810 184.0
31.83310 176.0
31.83810 157.0
31.84310 170.0
31.84810 184.0
31.85310 158.0
31.85810 192.0
31.86310 184.0
31.86810 177.0
31.87310 189.0
31.87810 194.0
31.88310 172.0
31.88810 174.0
31.89310 186.0
31.89810 189.0
31.90310 176.0
31.90810 170.0
31.91310 198.0
31.91810 188.0
31.92310 205.0
31.92810 204.0
31.93310 209.0
31.93810 238.0
31.94310 207.0
31.94810 218.0
31.95310 197.0
31.95810 242.0
31.96310 219.0
31.96810 224.0
31.97310 261.0
31.97810 238.0
31.98310 227.0
31.98810 241.0
31.99310 240.0
31.99810 225.0
32.00310 239.0
32.00810 241.0
32.01310 236.0
32.01810 261.0
32.02310 266.0
32.02810 270.0
32.03310 298.0
32.03810 266.0
32.04310 284.0
32.04810 264.0
32.05310 290.0
32.05810 312.0
32.06310 357.0
32.06810 311.0
32.07310 296.0
32.07810 318.0
32.08310 337.0
32.08810 347.0
32.09310 350.0
32.09810 323.0
32.10310 338.0
32.10810 286.0
32.11310 353.0
32.11810 348.0
32.12310 342.0
32.12810 356.0
32.13310 393.0
32.13810 323.0
32.14310 368.0
32.14810 394.0
32.15310 381.0
32.15810 429.0
32.16310 444.0
32.16810 397.0
32.17310 397.0
32.17810 455.0
32.18310 417.0
32.18810 454.0
32.19310 437.0
32.19810 470.0
32.20310 480.0
32.20810 413.0
32.21310 450.0
32.21810 458.0
32.22310 481.0
32.22810 489.0
32.23310 497.0
32.23810 517.0
32.24310 515.0
32.24810 553.0
32.25310 559.0
32.25810 600.0
32.26310 575.0
32.26810 597.0
32.27310 599.0
32.27810 596.0
32.28310 631.0
32.28810 640.0
32.29310 680.0
32.29810 651.0
32.30310 711.0
32.30810 693.0
32.31310 747.0
32.31810 806.0
32.32310 733.0
32.32810 798.0
32.33310 757.0
32.33810 836.0
32.34310 742.0
32.34810 815.0
32.35310 832.0
32.35810 852.0
32.36310 922.0
32.36810 873.0
32.37310 898.0
32.37810 920.0
32.38310 907.0
32.38810 990.0
32.39310 1005.0
32.39810 1038.0
32.40310 993.0
32.40810 1025.0
32.41310 1124.0
32.41810 1076.0
32.42310 1060.0
32.42810 1078.0
32.43310 1191.0
32.43810 1178.0
32.44310 1200.0
32.44810 1297.0
32.45310 1164.0
32.45810 1315.0
32.46310 1413.0
32.46810 1362.0
32.47310 1349.0
32.47810 1456.0
32.48310 1483.0
32.48810 1448.0
32.49310 1440.0
32.49810 1545.0
32.50310 1512.0
32.50810 1619.0
32.51310 1663.0
32.51810 1629.0
32.52310 1686.0
32.52810 1696.0
32.53310 1728.0
32.53810 1757.0
32.54310 1790.0
32.54810 1715.0
32.55310 1890.0
32.55810 1951.0
32.56310 1873.0
32.56810 1972.0
32.57310 2040.0
32.57810 2081.0
32.58310 2027.0
32.58810 2113.0
32.59310 2166.0
32.59810 2163.0
32.60310 2291.0
32.60810 2267.0
32.61310 2324.0
32.61810 2423.0
32.62310 2453.0
32.62810 2540.0
32.63310 2564.0
32.63810 2695.0
32.64310 2719.0
32.64810 2693.0
32.65310 2894.0
32.65810 2747.0
32.66310 2885.0
32.66810 3111.0
32.67310 3081.0
32.67810 3114.0
32.68310 3123.0
32.68810 3084.0
32.69310 3322.0
32.69810 3415.0
32.70310 3474.0
32.70810 3558.0
32.71310 3492.0
32.71810 3641.0
32.72310 3641.0
32.72810 3749.0
32.73310 3828.0
32.73810 3968.0
32.74310 3983.0
32.74810 3938.0
32.75310 3984.0
32.75810 4154.0
32.76310 4277.0
32.76810 4313.0
32.77310 4330.0
32.77810 4429.0
32.78310 4509.0
32.78810 4673.0
32.79310 4689.0
32.79810 4750.0
32.80310 4826.0
32.80810 4941.0
32.81310 5023.0
32.81810 5086.0
32.82310 5267.0
32.82810 5225.0
32.83310 5434.0
32.83810 5446.0
32.84310 5808.0
32.84810 5650.0
32.85310 5682.0
32.85810 5778.0
32.86310 5790.0
32.86810 5910.0
32.87310 5949.0
32.87810 6044.0
32.88310 6173.0
32.88810 6377.0
32.89310 6252.0
32.89810 6342.0
32.90310 6613.0
32.90810 6754.0
32.91310 6599.0
32.91810 6692.0
32.92310 6724.0
32.92810 7019.0
32.93310 6725.0
32.93810 7020.0
32.94310 7024.0
32.94810 7114.0
32.95310 7228.0
32.95810 7253.0
32.96310 7495.0
32.96810 7295.0
32.97310 7317.0
32.97810 7456.0
32.98310 7747.0
32.98810 7842.0
32.99310 7749.0
32.99810 7604.0
33.00310 7668.0
33.00810 7882.0
33.01310 7800.0
33.01810 7964.0
33.02310 7869.0
33.02810 7916.0
33.03310 7946.0
33.03810 8077.0
33.04310 8047.0
33.04810 8009.0
33.05310 8043.0
33.05810 7976.0
33.06310 8126.0
33.06810 8071.0
33.07310 8127.0
33.07810 8090.0
33.08310 8066.0
33.08810 8015.0
33.09310 8033.0
33.09810 7995.0
33.10310 7911.0
33.10810 7785.0
33.11310 7810.0
33.11810 7576.0
33.12310 7694.0
33.12810 7558.0
33.13310 7634.0
33.13810 7460.0
33.14310 7508.0
33.14810 7344.0
33.15310 7304.0
33.15810 7309.0
33.16310 7063.0
33.16810 6970.0
33.17310 6839.0
33.17810 6826.0
33.18310 6670.0
33.18810 6473.0
33.19310 6375.0
33.19810 6355.0
33.20310 6296.0
33.20810 6082.0
33.21310 5986.0
33.21810 5852.0
33.22310 5817.0
33.22810 5686.0
33.23310 5667.0
33.23810 5568.0
33.24310 5281.0
33.24810 5386.0
33.25310 5072.0
33.25810 4994.0
33.26310 4860.0
33.26810 4742.0
33.27310 4632.0
33.27810 4450.0
33.28310 4512.0
33.28810 4289.0
33.29310 4203.0
33.29810 4113.0
33.30310 3897.0
33.30810 3787.0
33.31310 3664.0
33.31810 3611.0
33.32310 3432.0
33.32810 3363.0
33.33310 3338.0
33.33810 3313.0
33.34310 3146.0
33.34810 3068.0
33.35310 2879.0
33.35810 2863.0
33.36310 2866.0
33.36810 2739.0
33.37310 2567.0
33.37810 2555.0
33.38310 2572.0
33.38810 2479.0
33.39310 2413.0
33.39810 2282.0
33.40310 2200.0
33.40810 2230.0
33.41310 2103.0
33.41810 2060.0
33.42310 2033.0
33.42810 1946.0
33.43310 1872.0
33.43810 1807.0
33.44310 1796.0
33.44810 1775.0
33.45310 1754.0
33.45810 1650.0
33.46310 1607.0
33.46810 1560.0
33.47310 1534.0
33.47810 1550.0
33.48310 1521.0
33.48810 1465.0
33.49310 1414.0
33.49810 1385.0
33.50310 1327.0
33.50810 1305.0
33.51310 1269.0
33.51810 1187.0
33.52310 1204.0
33.52810 1205.0
33.53310 1168.0
33.53810 1173.0
33.54310 1067.0
33.54810 1109.0
33.55310 1036.0
33.55810 1027.0
33.56310 1021.0
33.56810 1012.0
33.57310 952.0
33.57810 927.0
33.58310 926.0
33.58810 893.0
33.59310 897.0
33.59810 809.0
33.60310 815.0
33.60810 844.0
33.61310 767.0
33.61810 767.0
33.62310 732.0
33.62810 746.0
33.63310 737.0
33.63810 735.0
33.64310 704.0
33.64810 689.0
33.65310 679.0
33.65810 674.0
33.66310 620.0
33.66810 623.0
33.67310 627.0
33.67810 604.0
33.68310 619.0
33.68810 588.0
33.69310 566.0
33.69810 525.0
33.70310 551.0
33.70810 474.0
33.71310 554.0
33.71810 517.0
33.72310 502.0
33.72810 527.0
33.73310 496.0
33.73810 467.0
33.74310 485.0
33.74810 478.0
33.75310 463.0
33.75810 422.0
33.76310 474.0
33.76810 418.0
33.77310 425.0
33.77810 426.0
33.78310 457.0
33.78810 407.0
33.79310 410.0
33.79810 420.0
33.80310 386.0
33.80810 399.0
33.81310 354.0
33.81810 358.0
33.82310 385.0
33.82810 344.0
33.83310 368.0
33.83810 356.0
33.84310 337.0
33.84810 343.0
33.85310 318.0
33.85810 306.0
33.86310 306.0
33.86810 360.0
33.87310 337.0
33.87810 319.0
33.88310 304.0
33.88810 281.0
33.89310 294.0
33.89810 263.0
33.90310 277.0
33.90810 275.0
33.91310 266.0
33.91810 224.0
33.92310 236.0
33.92810 251.0
33.93310 263.0
33.93810 219.0
33.94310 248.0
33.94810 221.0
33.95310 280.0
33.95810 242.0
33.96310 210.0
33.96810 248.0
33.97310 227.0
33.97810 222.0
33.98310 206.0
33.98810 229.0
33.99310 195.0
33.99810 218.0
34.00310 213.0
34.00810 198.0
34.01310 205.0
34.01810 204.0
34.02310 166.0
34.02810 209.0
34.03310 193.0
34.03810 210.0
34.04310 193.0
34.04810 169.0
34.05310 199.0
34.05810 211.0
34.06310 176.0
34.06810 183.0
34.07310 166.0
34.07810 146.0
34.08310 173.0
34.08810 152.0
34.09310 159.0
34.09810 157.0
34.10310 169.0
34.10810 154.0
34.11310 162.0
34.11810 176.0
34.12310 160.0
34.12810 157.0
34.13310 179.0
34.13810 162.0
34.14310 173.0
34.14810 130.0
34.15310 147.0
34.15810 153.0
34.16310 141.0
34.16810 162.0
34.17310 133.0
34.17810 154.0
34.18310 140.0
34.18810 140.0
34.19310 152.0
34.19810 166.0
34.20310 152.0
34.20810 144.0
34.21310 141.0
34.21810 132.0
34.22310 138.0
34.22810 122.0
34.23310 149.0
34.23810 109.0
34.24310 110.0
34.24810 150.0
34.25310 123.0
34.25810 119.0
34.26310 115.0
34.26810 124.0
34.27310 139.0
34.27810 118.0
34.28310 120.0
34.28810 132.0
34.29310 124.0
34.29810 110.0
34.30310 126.0
34.30810 98.0
34.31310 129.0
34.31810 139.0
34.32310 115.0
34.32810 117.0
34.33310 107.0
34.33810 113.0
34.34310 95.0
34.34810 103.0
34.35310 112.0
34.35810 123.0
34.36310 102.0
34.36810 116.0
34.37310 120.0
34.37810 109.0
34.38310 122.0
34.38810 99.0
34.39310 114.0
34.39810 108.0
34.40310 102.0
34.40810 106.0
34.41310 88.0
34.41810 104.0
34.42310 106.0
34.42810 101.0
34.43310 99.0
34.43810 99.0
34.44310 93.0
34.44810 95.0
34.45310 98.0
34.45810 107.0
34.46310 95.0
34.46810 89.0
34.47310 109.0
34.47810 87.0
34.48310 110.0
34.48810 89.0
34.49310 89.0
34.49810 101.0
34.50310 98.0
34.50810 95.0
34.51310 96.0
34.51810 88.0
34.52310 80.0
34.52810 93.0
34.53310 98.0
34.53810 88.0
34.54310 91.0
34.54810 84.0
34.55310 96.0
34.55810 81.0
34.56310 116.0
34.56810 80.0
34.57310 84.0
34.57810 64.0
34.58310 87.0
34.58810 108.0
34.59310 90.0
34.59810 81.0
34.60310 72.0
34.60810 74.0
34.61310 89.0
34.61810 79.0
34.62310 93.0
34.62810 98.0
34.63310 94.0
34.63810 77.0
34.64310 67.0
34.64810 93.0
34.65310 91.0
34.65810 76.0
34.66310 83.0
34.66810 82.0
34.67310 77.0
34.67810 75.0
34.68310 70.0
34.68810 79.0
34.69310 67.0
34.69810 67.0
34.70310 73.0
34.70810 91.0
34.71310 74.0
34.71810 76.0
34.72310 74.0
34.72810 72.0
34.73310 68.0
34.73810 88.0
34.74310 77.0
34.74810 73.0
34.75310 71.0
34.75810 62.0
34.76310 82.0
34.76810 71.0
34.77310 84.0
34.77810 68.0
34.78310 81.0
34.78810 76.0
34.79310 91.0
34.79810 69.0
34.80310 58.0
34.80810 71.0
34.81310 68.0
34.81810 86.0
34.82310 63.0
34.82810 73.0
34.83310 71.0
34.83810 63.0
34.84310 69.0
34.84810 81.0
34.85310 74.0
34.85810 85.0
34.86310 75.0
34.86810 68.0
34.87310 69.0
34.87810 79.0
34.88310 69.0
34.88810 70.0
34.89310 69.0
34.89810 75.0
34.90310 77.0
34.90810 70.0
34.91310 62.0
34.91810 61.0
34.92310 80.0
34.92810 73.0
34.93310 79.0
34.93810 69.0
34.94310 91.0
34.94810 73.0
34.95310 69.0
34.95810 78.0
34.96310 65.0
34.96810 69.0
34.97310 78.0
34.97810 72.0
34.98310 63.0
34.98810 81.0
34.99310 74.0
34.99810 54.0
35.00310 61.0
35.00810 67.0
35.01310 72.0
35.01810 59.0
35.02310 74.0
35.02810 78.0