File: data/W6779c/XRD_2ThetaOmega/W6779c_absolute_2th-om_10-130deg_PIXscan_17min_6.xy
10.0035 42.0
10.0872 28.0
10.1709 37.0
10.2546 28.0
10.3383 26.0
10.422 33.0
10.5057 29.0
10.5894 29.0
10.6731 36.0
10.7568 36.0
10.8405 27.0
10.9242 31.0
11.0079 28.0
11.0916 28.0
11.1753 22.0
11.259 41.0
11.3428 31.0
11.4265 39.0
11.5102 31.0
11.5939 31.0
11.6776 34.0
11.7613 32.0
11.845 31.0
11.9287 20.0
12.0124 29.0
12.0961 36.0
12.1798 27.0
12.2635 43.0
12.3472 31.0
12.4309 37.0
12.5146 32.0
12.5983 30.0
12.682 25.0
12.7657 25.0
12.8495 37.0
12.9332 28.0
13.0169 22.0
13.1006 18.0
13.1843 35.0
13.268 24.0
13.3517 22.0
13.4354 21.0
13.5191 37.0
13.6028 19.0
13.6865 25.0
13.7702 26.0
13.8539 39.0
13.9376 18.0
14.0213 29.0
14.105 30.0
14.1887 35.0
14.2724 26.0
14.3562 29.0
14.4399 27.0
14.5236 28.0
14.6073 17.0
14.691 30.0
14.7747 16.0
14.8584 24.0
14.9421 31.0
15.0258 25.0
15.1095 24.0
15.1932 34.0
15.2769 20.0
15.3606 33.0
15.4443 24.0
15.528 18.0
15.6117 30.0
15.6954 22.0
15.7791 18.0
15.8629 23.0
15.9466 27.0
16.0303 25.0
16.114 18.0
16.1977 22.0
16.2814 23.0
16.3651 29.0
16.4488 20.0
16.5325 25.0
16.6162 23.0
16.6999 30.0
16.7836 25.0
16.8673 26.0
16.951 18.0
17.0347 30.0
17.1184 18.0
17.2021 24.0
17.2858 26.0
17.3696 22.0
17.4533 27.0
17.537 26.0
17.6207 29.0
17.7044 25.0
17.7881 35.0
17.8718 23.0
17.9555 25.0
18.0392 21.0
18.1229 24.0
18.2066 30.0
18.2903 24.0
18.374 21.0
18.4577 21.0
18.5414 23.0
18.6251 20.0
18.7088 22.0
18.7925 22.0
18.8763 30.0
18.96 19.0
19.0437 29.0
19.1274 25.0
19.2111 18.0
19.2948 21.0
19.3785 25.0
19.4622 26.0
19.5459 32.0
19.6296 20.0
19.7133 26.0
19.797 22.0
19.8807 18.0
19.9644 32.0
20.0481 12.0
20.1318 20.0
20.2155 23.0
20.2992 17.0
20.383 15.0
20.4667 28.0
20.5504 22.0
20.6341 23.0
20.7178 20.0
20.8015 22.0
20.8852 24.0
20.9689 14.0
21.0526 21.0
21.1363 25.0
21.22 23.0
21.3037 19.0
21.3874 14.0
21.4711 25.0
21.5548 15.0
21.6385 20.0
21.7222 19.0
21.8059 16.0
21.8897 20.0
21.9734 20.0
22.0571 23.0
22.1408 15.0
22.2245 25.0
22.3082 11.0
22.3919 23.0
22.4756 28.0
22.5593 28.0
22.643 18.0
22.7267 18.0
22.8104 17.0
22.8941 18.0
22.9778 17.0
23.0615 24.0
23.1452 16.0
23.2289 17.0
23.3126 34.0
23.3964 20.0
23.4801 16.0
23.5638 19.0
23.6475 14.0
23.7312 17.0
23.8149 16.0
23.8986 13.0
23.9823 14.0
24.066 27.0
24.1497 14.0
24.2334 20.0
24.3171 21.0
24.4008 21.0
24.4845 25.0
24.5682 21.0
24.6519 21.0
24.7356 18.0
24.8193 27.0
24.9031 19.0
24.9868 14.0
25.0705 18.0
25.1542 17.0
25.2379 18.0
25.3216 17.0
25.4053 19.0
25.489 21.0
25.5727 16.0
25.6564 18.0
25.7401 14.0
25.8238 23.0
25.9075 16.0
25.9912 17.0
26.0749 13.0
26.1586 16.0
26.2423 17.0
26.326 18.0
26.4098 17.0
26.4935 18.0
26.5772 20.0
26.6609 18.0
26.7446 17.0
26.8283 13.0
26.912 12.0
26.9957 12.0
27.0794 24.0
27.1631 14.0
27.2468 14.0
27.3305 12.0
27.4142 25.0
27.4979 12.0
27.5816 19.0
27.6653 12.0
27.749 24.0
27.8327 20.0
27.9165 12.0
28.0002 25.0
28.0839 13.0
28.1676 16.0
28.2513 23.0
28.335 23.0
28.4187 9.0
28.5024 13.0
28.5861 11.0
28.6698 17.0
28.7535 12.0
28.8372 13.0
28.9209 14.0
29.0046 14.0
29.0883 15.0
29.172 8.0
29.2557 12.0
29.3394 24.0
29.4232 13.0
29.5069 12.0
29.5906 14.0
29.6743 25.0
29.758 13.0
29.8417 13.0
29.9254 20.0
30.0091 9.0
30.0928 8.0
30.1765 17.0
30.2602 22.0
30.3439 16.0
30.4276 16.0
30.5113 9.0
30.595 14.0
30.6787 12.0
30.7624 11.0
30.8461 9.0
30.9298 18.0
31.0136 10.0
31.0973 12.0
31.181 7.0
31.2647 15.0
31.3484 14.0
31.4321 16.0
31.5158 10.0
31.5995 10.0
31.6832 19.0
31.7669 15.0
31.8506 9.0
31.9343 10.0
32.018 9.0
32.1017 18.0
32.1854 11.0
32.2691 13.0
32.3528 18.0
32.4365 9.0
32.5203 16.0
32.604 12.0
32.6877 9.0
32.7714 7.0
32.8551 7.0
32.9388 10.0
33.0225 17.0
33.1062 11.0
33.1899 15.0
33.2736 15.0
33.3573 13.0
33.441 20.0
33.5247 10.0
33.6084 18.0
33.6921 10.0
33.7758 16.0
33.8595 11.0
33.9432 15.0
34.027 11.0
34.1107 15.0
34.1944 13.0
34.2781 14.0
34.3618 14.0
34.4455 11.0
34.5292 21.0
34.6129 9.0
34.6966 21.0
34.7803 10.0
34.864 16.0
34.9477 11.0
35.0314 16.0
35.1151 7.0
35.1988 18.0
35.2825 11.0
35.3662 16.0
35.4499 9.0
35.5337 12.0
35.6174 19.0
35.7011 10.0
35.7848 14.0
35.8685 13.0
35.9522 14.0
36.0359 14.0
36.1196 16.0
36.2033 12.0
36.287 12.0
36.3707 14.0
36.4544 10.0
36.5381 11.0
36.6218 22.0
36.7055 15.0
36.7892 9.0
36.8729 13.0
36.9566 11.0
37.0404 14.0
37.1241 22.0
37.2078 17.0
37.2915 18.0
37.3752 17.0
37.4589 17.0
37.5426 20.0
37.6263 21.0
37.71 18.0
37.7937 16.0
37.8774 12.0
37.9611 20.0
38.0448 19.0
38.1285 15.0
38.2122 22.0
38.2959 16.0
38.3796 21.0
38.4633 16.0
38.5471 26.0
38.6308 32.0
38.7145 35.0
38.7982 34.0
38.8819 47.0
38.9656 47.0
39.0493 112.0
39.133 154.0
39.2167 378.0
39.3004 589.0
39.3841 445.0
39.4678 192.0
39.5515 72.0
39.6352 28.0
39.7189 27.0
39.8026 61.0
39.8863 26.0
39.97 17.0
40.0538 15.0
40.1375 20.0
40.2212 16.0
40.3049 17.0
40.3886 13.0
40.4723 23.0
40.556 22.0
40.6397 11.0
40.7234 15.0
40.8071 20.0
40.8908 26.0
40.9745 21.0
41.0582 18.0
41.1419 18.0
41.2256 37.0
41.3093 36.0
41.393 78.0
41.4767 82.0
41.5605 1404.0
41.6442 1156.0
41.7279 2955.0
41.8116 95.0
41.8953 43.0
41.979 38.0
42.0627 30.0
42.1464 37.0
42.2301 27.0
42.3138 27.0
42.3975 33.0
42.4812 15.0
42.5649 14.0
42.6486 21.0
42.7323 10.0
42.816 21.0
42.8997 21.0
42.9834 14.0
43.0672 23.0
43.1509 10.0
43.2346 13.0
43.3183 15.0
43.402 12.0
43.4857 21.0
43.5694 16.0
43.6531 20.0
43.7368 20.0
43.8205 13.0
43.9042 11.0
43.9879 20.0
44.0716 20.0
44.1553 23.0
44.239 24.0
44.3227 25.0
44.4064 23.0
44.4901 32.0
44.5739 13.0
44.6576 17.0
44.7413 16.0
44.825 17.0
44.9087 17.0
44.9924 13.0
45.0761 13.0
45.1598 14.0
45.2435 11.0
45.3272 12.0
45.4109 10.0
45.4946 18.0
45.5783 14.0
45.662 7.0
45.7457 9.0
45.8294 14.0
45.9131 20.0
45.9968 13.0
46.0806 22.0
46.1643 14.0
46.248 9.0
46.3317 11.0
46.4154 10.0
46.4991 10.0
46.5828 11.0
46.6665 11.0
46.7502 11.0
46.8339 14.0
46.9176 12.0
47.0013 21.0
47.085 15.0
47.1687 12.0
47.2524 13.0
47.3361 10.0
47.4198 12.0
47.5035 11.0
47.5873 13.0
47.671 9.0
47.7547 11.0
47.8384 18.0
47.9221 10.0
48.0058 9.0
48.0895 10.0
48.1732 13.0
48.2569 13.0
48.3406 20.0
48.4243 13.0
48.508 13.0
48.5917 9.0
48.6754 10.0
48.7591 17.0
48.8428 16.0
48.9265 10.0
49.0102 14.0
49.094 16.0
49.1777 15.0
49.2614 12.0
49.3451 13.0
49.4288 15.0
49.5125 18.0
49.5962 14.0
49.6799 15.0
49.7636 13.0
49.8473 11.0
49.931 10.0
50.0147 15.0
50.0984 12.0
50.1821 13.0
50.2658 10.0
50.3495 13.0
50.4332 11.0
50.5169 20.0
50.6007 13.0
50.6844 13.0
50.7681 4.0
50.8518 10.0
50.9355 15.0
51.0192 21.0
51.1029 20.0
51.1866 10.0
51.2703 12.0
51.354 17.0
51.4377 11.0
51.5214 13.0
51.6051 12.0
51.6888 20.0
51.7725 12.0
51.8562 11.0
51.9399 13.0
52.0236 14.0
52.1074 14.0
52.1911 11.0
52.2748 13.0
52.3585 16.0
52.4422 10.0
52.5259 18.0
52.6096 14.0
52.6933 14.0
52.777 12.0
52.8607 14.0
52.9444 9.0
53.0281 5.0
53.1118 17.0
53.1955 7.0
53.2792 11.0
53.3629 15.0
53.4466 13.0
53.5303 11.0
53.6141 12.0
53.6978 8.0
53.7815 17.0
53.8652 14.0
53.9489 11.0
54.0326 12.0
54.1163 12.0
54.2 16.0
54.2837 17.0
54.3674 19.0
54.4511 10.0
54.5348 16.0
54.6185 11.0
54.7022 11.0
54.7859 15.0
54.8696 8.0
54.9533 13.0
55.037 14.0
55.1208 14.0
55.2045 18.0
55.2882 12.0
55.3719 18.0
55.4556 15.0
55.5393 15.0
55.623 14.0
55.7067 14.0
55.7904 10.0
55.8741 13.0
55.9578 14.0
56.0415 20.0
56.1252 4.0
56.2089 16.0
56.2926 11.0
56.3763 14.0
56.46 5.0
56.5437 8.0
56.6275 6.0
56.7112 20.0
56.7949 11.0
56.8786 19.0
56.9623 11.0
57.046 12.0
57.1297 9.0
57.2134 13.0
57.2971 13.0
57.3808 12.0
57.4645 8.0
57.5482 12.0
57.6319 12.0
57.7156 12.0
57.7993 10.0
57.883 14.0
57.9667 9.0
58.0504 14.0
58.1342 15.0
58.2179 15.0
58.3016 14.0
58.3853 10.0
58.469 16.0
58.5527 16.0
58.6364 10.0
58.7201 10.0
58.8038 14.0
58.8875 12.0
58.9712 11.0
59.0549 19.0
59.1386 7.0
59.2223 15.0
59.306 11.0
59.3897 12.0
59.4734 8.0
59.5571 12.0
59.6409 13.0
59.7246 12.0
59.8083 19.0
59.892 14.0
59.9757 15.0
60.0594 11.0
60.1431 10.0
60.2268 8.0
60.3105 15.0
60.3942 6.0
60.4779 13.0
60.5616 8.0
60.6453 9.0
60.729 12.0
60.8127 10.0
60.8964 15.0
60.9801 16.0
61.0638 10.0
61.1476 18.0
61.2313 13.0
61.315 13.0
61.3987 13.0
61.4824 10.0
61.5661 14.0
61.6498 11.0
61.7335 13.0
61.8172 15.0
61.9009 13.0
61.9846 9.0
62.0683 11.0
62.152 19.0
62.2357 14.0
62.3194 16.0
62.4031 10.0
62.4868 9.0
62.5705 15.0
62.6543 16.0
62.738 19.0
62.8217 11.0
62.9054 15.0
62.9891 16.0
63.0728 10.0
63.1565 15.0
63.2402 6.0
63.3239 16.0
63.4076 17.0
63.4913 11.0
63.575 8.0
63.6587 14.0
63.7424 16.0
63.8261 18.0
63.9098 16.0
63.9935 13.0
64.0772 14.0
64.161 9.0
64.2447 8.0
64.3284 10.0
64.4121 10.0
64.4958 13.0
64.5795 17.0
64.6632 10.0
64.7469 13.0
64.8306 14.0
64.9143 21.0
64.998 12.0
65.0817 11.0
65.1654 18.0
65.2491 17.0
65.3328 10.0
65.4165 9.0
65.5002 11.0
65.5839 8.0
65.6677 13.0
65.7514 14.0
65.8351 11.0
65.9188 13.0
66.0025 14.0
66.0862 10.0
66.1699 15.0
66.2536 15.0
66.3373 13.0
66.421 13.0
66.5047 14.0
66.5884 14.0
66.6721 19.0
66.7558 21.0
66.8395 10.0
66.9232 11.0
67.0069 16.0
67.0906 13.0
67.1744 6.0
67.2581 18.0
67.3418 16.0
67.4255 7.0
67.5092 15.0
67.5929 15.0
67.6766 20.0
67.7603 10.0
67.844 12.0
67.9277 11.0
68.0114 11.0
68.0951 10.0
68.1788 11.0
68.2625 14.0
68.3462 18.0
68.4299 22.0
68.5136 13.0
68.5973 9.0
68.6811 12.0
68.7648 15.0
68.8485 19.0
68.9322 14.0
69.0159 13.0
69.0996 8.0
69.1833 9.0
69.267 15.0
69.3507 14.0
69.4344 17.0
69.5181 10.0
69.6018 13.0
69.6855 8.0
69.7692 16.0
69.8529 11.0
69.9366 19.0
70.0203 17.0
70.104 18.0
70.1878 14.0
70.2715 22.0
70.3552 16.0
70.4389 12.0
70.5226 14.0
70.6063 8.0
70.69 14.0
70.7737 17.0
70.8574 12.0
70.9411 11.0
71.0248 11.0
71.1085 11.0
71.1922 8.0
71.2759 8.0
71.3596 14.0
71.4433 16.0
71.527 11.0
71.6107 11.0
71.6945 9.0
71.7782 13.0
71.8619 16.0
71.9456 10.0
72.0293 16.0
72.113 9.0
72.1967 21.0
72.2804 18.0
72.3641 9.0
72.4478 14.0
72.5315 13.0
72.6152 21.0
72.6989 17.0
72.7826 9.0
72.8663 10.0
72.95 13.0
73.0337 11.0
73.1174 18.0
73.2012 11.0
73.2849 19.0
73.3686 16.0
73.4523 10.0
73.536 21.0
73.6197 9.0
73.7034 7.0
73.7871 9.0
73.8708 16.0
73.9545 10.0
74.0382 17.0
74.1219 12.0
74.2056 9.0
74.2893 15.0
74.373 19.0
74.4567 17.0
74.5404 8.0
74.6241 17.0
74.7079 10.0
74.7916 11.0
74.8753 15.0
74.959 14.0
75.0427 21.0
75.1264 21.0
75.2101 6.0
75.2938 13.0
75.3775 20.0
75.4612 17.0
75.5449 19.0
75.6286 19.0
75.7123 16.0
75.796 16.0
75.8797 7.0
75.9634 15.0
76.0471 8.0
76.1308 13.0
76.2146 14.0
76.2983 17.0
76.382 12.0
76.4657 10.0
76.5494 13.0
76.6331 12.0
76.7168 13.0
76.8005 14.0
76.8842 22.0
76.9679 14.0
77.0516 21.0
77.1353 9.0
77.219 16.0
77.3027 10.0
77.3864 9.0
77.4701 14.0
77.5538 12.0
77.6375 18.0
77.7213 17.0
77.805 16.0
77.8887 16.0
77.9724 8.0
78.0561 8.0
78.1398 16.0
78.2235 11.0
78.3072 24.0
78.3909 16.0
78.4746 10.0
78.5583 15.0
78.642 15.0
78.7257 21.0
78.8094 13.0
78.8931 8.0
78.9768 8.0
79.0605 12.0
79.1442 13.0
79.228 18.0
79.3117 13.0
79.3954 13.0
79.4791 15.0
79.5628 9.0
79.6465 14.0
79.7302 13.0
79.8139 16.0
79.8976 19.0
79.9813 24.0
80.065 22.0
80.1487 19.0
80.2324 8.0
80.3161 9.0
80.3998 23.0
80.4835 17.0
80.5672 11.0
80.6509 12.0
80.7347 20.0
80.8184 20.0
80.9021 22.0
80.9858 19.0
81.0695 14.0
81.1532 9.0
81.2369 14.0
81.3206 13.0
81.4043 20.0
81.488 12.0
81.5717 20.0
81.6554 14.0
81.7391 21.0
81.8228 20.0
81.9065 25.0
81.9902 15.0
82.0739 19.0
82.1576 18.0
82.2414 12.0
82.3251 22.0
82.4088 19.0
82.4925 19.0
82.5762 9.0
82.6599 21.0
82.7436 8.0
82.8273 24.0
82.911 13.0
82.9947 10.0
83.0784 10.0
83.1621 25.0
83.2458 19.0
83.3295 15.0
83.4132 17.0
83.4969 6.0
83.5806 17.0
83.6643 21.0
83.7481 27.0
83.8318 24.0
83.9155 30.0
83.9992 23.0
84.0829 18.0
84.1666 35.0
84.2503 25.0
84.334 46.0
84.4177 43.0
84.5014 70.0
84.5851 81.0
84.6688 92.0
84.7525 106.0
84.8362 106.0
84.9199 86.0
85.0036 70.0
85.0873 55.0
85.171 34.0
85.2548 26.0
85.3385 20.0
85.4222 20.0
85.5059 31.0
85.5896 18.0
85.6733 10.0
85.757 18.0
85.8407 25.0
85.9244 57.0
86.0081 24.0
86.0918 27.0
86.1755 21.0
86.2592 19.0
86.3429 22.0
86.4266 12.0
86.5103 13.0
86.594 11.0
86.6777 23.0
86.7615 16.0
86.8452 18.0
86.9289 13.0
87.0126 16.0
87.0963 11.0
87.18 14.0
87.2637 8.0
87.3474 12.0
87.4311 19.0
87.5148 8.0
87.5985 8.0
87.6822 12.0
87.7659 10.0
87.8496 24.0
87.9333 15.0
88.017 14.0
88.1007 21.0
88.1844 12.0
88.2682 22.0
88.3519 23.0
88.4356 18.0
88.5193 19.0
88.603 9.0
88.6867 21.0
88.7704 16.0
88.8541 11.0
88.9378 19.0
89.0215 20.0
89.1052 24.0
89.1889 20.0
89.2726 14.0
89.3563 23.0
89.44 11.0
89.5237 16.0
89.6074 30.0
89.6911 12.0
89.7749 24.0
89.8586 18.0
89.9423 31.0
90.026 33.0
90.1097 43.0
90.1934 58.0
90.2771 61.0
90.3608 74.0
90.4445 120.0
90.5282 283.0
90.6119 2016.0
90.6956 4923.0
90.7793 505.0
90.863 534.0
90.9467 4255.0
91.0304 635.0
91.1141 129.0
91.1978 90.0
91.2816 57.0
91.3653 47.0
91.449 51.0
91.5327 25.0
91.6164 31.0
91.7001 28.0
91.7838 27.0
91.8675 22.0
91.9512 24.0
92.0349 27.0
92.1186 35.0
92.2023 28.0
92.286 20.0
92.3697 18.0
92.4534 27.0
92.5371 21.0
92.6208 19.0
92.7045 27.0
92.7883 23.0
92.872 18.0
92.9557 9.0
93.0394 24.0
93.1231 22.0
93.2068 17.0
93.2905 14.0
93.3742 17.0
93.4579 15.0
93.5416 11.0
93.6253 20.0
93.709 21.0
93.7927 14.0
93.8764 13.0
93.9601 20.0
94.0438 9.0
94.1275 15.0
94.2112 18.0
94.295 14.0
94.3787 8.0
94.4624 15.0
94.5461 13.0
94.6298 13.0
94.7135 9.0
94.7972 13.0
94.8809 16.0
94.9646 13.0
95.0483 20.0
95.132 9.0
95.2157 21.0
95.2994 9.0
95.3831 18.0
95.4668 13.0
95.5505 12.0
95.6342 11.0
95.7179 16.0
95.8017 22.0
95.8854 13.0
95.9691 20.0
96.0528 18.0
96.1365 8.0
96.2202 15.0
96.3039 15.0
96.3876 9.0
96.4713 10.0
96.555 15.0
96.6387 19.0
96.7224 11.0
96.8061 20.0
96.8898 14.0
96.9735 17.0
97.0572 16.0
97.1409 11.0
97.2246 16.0
97.3084 15.0
97.3921 11.0
97.4758 17.0
97.5595 12.0
97.6432 17.0
97.7269 29.0
97.8106 21.0
97.8943 13.0
97.978 19.0
98.0617 16.0
98.1454 14.0
98.2291 22.0
98.3128 15.0
98.3965 14.0
98.4802 13.0
98.5639 14.0
98.6476 16.0
98.7313 16.0
98.8151 10.0
98.8988 20.0
98.9825 25.0
99.0662 13.0
99.1499 22.0
99.2336 13.0
99.3173 18.0
99.401 12.0
99.4847 10.0
99.5684 13.0
99.6521 15.0
99.7358 10.0
99.8195 20.0
99.9032 18.0
99.9869 12.0
100.071 18.0
100.154 19.0
100.238 13.0
100.322 14.0
100.405 20.0
100.489 21.0
100.573 21.0
100.657 15.0
100.74 15.0
100.824 16.0
100.908 16.0
100.991 14.0
101.075 12.0
101.159 12.0
101.243 18.0
101.326 14.0
101.41 12.0
101.494 9.0
101.577 17.0
101.661 11.0
101.745 23.0
101.828 12.0
101.912 15.0
101.996 25.0
102.08 12.0
102.163 8.0
102.247 15.0
102.331 12.0
102.414 18.0
102.498 11.0
102.582 10.0
102.666 8.0
102.749 13.0
102.833 17.0
102.917 15.0
103 10.0
103.084 16.0
103.168 16.0
103.251 12.0
103.335 18.0
103.419 17.0
103.503 16.0
103.586 14.0
103.67 17.0
103.754 19.0
103.837 7.0
103.921 12.0
104.005 14.0
104.089 16.0
104.172 12.0
104.256 10.0
104.34 14.0
104.423 15.0
104.507 17.0
104.591 14.0
104.674 12.0
104.758 15.0
104.842 16.0
104.926 9.0
105.009 18.0
105.093 18.0
105.177 14.0
105.26 19.0
105.344 14.0
105.428 13.0
105.511 17.0
105.595 11.0
105.679 11.0
105.763 24.0
105.846 11.0
105.93 10.0
106.014 10.0
106.097 19.0
106.181 14.0
106.265 8.0
106.349 13.0
106.432 26.0
106.516 11.0
106.6 12.0
106.683 15.0
106.767 13.0
106.851 17.0
106.934 19.0
107.018 13.0
107.102 5.0
107.186 12.0
107.269 17.0
107.353 19.0
107.437 18.0
107.52 14.0
107.604 9.0
107.688 15.0
107.772 15.0
107.855 14.0
107.939 19.0
108.023 21.0
108.106 12.0
108.19 14.0
108.274 16.0
108.357 11.0
108.441 24.0
108.525 18.0
108.609 14.0
108.692 16.0
108.776 13.0
108.86 11.0
108.943 16.0
109.027 14.0
109.111 14.0
109.195 11.0
109.278 11.0
109.362 9.0
109.446 9.0
109.529 12.0
109.613 13.0
109.697 17.0
109.78 18.0
109.864 22.0
109.948 11.0
110.032 10.0
110.115 10.0
110.199 20.0
110.283 16.0
110.366 7.0
110.45 15.0
110.534 25.0
110.618 11.0
110.701 17.0
110.785 11.0
110.869 12.0
110.952 8.0
111.036 7.0
111.12 19.0
111.203 15.0
111.287 13.0
111.371 13.0
111.455 20.0
111.538 17.0
111.622 10.0
111.706 13.0
111.789 24.0
111.873 12.0
111.957 12.0
112.041 20.0
112.124 16.0
112.208 13.0
112.292 10.0
112.375 19.0
112.459 14.0
112.543 16.0
112.626 12.0
112.71 12.0
112.794 11.0
112.878 11.0
112.961 11.0
113.045 15.0
113.129 12.0
113.212 15.0
113.296 12.0
113.38 13.0
113.464 14.0
113.547 14.0
113.631 15.0
113.715 10.0
113.798 20.0
113.882 17.0
113.966 17.0
114.049 8.0
114.133 15.0
114.217 12.0
114.301 13.0
114.384 20.0
114.468 19.0
114.552 13.0
114.635 18.0
114.719 17.0
114.803 9.0
114.887 14.0
114.97 19.0
115.054 15.0
115.138 14.0
115.221 9.0
115.305 14.0
115.389 17.0
115.472 16.0
115.556 15.0
115.64 14.0
115.724 13.0
115.807 12.0
115.891 12.0
115.975 12.0
116.058 14.0
116.142 17.0
116.226 19.0
116.31 12.0
116.393 12.0
116.477 22.0
116.561 15.0
116.644 8.0
116.728 14.0
116.812 15.0
116.895 13.0
116.979 20.0
117.063 16.0
117.147 14.0
117.23 14.0
117.314 15.0
117.398 15.0
117.481 20.0
117.565 14.0
117.649 13.0
117.733 14.0
117.816 16.0
117.9 14.0
117.984 17.0
118.067 13.0
118.151 15.0
118.235 11.0
118.318 10.0
118.402 22.0
118.486 13.0
118.57 12.0
118.653 15.0
118.737 16.0
118.821 15.0
118.904 14.0
118.988 18.0
119.072 20.0
119.156 11.0
119.239 17.0
119.323 15.0
119.407 18.0
119.49 12.0
119.574 13.0
119.658 10.0
119.741 10.0
119.825 13.0
119.909 17.0
119.993 23.0
120.076 6.0
120.16 13.0
120.244 13.0
120.327 13.0
120.411 14.0
120.495 17.0
120.578 18.0
120.662 16.0
120.746 10.0
120.83 20.0
120.913 17.0
120.997 13.0
121.081 13.0
121.164 10.0
121.248 13.0
121.332 16.0
121.416 9.0
121.499 14.0
121.583 8.0
121.667 14.0
121.75 21.0
121.834 12.0
121.918 16.0
122.001 12.0
122.085 10.0
122.169 14.0
122.253 18.0
122.336 17.0
122.42 16.0
122.504 19.0
122.587 8.0
122.671 9.0
122.755 14.0
122.839 12.0
122.922 15.0
123.006 9.0
123.09 18.0
123.173 16.0
123.257 14.0
123.341 13.0
123.424 16.0
123.508 20.0
123.592 13.0
123.676 13.0
123.759 20.0
123.843 15.0
123.927 11.0
124.01 10.0
124.094 12.0
124.178 19.0
124.262 15.0
124.345 8.0
124.429 11.0
124.513 14.0
124.596 13.0
124.68 18.0
124.764 16.0
124.847 25.0
124.931 16.0
125.015 8.0
125.099 20.0
125.182 18.0
125.266 9.0
125.35 16.0
125.433 16.0
125.517 14.0
125.601 16.0
125.685 16.0
125.768 19.0
125.852 18.0
125.936 15.0
126.019 12.0
126.103 18.0
126.187 22.0
126.27 16.0
126.354 9.0
126.438 16.0
126.522 11.0
126.605 17.0
126.689 13.0
126.773 12.0
126.856 12.0
126.94 13.0
127.024 16.0
127.108 14.0
127.191 11.0
127.275 11.0
127.359 22.0
127.442 10.0
127.526 16.0
127.61 11.0
127.693 18.0
127.777 14.0
127.861 16.0
127.945 13.0
128.028 14.0
128.112 11.0
128.196 14.0
128.279 17.0
128.363 8.0
128.447 11.0
128.531 16.0
128.614 8.0
128.698 23.0
128.782 17.0
128.865 17.0
128.949 11.0
129.033 7.0
129.116 22.0
129.2 15.0
129.284 8.0
129.368 10.0
129.451 16.0
129.535 15.0
129.619 14.0
129.702 15.0
129.786 17.0
129.87 12.0
129.954 17.0
129.998 17.0