File: data/W6856c/XRD_Omega/W6856c_Cr2O3_scan_omega_2deg_step_0.002deg0_22.xy
18.80870 1037.0
18.81070 956.0
18.81270 1030.0
18.81470 1026.0
18.81670 1014.0
18.81870 991.0
18.82070 897.0
18.82270 1033.0
18.82470 943.0
18.82670 1087.0
18.82870 1043.0
18.83070 1031.0
18.83270 1054.0
18.83470 1007.0
18.83670 1000.0
18.83870 1046.0
18.84070 1048.0
18.84270 1069.0
18.84470 1081.0
18.84670 1108.0
18.84870 1083.0
18.85070 1054.0
18.85270 1039.0
18.85470 1070.0
18.85670 1059.0
18.85870 1122.0
18.86070 1065.0
18.86270 1047.0
18.86470 1067.0
18.86670 1093.0
18.86870 1151.0
18.87070 1145.0
18.87270 1109.0
18.87470 1136.0
18.87670 1085.0
18.87870 1088.0
18.88070 1119.0
18.88270 1119.0
18.88470 1102.0
18.88670 1139.0
18.88870 1163.0
18.89070 1159.0
18.89270 1174.0
18.89470 1138.0
18.89670 1148.0
18.89870 1160.0
18.90070 1174.0
18.90270 1142.0
18.90470 1164.0
18.90670 1131.0
18.90870 1169.0
18.91070 1190.0
18.91270 1175.0
18.91470 1168.0
18.91670 1158.0
18.91870 1128.0
18.92070 1205.0
18.92270 1165.0
18.92470 1147.0
18.92670 1227.0
18.92870 1153.0
18.93070 1234.0
18.93270 1154.0
18.93470 1219.0
18.93670 1158.0
18.93870 1241.0
18.94070 1147.0
18.94270 1263.0
18.94470 1193.0
18.94670 1172.0
18.94870 1233.0
18.95070 1246.0
18.95270 1228.0
18.95470 1289.0
18.95670 1224.0
18.95870 1236.0
18.96070 1203.0
18.96270 1236.0
18.96470 1244.0
18.96670 1268.0
18.96870 1199.0
18.97070 1247.0
18.97270 1306.0
18.97470 1332.0
18.97670 1250.0
18.97870 1314.0
18.98070 1285.0
18.98270 1314.0
18.98470 1230.0
18.98670 1309.0
18.98870 1363.0
18.99070 1284.0
18.99270 1338.0
18.99470 1283.0
18.99670 1290.0
18.99870 1285.0
19.00070 1342.0
19.00270 1353.0
19.00470 1356.0
19.00670 1323.0
19.00870 1315.0
19.01070 1386.0
19.01270 1392.0
19.01470 1387.0
19.01670 1457.0
19.01870 1432.0
19.02070 1414.0
19.02270 1379.0
19.02470 1403.0
19.02670 1347.0
19.02870 1393.0
19.03070 1448.0
19.03270 1440.0
19.03470 1372.0
19.03670 1434.0
19.03870 1462.0
19.04070 1491.0
19.04270 1369.0
19.04470 1425.0
19.04670 1430.0
19.04870 1446.0
19.05070 1466.0
19.05270 1467.0
19.05470 1430.0
19.05670 1436.0
19.05870 1458.0
19.06070 1435.0
19.06270 1431.0
19.06470 1505.0
19.06670 1582.0
19.06870 1517.0
19.07070 1525.0
19.07270 1535.0
19.07470 1570.0
19.07670 1515.0
19.07870 1513.0
19.08070 1563.0
19.08270 1611.0
19.08470 1529.0
19.08670 1613.0
19.08870 1649.0
19.09070 1542.0
19.09270 1602.0
19.09470 1555.0
19.09670 1537.0
19.09870 1566.0
19.10070 1609.0
19.10270 1654.0
19.10470 1607.0
19.10670 1683.0
19.10870 1616.0
19.11070 1630.0
19.11270 1694.0
19.11470 1678.0
19.11670 1659.0
19.11870 1700.0
19.12070 1644.0
19.12270 1688.0
19.12470 1608.0
19.12670 1647.0
19.12870 1711.0
19.13070 1704.0
19.13270 1647.0
19.13470 1763.0
19.13670 1691.0
19.13870 1684.0
19.14070 1698.0
19.14270 1696.0
19.14470 1723.0
19.14670 1821.0
19.14870 1716.0
19.15070 1752.0
19.15270 1785.0
19.15470 1804.0
19.15670 1742.0
19.15870 1795.0
19.16070 1753.0
19.16270 1705.0
19.16470 1837.0
19.16670 1761.0
19.16870 1773.0
19.17070 1792.0
19.17270 1806.0
19.17470 1834.0
19.17670 1837.0
19.17870 1868.0
19.18070 1941.0
19.18270 1900.0
19.18470 1819.0
19.18670 1958.0
19.18870 1847.0
19.19070 1914.0
19.19270 2018.0
19.19470 1890.0
19.19670 1863.0
19.19870 1966.0
19.20070 1999.0
19.20270 1967.0
19.20470 2029.0
19.20670 1976.0
19.20870 1967.0
19.21070 1881.0
19.21270 1952.0
19.21470 1920.0
19.21670 1967.0
19.21870 1924.0
19.22070 1987.0
19.22270 1927.0
19.22470 1971.0
19.22670 2033.0
19.22870 2034.0
19.23070 1983.0
19.23270 2010.0
19.23470 2040.0
19.23670 2118.0
19.23870 2219.0
19.24070 1989.0
19.24270 2028.0
19.24470 2092.0
19.24670 2009.0
19.24870 2097.0
19.25070 2029.0
19.25270 2134.0
19.25470 2137.0
19.25670 2111.0
19.25870 2192.0
19.26070 2185.0
19.26270 2102.0
19.26470 2217.0
19.26670 2196.0
19.26870 2203.0
19.27070 2159.0
19.27270 2186.0
19.27470 2110.0
19.27670 2180.0
19.27870 2133.0
19.28070 2227.0
19.28270 2248.0
19.28470 2241.0
19.28670 2185.0
19.28870 2243.0
19.29070 2204.0
19.29270 2183.0
19.29470 2324.0
19.29670 2208.0
19.29870 2372.0
19.30070 2336.0
19.30270 2375.0
19.30470 2129.0
19.30670 2334.0
19.30870 2238.0
19.31070 2273.0
19.31270 2349.0
19.31470 2397.0
19.31670 2430.0
19.31870 2331.0
19.32070 2371.0
19.32270 2332.0
19.32470 2424.0
19.32670 2390.0
19.32870 2438.0
19.33070 2406.0
19.33270 2322.0
19.33470 2381.0
19.33670 2436.0
19.33870 2448.0
19.34070 2475.0
19.34270 2473.0
19.34470 2497.0
19.34670 2376.0
19.34870 2373.0
19.35070 2449.0
19.35270 2511.0
19.35470 2522.0
19.35670 2519.0
19.35870 2571.0
19.36070 2491.0
19.36270 2517.0
19.36470 2489.0
19.36670 2617.0
19.36870 2532.0
19.37070 2548.0
19.37270 2596.0
19.37470 2613.0
19.37670 2604.0
19.37870 2609.0
19.38070 2589.0
19.38270 2596.0
19.38470 2704.0
19.38670 2675.0
19.38870 2615.0
19.39070 2611.0
19.39270 2752.0
19.39470 2659.0
19.39670 2680.0
19.39870 2764.0
19.40070 2623.0
19.40270 2772.0
19.40470 2767.0
19.40670 2823.0
19.40870 2713.0
19.41070 2734.0
19.41270 2890.0
19.41470 2679.0
19.41670 2771.0
19.41870 2781.0
19.42070 2788.0
19.42270 2791.0
19.42470 2891.0
19.42670 2917.0
19.42870 2854.0
19.43070 2856.0
19.43270 2820.0
19.43470 2900.0
19.43670 2836.0
19.43870 2902.0
19.44070 2880.0
19.44270 2919.0
19.44470 2766.0
19.44670 2835.0
19.44870 2863.0
19.45070 3028.0
19.45270 2988.0
19.45470 3062.0
19.45670 2951.0
19.45870 2922.0
19.46070 2975.0
19.46270 3011.0
19.46470 3004.0
19.46670 3070.0
19.46870 3052.0
19.47070 3016.0
19.47270 2944.0
19.47470 2970.0
19.47670 2932.0
19.47870 3003.0
19.48070 2969.0
19.48270 3131.0
19.48470 3046.0
19.48670 3150.0
19.48870 3042.0
19.49070 3098.0
19.49270 3109.0
19.49470 3163.0
19.49670 3138.0
19.49870 3180.0
19.50070 3028.0
19.50270 3165.0
19.50470 3237.0
19.50670 3200.0
19.50870 3249.0
19.51070 3352.0
19.51270 3180.0
19.51470 3138.0
19.51670 3268.0
19.51870 3187.0
19.52070 3235.0
19.52270 3169.0
19.52470 3183.0
19.52670 3166.0
19.52870 3366.0
19.53070 3298.0
19.53270 3281.0
19.53470 3220.0
19.53670 3330.0
19.53870 3236.0
19.54070 3344.0
19.54270 3370.0
19.54470 3305.0
19.54670 3276.0
19.54870 3425.0
19.55070 3314.0
19.55270 3386.0
19.55470 3278.0
19.55670 3385.0
19.55870 3426.0
19.56070 3389.0
19.56270 3500.0
19.56470 3320.0
19.56670 3451.0
19.56870 3374.0
19.57070 3424.0
19.57270 3393.0
19.57470 3362.0
19.57670 3429.0
19.57870 3454.0
19.58070 3456.0
19.58270 3434.0
19.58470 3427.0
19.58670 3525.0
19.58870 3497.0
19.59070 3515.0
19.59270 3484.0
19.59470 3631.0
19.59670 3461.0
19.59870 3578.0
19.60070 3575.0
19.60270 3657.0
19.60470 3476.0
19.60670 3520.0
19.60870 3599.0
19.61070 3603.0
19.61270 3562.0
19.61470 3568.0
19.61670 3559.0
19.61870 3619.0
19.62070 3595.0
19.62270 3620.0
19.62470 3628.0
19.62670 3754.0
19.62870 3691.0
19.63070 3647.0
19.63270 3505.0
19.63470 3629.0
19.63670 3536.0
19.63870 3727.0
19.64070 3542.0
19.64270 3677.0
19.64470 3662.0
19.64670 3695.0
19.64870 3671.0
19.65070 3759.0
19.65270 3758.0
19.65470 3659.0
19.65670 3818.0
19.65870 3669.0
19.66070 3725.0
19.66270 3944.0
19.66470 3798.0
19.66670 3800.0
19.66870 3914.0
19.67070 3808.0
19.67270 3809.0
19.67470 3757.0
19.67670 3825.0
19.67870 3846.0
19.68070 3665.0
19.68270 3853.0
19.68470 3845.0
19.68670 3848.0
19.68870 3791.0
19.69070 3889.0
19.69270 3872.0
19.69470 3844.0
19.69670 3751.0
19.69870 3936.0
19.70070 3836.0
19.70270 3841.0
19.70470 3812.0
19.70670 3973.0
19.70870 3930.0
19.71070 3936.0
19.71270 3907.0
19.71470 3782.0
19.71670 3910.0
19.71870 3787.0
19.72070 3908.0
19.72270 3908.0
19.72470 3889.0
19.72670 3991.0
19.72870 3996.0
19.73070 3961.0
19.73270 3872.0
19.73470 3935.0
19.73670 3937.0
19.73870 3946.0
19.74070 3975.0
19.74270 4018.0
19.74470 3996.0
19.74670 3906.0
19.74870 3918.0
19.75070 3967.0
19.75270 3923.0
19.75470 3902.0
19.75670 4055.0
19.75870 3878.0
19.76070 3923.0
19.76270 3988.0
19.76470 3889.0
19.76670 3911.0
19.76870 3868.0
19.77070 4015.0
19.77270 3991.0
19.77470 3984.0
19.77670 3861.0
19.77870 3974.0
19.78070 4008.0
19.78270 3886.0
19.78470 3965.0
19.78670 3920.0
19.78870 4015.0
19.79070 4000.0
19.79270 3912.0
19.79470 4021.0
19.79670 4053.0
19.79870 4039.0
19.80070 4027.0
19.80270 4053.0
19.80470 3951.0
19.80670 3824.0
19.80870 3933.0
19.81070 4003.0
19.81270 3915.0
19.81470 3937.0
19.81670 3940.0
19.81870 3923.0
19.82070 4014.0
19.82270 3998.0
19.82470 3932.0
19.82670 3944.0
19.82870 3924.0
19.83070 3976.0
19.83270 3964.0
19.83470 3942.0
19.83670 4029.0
19.83870 4074.0
19.84070 3889.0
19.84270 3996.0
19.84470 3944.0
19.84670 3997.0
19.84870 3999.0
19.85070 3898.0
19.85270 3983.0
19.85470 3935.0
19.85670 3876.0
19.85870 4034.0
19.86070 3870.0
19.86270 3833.0
19.86470 3944.0
19.86670 3879.0
19.86870 3838.0
19.87070 3882.0
19.87270 3934.0
19.87470 3868.0
19.87670 3953.0
19.87870 3940.0
19.88070 3976.0
19.88270 3964.0
19.88470 3945.0
19.88670 3894.0
19.88870 3835.0
19.89070 3823.0
19.89270 3954.0
19.89470 3871.0
19.89670 3877.0
19.89870 3850.0
19.90070 3781.0
19.90270 3777.0
19.90470 3797.0
19.90670 3740.0
19.90870 3805.0
19.91070 3819.0
19.91270 3762.0
19.91470 3701.0
19.91670 3648.0
19.91870 3915.0
19.92070 3779.0
19.92270 3709.0
19.92470 3781.0
19.92670 3815.0
19.92870 3760.0
19.93070 3641.0
19.93270 3676.0
19.93470 3582.0
19.93670 3684.0
19.93870 3825.0
19.94070 3695.0
19.94270 3590.0
19.94470 3731.0
19.94670 3649.0
19.94870 3740.0
19.95070 3649.0
19.95270 3488.0
19.95470 3476.0
19.95670 3463.0
19.95870 3638.0
19.96070 3601.0
19.96270 3548.0
19.96470 3489.0
19.96670 3646.0
19.96870 3560.0
19.97070 3622.0
19.97270 3554.0
19.97470 3576.0
19.97670 3683.0
19.97870 3603.0
19.98070 3541.0
19.98270 3517.0
19.98470 3479.0
19.98670 3434.0
19.98870 3434.0
19.99070 3425.0
19.99270 3539.0
19.99470 3519.0
19.99670 3357.0
19.99870 3473.0
20.00070 3422.0
20.00270 3319.0
20.00470 3439.0
20.00670 3470.0
20.00870 3336.0
20.01070 3387.0
20.01270 3323.0
20.01470 3440.0
20.01670 3308.0
20.01870 3302.0
20.02070 3217.0
20.02270 3238.0
20.02470 3199.0
20.02670 3289.0
20.02870 3376.0
20.03070 3217.0
20.03270 3238.0
20.03470 3411.0
20.03670 3269.0
20.03870 3222.0
20.04070 3218.0
20.04270 3155.0
20.04470 3190.0
20.04670 3165.0
20.04870 3229.0
20.05070 3172.0
20.05270 3113.0
20.05470 3157.0
20.05670 3295.0
20.05870 3089.0
20.06070 3169.0
20.06270 3043.0
20.06470 3023.0
20.06670 3098.0
20.06870 3044.0
20.07070 3019.0
20.07270 3031.0
20.07470 2955.0
20.07670 2991.0
20.07870 3040.0
20.08070 2957.0
20.08270 2990.0
20.08470 3010.0
20.08670 3041.0
20.08870 3031.0
20.09070 3004.0
20.09270 2978.0
20.09470 2992.0
20.09670 2977.0
20.09870 3000.0
20.10070 3024.0
20.10270 2916.0
20.10470 2854.0
20.10670 2872.0
20.10870 3006.0
20.11070 2930.0
20.11270 2884.0
20.11470 2873.0
20.11670 2818.0
20.11870 2814.0
20.12070 2835.0
20.12270 2908.0
20.12470 2770.0
20.12670 2794.0
20.12870 2779.0
20.13070 2861.0
20.13270 2848.0
20.13470 2856.0
20.13670 2750.0
20.13870 2813.0
20.14070 2802.0
20.14270 2747.0
20.14470 2730.0
20.14670 2700.0
20.14870 2674.0
20.15070 2799.0
20.15270 2588.0
20.15470 2731.0
20.15670 2677.0
20.15870 2648.0
20.16070 2648.0
20.16270 2680.0
20.16470 2638.0
20.16670 2638.0
20.16870 2669.0
20.17070 2569.0
20.17270 2659.0
20.17470 2625.0
20.17670 2606.0
20.17870 2574.0
20.18070 2676.0
20.18270 2532.0
20.18470 2574.0
20.18670 2611.0
20.18870 2534.0
20.19070 2600.0
20.19270 2508.0
20.19470 2493.0
20.19670 2475.0
20.19870 2455.0
20.20070 2535.0
20.20270 2409.0
20.20470 2484.0
20.20670 2537.0
20.20870 2438.0
20.21070 2377.0
20.21270 2417.0
20.21470 2411.0
20.21670 2474.0
20.21870 2450.0
20.22070 2490.0
20.22270 2478.0
20.22470 2369.0
20.22670 2277.0
20.22870 2384.0
20.23070 2437.0
20.23270 2385.0
20.23470 2283.0
20.23670 2351.0
20.23870 2312.0
20.24070 2338.0
20.24270 2335.0
20.24470 2350.0
20.24670 2237.0
20.24870 2245.0
20.25070 2190.0
20.25270 2322.0
20.25470 2314.0
20.25670 2222.0
20.25870 2261.0
20.26070 2232.0
20.26270 2142.0
20.26470 2245.0
20.26670 2307.0
20.26870 2207.0
20.27070 2159.0
20.27270 2219.0
20.27470 2207.0
20.27670 2191.0
20.27870 2173.0
20.28070 2254.0
20.28270 2182.0
20.28470 2201.0
20.28670 2137.0
20.28870 2119.0
20.29070 2043.0
20.29270 2154.0
20.29470 2176.0
20.29670 2078.0
20.29870 2164.0
20.30070 2111.0
20.30270 2204.0
20.30470 2038.0
20.30670 2272.0
20.30870 2011.0
20.31070 2059.0
20.31270 2077.0
20.31470 2145.0
20.31670 1991.0
20.31870 2034.0
20.32070 2052.0
20.32270 1940.0
20.32470 2081.0
20.32670 1972.0
20.32870 2066.0
20.33070 2007.0
20.33270 1983.0
20.33470 2055.0
20.33670 1916.0
20.33870 1991.0
20.34070 1918.0
20.34270 1984.0
20.34470 1963.0
20.34670 1947.0
20.34870 1975.0
20.35070 2006.0
20.35270 1973.0
20.35470 1899.0
20.35670 1933.0
20.35870 1940.0
20.36070 1914.0
20.36270 1831.0
20.36470 1956.0
20.36670 1774.0
20.36870 1895.0
20.37070 1842.0
20.37270 1834.0
20.37470 1877.0
20.37670 1809.0
20.37870 1913.0
20.38070 1875.0
20.38270 1860.0
20.38470 1887.0
20.38670 1924.0
20.38870 1794.0
20.39070 1881.0
20.39270 1884.0
20.39470 1754.0
20.39670 1814.0
20.39870 1859.0
20.40070 1829.0
20.40270 1807.0
20.40470 1716.0
20.40670 1648.0
20.40870 1752.0
20.41070 1731.0
20.41270 1758.0
20.41470 1807.0
20.41670 1696.0
20.41870 1708.0
20.42070 1702.0
20.42270 1695.0
20.42470 1788.0
20.42670 1714.0
20.42870 1736.0
20.43070 1681.0
20.43270 1690.0
20.43470 1715.0
20.43670 1758.0
20.43870 1617.0
20.44070 1556.0
20.44270 1645.0
20.44470 1627.0
20.44670 1613.0
20.44870 1564.0
20.45070 1539.0
20.45270 1526.0
20.45470 1410.0
20.45670 1385.0
20.45870 1494.0
20.46070 1466.0
20.46270 1419.0
20.46470 1414.0
20.46670 1504.0
20.46870 1481.0
20.47070 1471.0
20.47270 1389.0
20.47470 1498.0
20.47670 1371.0
20.47870 1438.0
20.48070 1336.0
20.48270 1308.0
20.48470 1340.0
20.48670 1358.0
20.48870 1356.0
20.49070 1393.0
20.49270 1342.0
20.49470 1369.0
20.49670 1312.0
20.49870 1366.0
20.50070 1410.0
20.50270 1353.0
20.50470 1348.0
20.50670 1354.0
20.50870 1289.0
20.51070 1354.0
20.51270 1248.0
20.51470 1315.0
20.51670 1266.0
20.51870 1269.0
20.52070 1227.0
20.52270 1317.0
20.52470 1347.0
20.52670 1301.0
20.52870 1304.0
20.53070 1221.0
20.53270 1297.0
20.53470 1244.0
20.53670 1186.0
20.53870 1191.0
20.54070 1243.0
20.54270 1218.0
20.54470 1212.0
20.54670 1231.0
20.54870 1207.0
20.55070 1228.0
20.55270 1210.0
20.55470 1190.0
20.55670 1190.0
20.55870 1186.0
20.56070 1229.0
20.56270 1186.0
20.56470 1161.0
20.56670 1172.0
20.56870 1122.0
20.57070 1140.0
20.57270 1200.0
20.57470 1119.0
20.57670 1157.0
20.57870 1128.0
20.58070 1123.0
20.58270 1130.0
20.58470 1125.0
20.58670 1166.0
20.58870 1144.0
20.59070 1125.0
20.59270 1184.0
20.59470 1146.0
20.59670 1130.0
20.59870 1136.0
20.60070 1117.0
20.60270 1079.0
20.60470 1115.0
20.60670 1078.0
20.60870 1086.0
20.61070 1083.0
20.61270 1060.0
20.61470 1115.0
20.61670 1105.0
20.61870 1057.0
20.62070 1026.0
20.62270 1073.0
20.62470 1063.0
20.62670 1087.0
20.62870 1028.0
20.63070 1072.0
20.63270 1054.0
20.63470 1043.0
20.63670 1035.0
20.63870 1009.0
20.64070 1033.0
20.64270 1002.0
20.64470 1012.0
20.64670 998.0
20.64870 1036.0
20.65070 979.0
20.65270 985.0
20.65470 1008.0
20.65670 1048.0
20.65870 1017.0
20.66070 990.0
20.66270 1003.0
20.66470 1020.0
20.66670 959.0
20.66870 995.0
20.67070 935.0
20.67270 961.0
20.67470 1013.0
20.67670 921.0
20.67870 937.0
20.68070 948.0
20.68270 923.0
20.68470 1045.0
20.68670 980.0
20.68870 964.0
20.69070 971.0
20.69270 922.0
20.69470 979.0
20.69670 933.0
20.69870 949.0
20.70070 945.0
20.70270 936.0
20.70470 980.0
20.70670 915.0
20.70870 973.0
20.71070 917.0
20.71270 829.0
20.71470 860.0
20.71670 933.0
20.71870 974.0
20.72070 918.0
20.72270 920.0
20.72470 920.0
20.72670 905.0
20.72870 881.0
20.73070 852.0
20.73270 872.0
20.73470 900.0
20.73670 857.0
20.73870 916.0
20.74070 898.0
20.74270 948.0
20.74470 861.0
20.74670 860.0
20.74870 885.0
20.75070 828.0
20.75270 899.0
20.75470 862.0
20.75670 871.0
20.75870 861.0
20.76070 870.0
20.76270 848.0
20.76470 820.0
20.76670 856.0
20.76870 812.0
20.77070 876.0
20.77270 873.0
20.77470 848.0
20.77670 813.0
20.77870 849.0
20.78070 871.0
20.78270 785.0
20.78470 840.0
20.78670 793.0
20.78870 842.0
20.79070 768.0
20.79270 838.0