File: data/W6901c/XRD_2ThetaOmega/scan_2th-om_c_Cr2O3_35-45deg_PIXscan_4min_C2.xy
35.0021 121.0
35.0119 130.0
35.0218 115.0
35.0316 103.0
35.0415 113.0
35.0513 116.0
35.0611 101.0
35.071 111.0
35.0808 108.0
35.0907 111.0
35.1005 87.0
35.1104 112.0
35.1202 110.0
35.1301 115.0
35.1399 108.0
35.1498 115.0
35.1596 115.0
35.1695 106.0
35.1793 107.0
35.1892 109.0
35.199 101.0
35.2089 120.0
35.2187 116.0
35.2286 103.0
35.2384 90.0
35.2483 122.0
35.2581 110.0
35.268 97.0
35.2778 95.0
35.2876 105.0
35.2975 98.0
35.3073 110.0
35.3172 118.0
35.327 88.0
35.3369 95.0
35.3467 104.0
35.3566 115.0
35.3664 109.0
35.3763 112.0
35.3861 99.0
35.396 93.0
35.4058 117.0
35.4157 112.0
35.4255 102.0
35.4354 116.0
35.4452 114.0
35.4551 104.0
35.4649 128.0
35.4748 118.0
35.4846 127.0
35.4944 106.0
35.5043 114.0
35.5141 110.0
35.524 106.0
35.5338 102.0
35.5437 88.0
35.5535 116.0
35.5634 117.0
35.5732 92.0
35.5831 120.0
35.5929 116.0
35.6028 118.0
35.6126 114.0
35.6225 108.0
35.6323 104.0
35.6422 96.0
35.652 106.0
35.6619 133.0
35.6717 98.0
35.6816 108.0
35.6914 127.0
35.7012 103.0
35.7111 91.0
35.7209 120.0
35.7308 125.0
35.7406 120.0
35.7505 107.0
35.7603 106.0
35.7702 100.0
35.78 108.0
35.7899 111.0
35.7997 86.0
35.8096 129.0
35.8194 106.0
35.8293 116.0
35.8391 101.0
35.849 102.0
35.8588 109.0
35.8687 101.0
35.8785 101.0
35.8884 113.0
35.8982 110.0
35.9081 134.0
35.9179 101.0
35.9277 114.0
35.9376 104.0
35.9474 126.0
35.9573 119.0
35.9671 119.0
35.977 107.0
35.9868 125.0
35.9967 128.0
36.0065 114.0
36.0164 113.0
36.0262 106.0
36.0361 115.0
36.0459 115.0
36.0558 91.0
36.0656 116.0
36.0755 102.0
36.0853 89.0
36.0952 98.0
36.105 86.0
36.1149 119.0
36.1247 110.0
36.1345 108.0
36.1444 102.0
36.1542 113.0
36.1641 106.0
36.1739 108.0
36.1838 103.0
36.1936 126.0
36.2035 95.0
36.2133 118.0
36.2232 120.0
36.233 110.0
36.2429 115.0
36.2527 108.0
36.2626 111.0
36.2724 104.0
36.2823 109.0
36.2921 114.0
36.302 89.0
36.3118 103.0
36.3217 122.0
36.3315 99.0
36.3414 111.0
36.3512 106.0
36.361 106.0
36.3709 118.0
36.3807 88.0
36.3906 109.0
36.4004 112.0
36.4103 114.0
36.4201 100.0
36.43 121.0
36.4398 105.0
36.4497 122.0
36.4595 122.0
36.4694 109.0
36.4792 113.0
36.4891 118.0
36.4989 113.0
36.5088 103.0
36.5186 85.0
36.5285 103.0
36.5383 128.0
36.5482 110.0
36.558 118.0
36.5678 116.0
36.5777 118.0
36.5875 108.0
36.5974 127.0
36.6072 116.0
36.6171 125.0
36.6269 118.0
36.6368 100.0
36.6466 98.0
36.6565 98.0
36.6663 102.0
36.6762 127.0
36.686 101.0
36.6959 119.0
36.7057 112.0
36.7156 102.0
36.7254 103.0
36.7353 97.0
36.7451 110.0
36.755 131.0
36.7648 91.0
36.7747 101.0
36.7845 118.0
36.7943 107.0
36.8042 109.0
36.814 124.0
36.8239 126.0
36.8337 121.0
36.8436 121.0
36.8534 104.0
36.8633 109.0
36.8731 107.0
36.883 111.0
36.8928 113.0
36.9027 118.0
36.9125 103.0
36.9224 106.0
36.9322 110.0
36.9421 106.0
36.9519 109.0
36.9618 119.0
36.9716 122.0
36.9815 119.0
36.9913 120.0
37.0011 112.0
37.011 115.0
37.0208 118.0
37.0307 111.0
37.0405 98.0
37.0504 111.0
37.0602 111.0
37.0701 102.0
37.0799 98.0
37.0898 103.0
37.0996 119.0
37.1095 98.0
37.1193 108.0
37.1292 127.0
37.139 117.0
37.1489 115.0
37.1587 130.0
37.1686 129.0
37.1784 119.0
37.1883 108.0
37.1981 115.0
37.2079 130.0
37.2178 98.0
37.2276 120.0
37.2375 134.0
37.2473 132.0
37.2572 121.0
37.267 110.0
37.2769 121.0
37.2867 132.0
37.2966 113.0
37.3064 116.0
37.3163 126.0
37.3261 147.0
37.336 108.0
37.3458 118.0
37.3557 131.0
37.3655 117.0
37.3754 144.0
37.3852 155.0
37.3951 167.0
37.4049 193.0
37.4148 281.0
37.4246 304.0
37.4344 319.0
37.4443 368.0
37.4541 321.0
37.464 303.0
37.4738 218.0
37.4837 173.0
37.4935 144.0
37.5034 144.0
37.5132 160.0
37.5231 138.0
37.5329 166.0
37.5428 136.0
37.5526 147.0
37.5625 137.0
37.5723 135.0
37.5822 143.0
37.592 116.0
37.6019 136.0
37.6117 143.0
37.6216 134.0
37.6314 146.0
37.6412 140.0
37.6511 120.0
37.6609 146.0
37.6708 144.0
37.6806 145.0
37.6905 154.0
37.7003 156.0
37.7102 126.0
37.72 161.0
37.7299 155.0
37.7397 151.0
37.7496 160.0
37.7594 162.0
37.7693 154.0
37.7791 184.0
37.789 173.0
37.7988 177.0
37.8087 176.0
37.8185 181.0
37.8284 178.0
37.8382 197.0
37.8481 211.0
37.8579 170.0
37.8677 160.0
37.8776 209.0
37.8874 218.0
37.8973 210.0
37.9071 226.0
37.917 202.0
37.9268 230.0
37.9367 212.0
37.9465 229.0
37.9564 219.0
37.9662 212.0
37.9761 245.0
37.9859 255.0
37.9958 280.0
38.0056 263.0
38.0155 224.0
38.0253 276.0
38.0352 293.0
38.045 276.0
38.0549 286.0
38.0647 275.0
38.0745 301.0
38.0844 295.0
38.0942 281.0
38.1041 244.0
38.1139 296.0
38.1238 309.0
38.1336 305.0
38.1435 287.0
38.1533 345.0
38.1632 357.0
38.173 337.0
38.1829 302.0
38.1927 310.0
38.2026 312.0
38.2124 321.0
38.2223 363.0
38.2321 338.0
38.242 346.0
38.2518 313.0
38.2617 357.0
38.2715 335.0
38.2814 330.0
38.2912 349.0
38.301 312.0
38.3109 322.0
38.3207 337.0
38.3306 334.0
38.3404 334.0
38.3503 316.0
38.3601 343.0
38.37 328.0
38.3798 309.0
38.3897 371.0
38.3995 320.0
38.4094 317.0
38.4192 318.0
38.4291 304.0
38.4389 372.0
38.4488 327.0
38.4586 324.0
38.4685 337.0
38.4783 335.0
38.4882 323.0
38.498 302.0
38.5078 320.0
38.5177 307.0
38.5275 288.0
38.5374 326.0
38.5472 294.0
38.5571 308.0
38.5669 299.0
38.5768 281.0
38.5866 286.0
38.5965 279.0
38.6063 288.0
38.6162 269.0
38.626 270.0
38.6359 235.0
38.6457 245.0
38.6556 232.0
38.6654 257.0
38.6753 220.0
38.6851 198.0
38.695 232.0
38.7048 233.0
38.7146 227.0
38.7245 222.0
38.7343 226.0
38.7442 218.0
38.754 209.0
38.7639 180.0
38.7737 227.0
38.7836 215.0
38.7934 164.0
38.8033 200.0
38.8131 185.0
38.823 194.0
38.8328 185.0
38.8427 186.0
38.8525 182.0
38.8624 177.0
38.8722 178.0
38.8821 183.0
38.8919 145.0
38.9018 176.0
38.9116 172.0
38.9215 169.0
38.9313 178.0
38.9411 157.0
38.951 148.0
38.9608 164.0
38.9707 174.0
38.9805 157.0
38.9904 148.0
39.0002 154.0
39.0101 133.0
39.0199 155.0
39.0298 161.0
39.0396 163.0
39.0495 147.0
39.0593 158.0
39.0692 133.0
39.079 142.0
39.0889 163.0
39.0987 158.0
39.1086 137.0
39.1184 164.0
39.1283 160.0
39.1381 149.0
39.1479 139.0
39.1578 144.0
39.1676 130.0
39.1775 128.0
39.1873 126.0
39.1972 142.0
39.207 125.0
39.2169 146.0
39.2267 132.0
39.2366 125.0
39.2464 126.0
39.2563 127.0
39.2661 124.0
39.276 129.0
39.2858 134.0
39.2957 122.0
39.3055 136.0
39.3154 138.0
39.3252 127.0
39.3351 137.0
39.3449 129.0
39.3548 131.0
39.3646 111.0
39.3744 113.0
39.3843 125.0
39.3941 139.0
39.404 112.0
39.4138 122.0
39.4237 126.0
39.4335 138.0
39.4434 141.0
39.4532 115.0
39.4631 130.0
39.4729 117.0
39.4828 123.0
39.4926 127.0
39.5025 140.0
39.5123 144.0
39.5222 109.0
39.532 139.0
39.5419 121.0
39.5517 129.0
39.5616 115.0
39.5714 129.0
39.5812 125.0
39.5911 120.0
39.6009 134.0
39.6108 113.0
39.6206 121.0
39.6305 110.0
39.6403 122.0
39.6502 121.0
39.66 124.0
39.6699 119.0
39.6797 134.0
39.6896 113.0
39.6994 121.0
39.7093 117.0
39.7191 113.0
39.729 128.0
39.7388 106.0
39.7487 112.0
39.7585 125.0
39.7684 136.0
39.7782 144.0
39.788 114.0
39.7979 121.0
39.8077 139.0
39.8176 133.0
39.8274 103.0
39.8373 128.0
39.8471 128.0
39.857 126.0
39.8668 111.0
39.8767 119.0
39.8865 151.0
39.8964 118.0
39.9062 138.0
39.9161 127.0
39.9259 136.0
39.9358 106.0
39.9456 130.0
39.9555 138.0
39.9653 136.0
39.9752 126.0
39.985 145.0
39.9949 123.0
40.0047 134.0
40.0145 131.0
40.0244 126.0
40.0342 133.0
40.0441 129.0
40.0539 140.0
40.0638 119.0
40.0736 127.0
40.0835 132.0
40.0933 120.0
40.1032 128.0
40.113 131.0
40.1229 127.0
40.1327 97.0
40.1426 115.0
40.1524 128.0
40.1623 122.0
40.1721 130.0
40.182 136.0
40.1918 104.0
40.2017 135.0
40.2115 126.0
40.2213 133.0
40.2312 134.0
40.241 120.0
40.2509 154.0
40.2607 133.0
40.2706 139.0
40.2804 123.0
40.2903 123.0
40.3001 128.0
40.31 140.0
40.3198 143.0
40.3297 108.0
40.3395 137.0
40.3494 118.0
40.3592 139.0
40.3691 131.0
40.3789 123.0
40.3888 127.0
40.3986 139.0
40.4085 135.0
40.4183 114.0
40.4282 126.0
40.438 133.0
40.4478 133.0
40.4577 141.0
40.4675 159.0
40.4774 141.0
40.4872 135.0
40.4971 150.0
40.5069 150.0
40.5168 137.0
40.5266 135.0
40.5365 139.0
40.5463 154.0
40.5562 153.0
40.566 135.0
40.5759 141.0
40.5857 152.0
40.5956 147.0
40.6054 115.0
40.6153 137.0
40.6251 132.0
40.635 140.0
40.6448 156.0
40.6546 115.0
40.6645 178.0
40.6743 132.0
40.6842 141.0
40.694 147.0
40.7039 151.0
40.7137 179.0
40.7236 165.0
40.7334 161.0
40.7433 152.0
40.7531 153.0
40.763 169.0
40.7728 153.0
40.7827 156.0
40.7925 135.0
40.8024 174.0
40.8122 188.0
40.8221 148.0
40.8319 191.0
40.8418 162.0
40.8516 192.0
40.8615 180.0
40.8713 160.0
40.8811 177.0
40.891 175.0
40.9008 165.0
40.9107 164.0
40.9205 171.0
40.9304 172.0
40.9402 184.0
40.9501 172.0
40.9599 189.0
40.9698 178.0
40.9796 172.0
40.9895 183.0
40.9993 175.0
41.0092 197.0
41.019 203.0
41.0289 198.0
41.0387 187.0
41.0486 206.0
41.0584 224.0
41.0683 191.0
41.0781 199.0
41.0879 191.0
41.0978 213.0
41.1076 192.0
41.1175 200.0
41.1273 260.0
41.1372 201.0
41.147 215.0
41.1569 229.0
41.1667 255.0
41.1766 204.0
41.1864 215.0
41.1963 227.0
41.2061 215.0
41.216 269.0
41.2258 275.0
41.2357 287.0
41.2455 316.0
41.2554 311.0
41.2652 317.0
41.2751 306.0
41.2849 300.0
41.2947 333.0
41.3046 322.0
41.3144 342.0
41.3243 381.0
41.3341 342.0
41.344 387.0
41.3538 400.0
41.3637 441.0
41.3735 492.0
41.3834 561.0
41.3932 666.0
41.4031 781.0
41.4129 819.0
41.4228 908.0
41.4326 997.0
41.4425 1027.0
41.4523 984.0
41.4622 1031.0
41.472 1043.0
41.4819 1038.0
41.4917 1034.0
41.5016 1230.0
41.5114 1240.0
41.5212 1530.0
41.5311 1852.0
41.5409 2428.0
41.5508 3208.0
41.5606 4785.0
41.5705 8234.0
41.5803 18679.0
41.5902 42464.0
41.6 60239.0
41.6099 66324.0
41.6197 68361.0
41.6296 66625.0
41.6394 53756.0
41.6493 27945.0
41.6591 13117.0
41.669 8240.0
41.6788 7707.0
41.6887 12127.0
41.6985 22536.0
41.7084 30807.0
41.7182 34499.0
41.728 34443.0
41.7379 32872.0
41.7477 26588.0
41.7576 14887.0
41.7674 7083.0
41.7773 3736.0
41.7871 2459.0
41.797 1821.0
41.8068 1505.0
41.8167 1206.0
41.8265 1116.0
41.8364 966.0
41.8462 871.0
41.8561 772.0
41.8659 671.0
41.8758 612.0
41.8856 608.0
41.8955 544.0
41.9053 501.0
41.9152 493.0
41.925 484.0
41.9349 487.0
41.9447 434.0
41.9545 453.0
41.9644 408.0
41.9742 360.0
41.9841 394.0
41.9939 337.0
42.0038 353.0
42.0136 343.0
42.0235 305.0
42.0333 289.0
42.0432 309.0
42.053 317.0
42.0629 285.0
42.0727 260.0
42.0826 292.0
42.0924 209.0
42.1023 286.0
42.1121 232.0
42.122 255.0
42.1318 208.0
42.1417 210.0
42.1515 220.0
42.1613 213.0
42.1712 225.0
42.181 214.0
42.1909 183.0
42.2007 193.0
42.2106 193.0
42.2204 198.0
42.2303 202.0
42.2401 183.0
42.25 176.0
42.2598 170.0
42.2697 181.0
42.2795 163.0
42.2894 170.0
42.2992 166.0
42.3091 186.0
42.3189 151.0
42.3288 168.0
42.3386 169.0
42.3485 177.0
42.3583 159.0
42.3682 158.0
42.378 169.0
42.3878 152.0
42.3977 177.0
42.4075 157.0
42.4174 160.0
42.4272 142.0
42.4371 164.0
42.4469 155.0
42.4568 145.0
42.4666 138.0
42.4765 141.0
42.4863 159.0
42.4962 146.0
42.506 137.0
42.5159 132.0
42.5257 156.0
42.5356 133.0
42.5454 146.0
42.5553 139.0
42.5651 136.0
42.575 154.0
42.5848 143.0
42.5946 133.0
42.6045 149.0
42.6143 150.0
42.6242 137.0
42.634 137.0
42.6439 157.0
42.6537 121.0
42.6636 139.0
42.6734 133.0
42.6833 116.0
42.6931 127.0
42.703 145.0
42.7128 152.0
42.7227 127.0
42.7325 129.0
42.7424 110.0
42.7522 134.0
42.7621 132.0
42.7719 101.0
42.7818 151.0
42.7916 120.0
42.8014 120.0
42.8113 134.0
42.8211 128.0
42.831 144.0
42.8408 132.0
42.8507 138.0
42.8605 120.0
42.8704 133.0
42.8802 160.0
42.8901 134.0
42.8999 132.0
42.9098 134.0
42.9196 135.0
42.9295 133.0
42.9393 151.0
42.9492 146.0
42.959 134.0
42.9689 109.0
42.9787 115.0
42.9886 152.0
42.9984 132.0
43.0083 125.0
43.0181 108.0
43.0279 134.0
43.0378 129.0
43.0476 131.0
43.0575 140.0
43.0673 142.0
43.0772 127.0
43.087 116.0
43.0969 122.0
43.1067 116.0
43.1166 147.0
43.1264 131.0
43.1363 128.0
43.1461 134.0
43.156 117.0
43.1658 119.0
43.1757 108.0
43.1855 128.0
43.1954 132.0
43.2052 128.0
43.2151 131.0
43.2249 154.0
43.2347 119.0
43.2446 124.0
43.2544 113.0
43.2643 151.0
43.2741 123.0
43.284 114.0
43.2938 110.0
43.3037 122.0
43.3135 131.0
43.3234 123.0
43.3332 134.0
43.3431 109.0
43.3529 129.0
43.3628 120.0
43.3726 131.0
43.3825 125.0
43.3923 121.0
43.4022 123.0
43.412 128.0
43.4219 131.0
43.4317 133.0
43.4416 125.0
43.4514 125.0
43.4612 119.0
43.4711 99.0
43.4809 101.0
43.4908 109.0
43.5006 130.0
43.5105 139.0
43.5203 132.0
43.5302 138.0
43.54 123.0
43.5499 113.0
43.5597 124.0
43.5696 134.0
43.5794 142.0
43.5893 128.0
43.5991 138.0
43.609 126.0
43.6188 148.0
43.6287 121.0
43.6385 118.0
43.6484 129.0
43.6582 130.0
43.668 101.0
43.6779 132.0
43.6877 140.0
43.6976 128.0
43.7074 136.0
43.7173 126.0
43.7271 124.0
43.737 114.0
43.7468 151.0
43.7567 114.0
43.7665 134.0
43.7764 122.0
43.7862 105.0
43.7961 124.0
43.8059 124.0
43.8158 110.0
43.8256 129.0
43.8355 143.0
43.8453 140.0
43.8552 122.0
43.865 128.0
43.8749 124.0
43.8847 119.0
43.8945 128.0
43.9044 136.0
43.9142 137.0
43.9241 145.0
43.9339 158.0
43.9438 135.0
43.9536 145.0
43.9635 144.0
43.9733 139.0
43.9832 149.0
43.993 132.0
44.0029 149.0
44.0127 147.0
44.0226 175.0
44.0324 135.0
44.0423 140.0
44.0521 135.0
44.062 165.0
44.0718 154.0
44.0817 166.0
44.0915 166.0
44.1013 152.0
44.1112 155.0
44.121 163.0
44.1309 143.0
44.1407 157.0
44.1506 147.0
44.1604 157.0
44.1703 170.0
44.1801 155.0
44.19 188.0
44.1998 175.0
44.2097 176.0
44.2195 183.0
44.2294 199.0
44.2392 163.0
44.2491 184.0
44.2589 166.0
44.2688 216.0
44.2786 202.0
44.2885 222.0
44.2983 203.0
44.3081 217.0
44.318 202.0
44.3278 231.0
44.3377 233.0
44.3475 239.0
44.3574 267.0
44.3672 295.0
44.3771 272.0
44.3869 272.0
44.3968 321.0
44.4066 303.0
44.4165 279.0
44.4263 299.0
44.4362 293.0
44.446 262.0
44.4559 265.0
44.4657 273.0
44.4756 256.0
44.4854 285.0
44.4953 232.0
44.5051 243.0
44.515 255.0
44.5248 236.0
44.5346 241.0
44.5445 235.0
44.5543 231.0
44.5642 195.0
44.574 200.0
44.5839 193.0
44.5937 231.0
44.6036 177.0
44.6134 183.0
44.6233 180.0
44.6331 174.0
44.643 170.0
44.6528 166.0
44.6627 160.0
44.6725 162.0
44.6824 126.0
44.6922 139.0
44.7021 137.0
44.7119 160.0
44.7218 137.0
44.7316 132.0
44.7414 134.0
44.7513 157.0
44.7611 129.0
44.771 140.0
44.7808 135.0
44.7907 122.0
44.8005 112.0
44.8104 140.0
44.8202 133.0
44.8301 152.0
44.8399 124.0
44.8498 139.0
44.8596 115.0
44.8695 119.0
44.8793 134.0
44.8892 134.0
44.899 136.0
44.9089 121.0
44.9187 134.0
44.9286 124.0
44.9384 113.0
44.9483 117.0
44.9581 117.0
44.9679 112.0
44.9778 113.0
44.9876 135.0
44.9975 114.0