File: data/W6905c/XRD_2ThetaOmega/scan_2th-om_c_Cr2O3_35-45deg_PIXscan_4min_C6.xy
35.0021 153.0
35.0119 122.0
35.0218 122.0
35.0316 133.0
35.0415 140.0
35.0513 137.0
35.0611 121.0
35.071 119.0
35.0808 122.0
35.0907 139.0
35.1005 130.0
35.1104 125.0
35.1202 134.0
35.1301 138.0
35.1399 135.0
35.1498 132.0
35.1596 136.0
35.1695 121.0
35.1793 135.0
35.1892 142.0
35.199 130.0
35.2089 148.0
35.2187 126.0
35.2286 137.0
35.2384 102.0
35.2483 125.0
35.2581 140.0
35.268 131.0
35.2778 145.0
35.2876 139.0
35.2975 118.0
35.3073 149.0
35.3172 159.0
35.327 135.0
35.3369 132.0
35.3467 142.0
35.3566 146.0
35.3664 137.0
35.3763 130.0
35.3861 132.0
35.396 126.0
35.4058 113.0
35.4157 126.0
35.4255 131.0
35.4354 149.0
35.4452 132.0
35.4551 131.0
35.4649 115.0
35.4748 128.0
35.4846 146.0
35.4944 125.0
35.5043 127.0
35.5141 127.0
35.524 130.0
35.5338 144.0
35.5437 132.0
35.5535 142.0
35.5634 128.0
35.5732 154.0
35.5831 146.0
35.5929 133.0
35.6028 117.0
35.6126 136.0
35.6225 117.0
35.6323 129.0
35.6422 145.0
35.652 138.0
35.6619 138.0
35.6717 133.0
35.6816 126.0
35.6914 141.0
35.7012 138.0
35.7111 111.0
35.7209 139.0
35.7308 128.0
35.7406 141.0
35.7505 129.0
35.7603 138.0
35.7702 142.0
35.78 151.0
35.7899 130.0
35.7997 128.0
35.8096 141.0
35.8194 151.0
35.8293 134.0
35.8391 140.0
35.849 127.0
35.8588 120.0
35.8687 133.0
35.8785 119.0
35.8884 129.0
35.8982 142.0
35.9081 133.0
35.9179 136.0
35.9277 139.0
35.9376 132.0
35.9474 130.0
35.9573 133.0
35.9671 140.0
35.977 122.0
35.9868 136.0
35.9967 144.0
36.0065 138.0
36.0164 140.0
36.0262 125.0
36.0361 134.0
36.0459 142.0
36.0558 124.0
36.0656 138.0
36.0755 137.0
36.0853 134.0
36.0952 134.0
36.105 146.0
36.1149 124.0
36.1247 138.0
36.1345 147.0
36.1444 138.0
36.1542 136.0
36.1641 144.0
36.1739 137.0
36.1838 150.0
36.1936 146.0
36.2035 129.0
36.2133 128.0
36.2232 139.0
36.233 112.0
36.2429 148.0
36.2527 118.0
36.2626 134.0
36.2724 143.0
36.2823 122.0
36.2921 117.0
36.302 137.0
36.3118 148.0
36.3217 114.0
36.3315 145.0
36.3414 131.0
36.3512 133.0
36.361 138.0
36.3709 133.0
36.3807 141.0
36.3906 141.0
36.4004 134.0
36.4103 138.0
36.4201 112.0
36.43 125.0
36.4398 126.0
36.4497 131.0
36.4595 145.0
36.4694 142.0
36.4792 127.0
36.4891 153.0
36.4989 113.0
36.5088 154.0
36.5186 131.0
36.5285 138.0
36.5383 112.0
36.5482 137.0
36.558 145.0
36.5678 173.0
36.5777 136.0
36.5875 152.0
36.5974 131.0
36.6072 134.0
36.6171 125.0
36.6269 116.0
36.6368 145.0
36.6466 146.0
36.6565 118.0
36.6663 124.0
36.6762 132.0
36.686 125.0
36.6959 140.0
36.7057 148.0
36.7156 134.0
36.7254 139.0
36.7353 129.0
36.7451 144.0
36.755 134.0
36.7648 137.0
36.7747 121.0
36.7845 131.0
36.7943 112.0
36.8042 120.0
36.814 128.0
36.8239 146.0
36.8337 136.0
36.8436 117.0
36.8534 120.0
36.8633 134.0
36.8731 142.0
36.883 137.0
36.8928 133.0
36.9027 132.0
36.9125 150.0
36.9224 140.0
36.9322 142.0
36.9421 131.0
36.9519 143.0
36.9618 142.0
36.9716 122.0
36.9815 132.0
36.9913 140.0
37.0011 141.0
37.011 133.0
37.0208 154.0
37.0307 133.0
37.0405 130.0
37.0504 144.0
37.0602 134.0
37.0701 134.0
37.0799 113.0
37.0898 143.0
37.0996 147.0
37.1095 164.0
37.1193 133.0
37.1292 145.0
37.139 164.0
37.1489 126.0
37.1587 126.0
37.1686 119.0
37.1784 134.0
37.1883 135.0
37.1981 150.0
37.2079 144.0
37.2178 147.0
37.2276 122.0
37.2375 151.0
37.2473 137.0
37.2572 123.0
37.267 142.0
37.2769 137.0
37.2867 117.0
37.2966 153.0
37.3064 141.0
37.3163 146.0
37.3261 129.0
37.336 160.0
37.3458 116.0
37.3557 155.0
37.3655 134.0
37.3754 144.0
37.3852 143.0
37.3951 148.0
37.4049 157.0
37.4148 199.0
37.4246 270.0
37.4344 305.0
37.4443 308.0
37.4541 325.0
37.464 315.0
37.4738 297.0
37.4837 209.0
37.4935 175.0
37.5034 155.0
37.5132 149.0
37.5231 155.0
37.5329 139.0
37.5428 169.0
37.5526 148.0
37.5625 141.0
37.5723 134.0
37.5822 136.0
37.592 149.0
37.6019 139.0
37.6117 150.0
37.6216 140.0
37.6314 139.0
37.6412 159.0
37.6511 140.0
37.6609 150.0
37.6708 137.0
37.6806 136.0
37.6905 125.0
37.7003 160.0
37.7102 141.0
37.72 132.0
37.7299 143.0
37.7397 141.0
37.7496 143.0
37.7594 161.0
37.7693 140.0
37.7791 140.0
37.789 148.0
37.7988 133.0
37.8087 146.0
37.8185 176.0
37.8284 137.0
37.8382 163.0
37.8481 140.0
37.8579 149.0
37.8677 143.0
37.8776 139.0
37.8874 164.0
37.8973 135.0
37.9071 136.0
37.917 145.0
37.9268 155.0
37.9367 137.0
37.9465 185.0
37.9564 171.0
37.9662 137.0
37.9761 145.0
37.9859 156.0
37.9958 153.0
38.0056 175.0
38.0155 147.0
38.0253 178.0
38.0352 163.0
38.045 152.0
38.0549 152.0
38.0647 175.0
38.0745 148.0
38.0844 157.0
38.0942 149.0
38.1041 151.0
38.1139 178.0
38.1238 176.0
38.1336 169.0
38.1435 187.0
38.1533 183.0
38.1632 176.0
38.173 164.0
38.1829 184.0
38.1927 194.0
38.2026 186.0
38.2124 166.0
38.2223 186.0
38.2321 176.0
38.242 189.0
38.2518 219.0
38.2617 173.0
38.2715 190.0
38.2814 210.0
38.2912 209.0
38.301 201.0
38.3109 195.0
38.3207 198.0
38.3306 216.0
38.3404 232.0
38.3503 223.0
38.3601 259.0
38.37 231.0
38.3798 241.0
38.3897 208.0
38.3995 274.0
38.4094 249.0
38.4192 255.0
38.4291 226.0
38.4389 248.0
38.4488 256.0
38.4586 246.0
38.4685 262.0
38.4783 290.0
38.4882 276.0
38.498 315.0
38.5078 275.0
38.5177 321.0
38.5275 303.0
38.5374 282.0
38.5472 304.0
38.5571 315.0
38.5669 311.0
38.5768 332.0
38.5866 355.0
38.5965 316.0
38.6063 333.0
38.6162 318.0
38.626 354.0
38.6359 354.0
38.6457 351.0
38.6556 339.0
38.6654 354.0
38.6753 344.0
38.6851 376.0
38.695 397.0
38.7048 371.0
38.7146 396.0
38.7245 419.0
38.7343 415.0
38.7442 395.0
38.754 414.0
38.7639 382.0
38.7737 435.0
38.7836 407.0
38.7934 444.0
38.8033 456.0
38.8131 457.0
38.823 502.0
38.8328 421.0
38.8427 484.0
38.8525 440.0
38.8624 495.0
38.8722 476.0
38.8821 474.0
38.8919 489.0
38.9018 551.0
38.9116 523.0
38.9215 543.0
38.9313 539.0
38.9411 555.0
38.951 559.0
38.9608 565.0
38.9707 572.0
38.9805 581.0
38.9904 574.0
39.0002 572.0
39.0101 637.0
39.0199 675.0
39.0298 675.0
39.0396 674.0
39.0495 681.0
39.0593 682.0
39.0692 733.0
39.079 778.0
39.0889 725.0
39.0987 813.0
39.1086 757.0
39.1184 803.0
39.1283 822.0
39.1381 849.0
39.1479 840.0
39.1578 887.0
39.1676 890.0
39.1775 954.0
39.1873 971.0
39.1972 962.0
39.207 980.0
39.2169 1017.0
39.2267 1081.0
39.2366 1063.0
39.2464 1037.0
39.2563 1080.0
39.2661 1086.0
39.276 1131.0
39.2858 1110.0
39.2957 1164.0
39.3055 1072.0
39.3154 1159.0
39.3252 1112.0
39.3351 1121.0
39.3449 1125.0
39.3548 1144.0
39.3646 1130.0
39.3744 1077.0
39.3843 1092.0
39.3941 1075.0
39.404 1062.0
39.4138 1042.0
39.4237 1085.0
39.4335 1044.0
39.4434 1017.0
39.4532 973.0
39.4631 906.0
39.4729 832.0
39.4828 907.0
39.4926 867.0
39.5025 781.0
39.5123 824.0
39.5222 790.0
39.532 739.0
39.5419 713.0
39.5517 676.0
39.5616 586.0
39.5714 602.0
39.5812 641.0
39.5911 573.0
39.6009 510.0
39.6108 519.0
39.6206 502.0
39.6305 489.0
39.6403 476.0
39.6502 411.0
39.66 420.0
39.6699 428.0
39.6797 426.0
39.6896 353.0
39.6994 318.0
39.7093 379.0
39.7191 361.0
39.729 300.0
39.7388 332.0
39.7487 303.0
39.7585 286.0
39.7684 276.0
39.7782 268.0
39.788 305.0
39.7979 276.0
39.8077 276.0
39.8176 243.0
39.8274 238.0
39.8373 243.0
39.8471 271.0
39.857 246.0
39.8668 234.0
39.8767 187.0
39.8865 194.0
39.8964 237.0
39.9062 197.0
39.9161 170.0
39.9259 203.0
39.9358 200.0
39.9456 199.0
39.9555 187.0
39.9653 174.0
39.9752 204.0
39.985 188.0
39.9949 175.0
40.0047 200.0
40.0145 178.0
40.0244 194.0
40.0342 160.0
40.0441 176.0
40.0539 186.0
40.0638 174.0
40.0736 158.0
40.0835 188.0
40.0933 182.0
40.1032 174.0
40.113 149.0
40.1229 175.0
40.1327 153.0
40.1426 182.0
40.1524 176.0
40.1623 160.0
40.1721 160.0
40.182 151.0
40.1918 163.0
40.2017 174.0
40.2115 156.0
40.2213 160.0
40.2312 153.0
40.241 153.0
40.2509 140.0
40.2607 163.0
40.2706 173.0
40.2804 160.0
40.2903 160.0
40.3001 152.0
40.31 164.0
40.3198 161.0
40.3297 168.0
40.3395 169.0
40.3494 171.0
40.3592 137.0
40.3691 167.0
40.3789 159.0
40.3888 161.0
40.3986 154.0
40.4085 155.0
40.4183 146.0
40.4282 158.0
40.438 177.0
40.4478 147.0
40.4577 170.0
40.4675 153.0
40.4774 160.0
40.4872 148.0
40.4971 172.0
40.5069 140.0
40.5168 139.0
40.5266 161.0
40.5365 135.0
40.5463 149.0
40.5562 151.0
40.566 178.0
40.5759 170.0
40.5857 162.0
40.5956 153.0
40.6054 168.0
40.6153 181.0
40.6251 173.0
40.635 175.0
40.6448 160.0
40.6546 153.0
40.6645 185.0
40.6743 161.0
40.6842 159.0
40.694 147.0
40.7039 186.0
40.7137 185.0
40.7236 179.0
40.7334 181.0
40.7433 179.0
40.7531 189.0
40.763 187.0
40.7728 163.0
40.7827 169.0
40.7925 177.0
40.8024 172.0
40.8122 151.0
40.8221 183.0
40.8319 185.0
40.8418 198.0
40.8516 177.0
40.8615 173.0
40.8713 170.0
40.8811 209.0
40.891 187.0
40.9008 203.0
40.9107 178.0
40.9205 193.0
40.9304 211.0
40.9402 172.0
40.9501 177.0
40.9599 195.0
40.9698 195.0
40.9796 189.0
40.9895 178.0
40.9993 172.0
41.0092 185.0
41.019 186.0
41.0289 172.0
41.0387 223.0
41.0486 227.0
41.0584 203.0
41.0683 197.0
41.0781 186.0
41.0879 217.0
41.0978 225.0
41.1076 189.0
41.1175 200.0
41.1273 211.0
41.1372 215.0
41.147 216.0
41.1569 202.0
41.1667 189.0
41.1766 230.0
41.1864 261.0
41.1963 260.0
41.2061 209.0
41.216 270.0
41.2258 266.0
41.2357 288.0
41.2455 311.0
41.2554 311.0
41.2652 305.0
41.2751 310.0
41.2849 313.0
41.2947 275.0
41.3046 321.0
41.3144 293.0
41.3243 312.0
41.3341 344.0
41.344 362.0
41.3538 342.0
41.3637 393.0
41.3735 400.0
41.3834 457.0
41.3932 554.0
41.4031 595.0
41.4129 693.0
41.4228 768.0
41.4326 819.0
41.4425 863.0
41.4523 904.0
41.4622 872.0
41.472 909.0
41.4819 940.0
41.4917 913.0
41.5016 968.0
41.5114 1002.0
41.5212 1116.0
41.5311 1347.0
41.5409 1694.0
41.5508 2187.0
41.5606 2961.0
41.5705 4429.0
41.5803 8172.0
41.5902 19156.0
41.6 39811.0
41.6099 52043.0
41.6197 57319.0
41.6296 57811.0
41.6394 54722.0
41.6493 41782.0
41.6591 20596.0
41.669 9914.0
41.6788 6680.0
41.6887 6754.0
41.6985 11581.0
41.7084 20787.0
41.7182 26516.0
41.728 28978.0
41.7379 29224.0
41.7477 26933.0
41.7576 20529.0
41.7674 10852.0
41.7773 5273.0
41.7871 2936.0
41.797 1990.0
41.8068 1530.0
41.8167 1289.0
41.8265 1122.0
41.8364 867.0
41.8462 798.0
41.8561 721.0
41.8659 623.0
41.8758 625.0
41.8856 609.0
41.8955 543.0
41.9053 507.0
41.9152 473.0
41.925 489.0
41.9349 440.0
41.9447 403.0
41.9545 463.0
41.9644 352.0
41.9742 358.0
41.9841 354.0
41.9939 362.0
42.0038 314.0
42.0136 348.0
42.0235 328.0
42.0333 307.0
42.0432 302.0
42.053 281.0
42.0629 306.0
42.0727 256.0
42.0826 276.0
42.0924 299.0
42.1023 256.0
42.1121 260.0
42.122 233.0
42.1318 222.0
42.1417 264.0
42.1515 204.0
42.1613 223.0
42.1712 216.0
42.181 207.0
42.1909 215.0
42.2007 196.0
42.2106 203.0
42.2204 189.0
42.2303 202.0
42.2401 196.0
42.25 184.0
42.2598 190.0
42.2697 189.0
42.2795 168.0
42.2894 198.0
42.2992 173.0
42.3091 177.0
42.3189 188.0
42.3288 167.0
42.3386 175.0
42.3485 168.0
42.3583 168.0
42.3682 183.0
42.378 189.0
42.3878 161.0
42.3977 160.0
42.4075 167.0
42.4174 188.0
42.4272 155.0
42.4371 170.0
42.4469 158.0
42.4568 150.0
42.4666 186.0
42.4765 156.0
42.4863 157.0
42.4962 142.0
42.506 149.0
42.5159 161.0
42.5257 167.0
42.5356 146.0
42.5454 178.0
42.5553 129.0
42.5651 164.0
42.575 147.0
42.5848 157.0
42.5946 166.0
42.6045 150.0
42.6143 139.0
42.6242 164.0
42.634 167.0
42.6439 153.0
42.6537 162.0
42.6636 164.0
42.6734 149.0
42.6833 153.0
42.6931 144.0
42.703 154.0
42.7128 157.0
42.7227 136.0
42.7325 154.0
42.7424 162.0
42.7522 151.0
42.7621 134.0
42.7719 152.0
42.7818 139.0
42.7916 153.0
42.8014 145.0
42.8113 146.0
42.8211 142.0
42.831 141.0
42.8408 154.0
42.8507 143.0
42.8605 141.0
42.8704 149.0
42.8802 159.0
42.8901 140.0
42.8999 146.0
42.9098 167.0
42.9196 146.0
42.9295 148.0
42.9393 152.0
42.9492 140.0
42.959 156.0
42.9689 131.0
42.9787 133.0
42.9886 132.0
42.9984 138.0
43.0083 125.0
43.0181 146.0
43.0279 136.0
43.0378 141.0
43.0476 130.0
43.0575 133.0
43.0673 143.0
43.0772 133.0
43.087 136.0
43.0969 141.0
43.1067 125.0
43.1166 131.0
43.1264 135.0
43.1363 135.0
43.1461 135.0
43.156 134.0
43.1658 167.0
43.1757 142.0
43.1855 137.0
43.1954 134.0
43.2052 148.0
43.2151 143.0
43.2249 135.0
43.2347 125.0
43.2446 121.0
43.2544 147.0
43.2643 113.0
43.2741 148.0
43.284 143.0
43.2938 140.0
43.3037 141.0
43.3135 143.0
43.3234 149.0
43.3332 149.0
43.3431 147.0
43.3529 127.0
43.3628 148.0
43.3726 134.0
43.3825 155.0
43.3923 156.0
43.4022 128.0
43.412 155.0
43.4219 153.0
43.4317 133.0
43.4416 144.0
43.4514 137.0
43.4612 152.0
43.4711 152.0
43.4809 157.0
43.4908 135.0
43.5006 141.0
43.5105 155.0
43.5203 139.0
43.5302 143.0
43.54 146.0
43.5499 127.0
43.5597 127.0
43.5696 147.0
43.5794 128.0
43.5893 154.0
43.5991 139.0
43.609 152.0
43.6188 156.0
43.6287 148.0
43.6385 134.0
43.6484 123.0
43.6582 128.0
43.668 144.0
43.6779 143.0
43.6877 146.0
43.6976 166.0
43.7074 155.0
43.7173 151.0
43.7271 149.0
43.737 130.0
43.7468 128.0
43.7567 149.0
43.7665 151.0
43.7764 151.0
43.7862 147.0
43.7961 138.0
43.8059 170.0
43.8158 150.0
43.8256 170.0
43.8355 132.0
43.8453 170.0
43.8552 144.0
43.865 148.0
43.8749 153.0
43.8847 157.0
43.8945 165.0
43.9044 147.0
43.9142 150.0
43.9241 185.0
43.9339 175.0
43.9438 157.0
43.9536 173.0
43.9635 160.0
43.9733 161.0
43.9832 173.0
43.993 161.0
44.0029 162.0
44.0127 172.0
44.0226 181.0
44.0324 152.0
44.0423 153.0
44.0521 167.0
44.062 189.0
44.0718 166.0
44.0817 174.0
44.0915 160.0
44.1013 166.0
44.1112 166.0
44.121 187.0
44.1309 154.0
44.1407 203.0
44.1506 159.0
44.1604 166.0
44.1703 177.0
44.1801 190.0
44.19 199.0
44.1998 186.0
44.2097 188.0
44.2195 189.0
44.2294 222.0
44.2392 194.0
44.2491 215.0
44.2589 217.0
44.2688 234.0
44.2786 223.0
44.2885 242.0
44.2983 248.0
44.3081 243.0
44.318 267.0
44.3278 261.0
44.3377 285.0
44.3475 297.0
44.3574 270.0
44.3672 274.0
44.3771 285.0
44.3869 300.0
44.3968 320.0
44.4066 319.0
44.4165 314.0
44.4263 303.0
44.4362 305.0
44.446 318.0
44.4559 330.0
44.4657 286.0
44.4756 328.0
44.4854 278.0
44.4953 296.0
44.5051 318.0
44.515 260.0
44.5248 256.0
44.5346 277.0
44.5445 273.0
44.5543 244.0
44.5642 264.0
44.574 242.0
44.5839 228.0
44.5937 220.0
44.6036 216.0
44.6134 204.0
44.6233 202.0
44.6331 206.0
44.643 225.0
44.6528 176.0
44.6627 179.0
44.6725 165.0
44.6824 183.0
44.6922 182.0
44.7021 167.0
44.7119 193.0
44.7218 168.0
44.7316 168.0
44.7414 162.0
44.7513 159.0
44.7611 161.0
44.771 151.0
44.7808 188.0
44.7907 164.0
44.8005 147.0
44.8104 146.0
44.8202 124.0
44.8301 162.0
44.8399 122.0
44.8498 142.0
44.8596 153.0
44.8695 156.0
44.8793 147.0
44.8892 145.0
44.899 155.0
44.9089 163.0
44.9187 133.0
44.9286 143.0
44.9384 142.0
44.9483 136.0
44.9581 147.0
44.9679 137.0
44.9778 160.0
44.9876 145.0
44.9975 128.0