File: data/w6929m/XRD_2ThetaOmega/29m_scan_2th-om_m_Cr2O3_55-75deg_PIXscan_4min_2.xy
55.0019 53.0
55.0166 63.0
55.0314 59.0
55.0462 46.0
55.0609 59.0
55.0757 42.0
55.0905 49.0
55.1053 69.0
55.12 63.0
55.1348 55.0
55.1496 53.0
55.1643 51.0
55.1791 52.0
55.1939 54.0
55.2087 63.0
55.2234 39.0
55.2382 54.0
55.253 58.0
55.2678 61.0
55.2825 62.0
55.2973 48.0
55.3121 58.0
55.3268 61.0
55.3416 73.0
55.3564 60.0
55.3712 65.0
55.3859 37.0
55.4007 52.0
55.4155 63.0
55.4302 41.0
55.445 58.0
55.4598 66.0
55.4746 49.0
55.4893 48.0
55.5041 59.0
55.5189 46.0
55.5336 51.0
55.5484 52.0
55.5632 70.0
55.578 56.0
55.5927 62.0
55.6075 61.0
55.6223 64.0
55.637 58.0
55.6518 56.0
55.6666 60.0
55.6814 51.0
55.6961 55.0
55.7109 62.0
55.7257 64.0
55.7404 40.0
55.7552 53.0
55.77 61.0
55.7848 58.0
55.7995 59.0
55.8143 61.0
55.8291 53.0
55.8438 65.0
55.8586 68.0
55.8734 61.0
55.8882 44.0
55.9029 56.0
55.9177 54.0
55.9325 63.0
55.9472 45.0
55.962 56.0
55.9768 59.0
55.9916 49.0
56.0063 55.0
56.0211 54.0
56.0359 79.0
56.0506 57.0
56.0654 63.0
56.0802 59.0
56.095 55.0
56.1097 58.0
56.1245 48.0
56.1393 47.0
56.154 63.0
56.1688 53.0
56.1836 40.0
56.1984 67.0
56.2131 44.0
56.2279 58.0
56.2427 58.0
56.2574 65.0
56.2722 52.0
56.287 54.0
56.3018 51.0
56.3165 69.0
56.3313 62.0
56.3461 58.0
56.3608 51.0
56.3756 61.0
56.3904 64.0
56.4052 75.0
56.4199 64.0
56.4347 46.0
56.4495 74.0
56.4642 46.0
56.479 54.0
56.4938 73.0
56.5086 55.0
56.5233 50.0
56.5381 64.0
56.5529 56.0
56.5676 63.0
56.5824 45.0
56.5972 71.0
56.612 44.0
56.6267 73.0
56.6415 66.0
56.6563 60.0
56.671 57.0
56.6858 65.0
56.7006 72.0
56.7154 51.0
56.7301 65.0
56.7449 50.0
56.7597 46.0
56.7745 67.0
56.7892 55.0
56.804 45.0
56.8188 56.0
56.8335 51.0
56.8483 71.0
56.8631 46.0
56.8779 47.0
56.8926 65.0
56.9074 58.0
56.9222 62.0
56.9369 55.0
56.9517 45.0
56.9665 62.0
56.9813 61.0
56.996 51.0
57.0108 72.0
57.0256 41.0
57.0403 46.0
57.0551 48.0
57.0699 51.0
57.0847 58.0
57.0994 56.0
57.1142 48.0
57.129 52.0
57.1437 53.0
57.1585 56.0
57.1733 60.0
57.1881 62.0
57.2028 54.0
57.2176 60.0
57.2324 41.0
57.2471 41.0
57.2619 65.0
57.2767 70.0
57.2915 61.0
57.3062 58.0
57.321 54.0
57.3358 53.0
57.3505 47.0
57.3653 44.0
57.3801 46.0
57.3949 66.0
57.4096 62.0
57.4244 60.0
57.4392 60.0
57.4539 53.0
57.4687 62.0
57.4835 65.0
57.4983 72.0
57.513 67.0
57.5278 58.0
57.5426 68.0
57.5573 48.0
57.5721 53.0
57.5869 47.0
57.6017 69.0
57.6164 61.0
57.6312 61.0
57.646 65.0
57.6607 59.0
57.6755 61.0
57.6903 49.0
57.7051 46.0
57.7198 49.0
57.7346 65.0
57.7494 48.0
57.7641 63.0
57.7789 61.0
57.7937 55.0
57.8085 59.0
57.8232 56.0
57.838 62.0
57.8528 75.0
57.8675 58.0
57.8823 57.0
57.8971 69.0
57.9119 48.0
57.9266 68.0
57.9414 80.0
57.9562 58.0
57.9709 65.0
57.9857 69.0
58.0005 79.0
58.0153 61.0
58.03 67.0
58.0448 77.0
58.0596 69.0
58.0743 69.0
58.0891 66.0
58.1039 68.0
58.1187 72.0
58.1334 59.0
58.1482 68.0
58.163 52.0
58.1777 67.0
58.1925 62.0
58.2073 58.0
58.2221 55.0
58.2368 51.0
58.2516 59.0
58.2664 61.0
58.2812 51.0
58.2959 56.0
58.3107 52.0
58.3255 64.0
58.3402 60.0
58.355 57.0
58.3698 50.0
58.3846 51.0
58.3993 53.0
58.4141 50.0
58.4289 53.0
58.4436 52.0
58.4584 70.0
58.4732 63.0
58.488 53.0
58.5027 63.0
58.5175 49.0
58.5323 53.0
58.547 54.0
58.5618 58.0
58.5766 62.0
58.5914 56.0
58.6061 56.0
58.6209 45.0
58.6357 55.0
58.6504 53.0
58.6652 51.0
58.68 64.0
58.6948 43.0
58.7095 61.0
58.7243 50.0
58.7391 48.0
58.7538 62.0
58.7686 53.0
58.7834 70.0
58.7982 64.0
58.8129 61.0
58.8277 63.0
58.8425 57.0
58.8572 51.0
58.872 63.0
58.8868 39.0
58.9016 44.0
58.9163 49.0
58.9311 63.0
58.9459 64.0
58.9606 54.0
58.9754 64.0
58.9902 49.0
59.005 55.0
59.0197 74.0
59.0345 67.0
59.0493 56.0
59.064 60.0
59.0788 74.0
59.0936 61.0
59.1084 66.0
59.1231 58.0
59.1379 62.0
59.1527 52.0
59.1674 54.0
59.1822 57.0
59.197 61.0
59.2118 62.0
59.2265 58.0
59.2413 64.0
59.2561 48.0
59.2708 52.0
59.2856 59.0
59.3004 65.0
59.3152 65.0
59.3299 58.0
59.3447 59.0
59.3595 60.0
59.3742 60.0
59.389 49.0
59.4038 60.0
59.4186 47.0
59.4333 59.0
59.4481 66.0
59.4629 68.0
59.4776 55.0
59.4924 60.0
59.5072 53.0
59.522 56.0
59.5367 65.0
59.5515 51.0
59.5663 59.0
59.581 56.0
59.5958 65.0
59.6106 56.0
59.6254 66.0
59.6401 57.0
59.6549 60.0
59.6697 79.0
59.6844 57.0
59.6992 74.0
59.714 63.0
59.7288 71.0
59.7435 76.0
59.7583 58.0
59.7731 64.0
59.7878 49.0
59.8026 57.0
59.8174 43.0
59.8322 54.0
59.8469 63.0
59.8617 58.0
59.8765 57.0
59.8913 77.0
59.906 46.0
59.9208 64.0
59.9356 51.0
59.9503 56.0
59.9651 61.0
59.9799 53.0
59.9947 47.0
60.0094 44.0
60.0242 56.0
60.039 63.0
60.0537 48.0
60.0685 59.0
60.0833 44.0
60.0981 58.0
60.1128 54.0
60.1276 54.0
60.1424 66.0
60.1571 77.0
60.1719 59.0
60.1867 62.0
60.2015 60.0
60.2162 47.0
60.231 69.0
60.2458 55.0
60.2605 55.0
60.2753 54.0
60.2901 56.0
60.3049 64.0
60.3196 62.0
60.3344 69.0
60.3492 47.0
60.3639 50.0
60.3787 56.0
60.3935 56.0
60.4083 46.0
60.423 47.0
60.4378 63.0
60.4526 69.0
60.4673 62.0
60.4821 85.0
60.4969 61.0
60.5117 61.0
60.5264 76.0
60.5412 54.0
60.556 65.0
60.5707 60.0
60.5855 72.0
60.6003 57.0
60.6151 65.0
60.6298 68.0
60.6446 75.0
60.6594 50.0
60.6741 73.0
60.6889 69.0
60.7037 68.0
60.7185 80.0
60.7332 85.0
60.748 94.0
60.7628 111.0
60.7775 129.0
60.7923 162.0
60.8071 277.0
60.8219 490.0
60.8366 672.0
60.8514 732.0
60.8662 596.0
60.8809 379.0
60.8957 297.0
60.9105 317.0
60.9253 287.0
60.94 273.0
60.9548 192.0
60.9696 152.0
60.9843 120.0
60.9991 95.0
61.0139 114.0
61.0287 87.0
61.0434 83.0
61.0582 86.0
61.073 77.0
61.0877 84.0
61.1025 84.0
61.1173 74.0
61.1321 63.0
61.1468 68.0
61.1616 66.0
61.1764 61.0
61.1911 68.0
61.2059 70.0
61.2207 53.0
61.2355 88.0
61.2502 64.0
61.265 69.0
61.2798 67.0
61.2945 70.0
61.3093 67.0
61.3241 73.0
61.3389 80.0
61.3536 57.0
61.3684 62.0
61.3832 80.0
61.398 43.0
61.4127 59.0
61.4275 72.0
61.4423 56.0
61.457 72.0
61.4718 53.0
61.4866 72.0
61.5014 74.0
61.5161 70.0
61.5309 63.0
61.5457 62.0
61.5604 59.0
61.5752 60.0
61.59 72.0
61.6048 72.0
61.6195 63.0
61.6343 59.0
61.6491 78.0
61.6638 71.0
61.6786 58.0
61.6934 71.0
61.7082 60.0
61.7229 73.0
61.7377 64.0
61.7525 61.0
61.7672 68.0
61.782 66.0
61.7968 65.0
61.8116 62.0
61.8263 70.0
61.8411 62.0
61.8559 69.0
61.8706 66.0
61.8854 61.0
61.9002 68.0
61.915 57.0
61.9297 58.0
61.9445 61.0
61.9593 68.0
61.974 70.0
61.9888 76.0
62.0036 60.0
62.0184 62.0
62.0331 57.0
62.0479 67.0
62.0627 64.0
62.0774 66.0
62.0922 60.0
62.107 66.0
62.1218 72.0
62.1365 56.0
62.1513 62.0
62.1661 62.0
62.1808 66.0
62.1956 63.0
62.2104 56.0
62.2252 58.0
62.2399 67.0
62.2547 66.0
62.2695 59.0
62.2842 65.0
62.299 76.0
62.3138 68.0
62.3286 61.0
62.3433 58.0
62.3581 49.0
62.3729 72.0
62.3876 70.0
62.4024 61.0
62.4172 84.0
62.432 70.0
62.4467 64.0
62.4615 62.0
62.4763 71.0
62.491 64.0
62.5058 68.0
62.5206 61.0
62.5354 69.0
62.5501 68.0
62.5649 64.0
62.5797 57.0
62.5944 71.0
62.6092 40.0
62.624 65.0
62.6388 64.0
62.6535 78.0
62.6683 60.0
62.6831 60.0
62.6978 71.0
62.7126 58.0
62.7274 75.0
62.7422 44.0
62.7569 58.0
62.7717 60.0
62.7865 77.0
62.8012 70.0
62.816 57.0
62.8308 62.0
62.8456 80.0
62.8603 66.0
62.8751 67.0
62.8899 85.0
62.9047 62.0
62.9194 65.0
62.9342 77.0
62.949 71.0
62.9637 71.0
62.9785 60.0
62.9933 72.0
63.0081 79.0
63.0228 77.0
63.0376 69.0
63.0524 70.0
63.0671 52.0
63.0819 76.0
63.0967 62.0
63.1115 55.0
63.1262 78.0
63.141 74.0
63.1558 73.0
63.1705 71.0
63.1853 69.0
63.2001 69.0
63.2149 66.0
63.2296 81.0
63.2444 77.0
63.2592 56.0
63.2739 58.0
63.2887 71.0
63.3035 71.0
63.3183 62.0
63.333 81.0
63.3478 72.0
63.3626 63.0
63.3773 62.0
63.3921 60.0
63.4069 68.0
63.4217 75.0
63.4364 61.0
63.4512 70.0
63.466 59.0
63.4807 62.0
63.4955 65.0
63.5103 72.0
63.5251 72.0
63.5398 73.0
63.5546 70.0
63.5694 74.0
63.5841 89.0
63.5989 69.0
63.6137 87.0
63.6285 79.0
63.6432 79.0
63.658 83.0
63.6728 79.0
63.6875 89.0
63.7023 76.0
63.7171 85.0
63.7319 61.0
63.7466 95.0
63.7614 75.0
63.7762 84.0
63.7909 76.0
63.8057 94.0
63.8205 92.0
63.8353 86.0
63.85 93.0
63.8648 77.0
63.8796 95.0
63.8943 87.0
63.9091 85.0
63.9239 84.0
63.9387 92.0
63.9534 68.0
63.9682 127.0
63.983 97.0
63.9977 91.0
64.0125 100.0
64.0273 100.0
64.0421 106.0
64.0568 100.0
64.0716 94.0
64.0864 121.0
64.1011 103.0
64.1159 107.0
64.1307 111.0
64.1455 89.0
64.1602 89.0
64.175 110.0
64.1898 118.0
64.2045 114.0
64.2193 117.0
64.2341 112.0
64.2489 103.0
64.2636 126.0
64.2784 126.0
64.2932 130.0
64.3079 143.0
64.3227 140.0
64.3375 146.0
64.3523 148.0
64.367 128.0
64.3818 170.0
64.3966 171.0
64.4114 175.0
64.4261 171.0
64.4409 173.0
64.4557 203.0
64.4704 199.0
64.4852 263.0
64.5 268.0
64.5148 213.0
64.5295 301.0
64.5443 289.0
64.5591 319.0
64.5738 307.0
64.5886 392.0
64.6034 406.0
64.6182 446.0
64.6329 458.0
64.6477 517.0
64.6625 546.0
64.6772 575.0
64.692 622.0
64.7068 668.0
64.7216 779.0
64.7363 930.0
64.7511 964.0
64.7659 1166.0
64.7806 1330.0
64.7954 1441.0
64.8102 1588.0
64.825 1823.0
64.8397 2015.0
64.8545 2269.0
64.8693 2391.0
64.884 2405.0
64.8988 2500.0
64.9136 2580.0
64.9284 2602.0
64.9431 2666.0
64.9579 2612.0
64.9727 2501.0
64.9874 2451.0
65.0022 2360.0
65.017 2204.0
65.0318 2147.0
65.0465 2075.0
65.0613 1850.0
65.0761 1877.0
65.0908 1731.0
65.1056 1667.0
65.1204 1566.0
65.1352 1445.0
65.1499 1361.0
65.1647 1216.0
65.1795 1094.0
65.1942 980.0
65.209 854.0
65.2238 754.0
65.2386 688.0
65.2533 615.0
65.2681 543.0
65.2829 460.0
65.2976 431.0
65.3124 391.0
65.3272 349.0
65.342 357.0
65.3567 300.0
65.3715 266.0
65.3863 256.0
65.401 224.0
65.4158 201.0
65.4306 216.0
65.4454 188.0
65.4601 184.0
65.4749 180.0
65.4897 169.0
65.5044 160.0
65.5192 166.0
65.534 141.0
65.5488 132.0
65.5635 119.0
65.5783 150.0
65.5931 133.0
65.6078 133.0
65.6226 123.0
65.6374 132.0
65.6522 111.0
65.6669 111.0
65.6817 102.0
65.6965 122.0
65.7112 108.0
65.726 134.0
65.7408 113.0
65.7556 104.0
65.7703 116.0
65.7851 101.0
65.7999 119.0
65.8146 115.0
65.8294 99.0
65.8442 100.0
65.859 114.0
65.8737 90.0
65.8885 100.0
65.9033 105.0
65.9181 111.0
65.9328 107.0
65.9476 129.0
65.9624 113.0
65.9771 119.0
65.9919 115.0
66.0067 127.0
66.0215 107.0
66.0362 133.0
66.051 112.0
66.0658 124.0
66.0805 119.0
66.0953 127.0
66.1101 122.0
66.1249 110.0
66.1396 115.0
66.1544 108.0
66.1692 118.0
66.1839 107.0
66.1987 122.0
66.2135 125.0
66.2283 121.0
66.243 120.0
66.2578 131.0
66.2726 130.0
66.2873 134.0
66.3021 122.0
66.3169 126.0
66.3317 102.0
66.3464 131.0
66.3612 119.0
66.376 131.0
66.3907 139.0
66.4055 125.0
66.4203 145.0
66.4351 135.0
66.4498 122.0
66.4646 150.0
66.4794 161.0
66.4941 150.0
66.5089 134.0
66.5237 114.0
66.5385 138.0
66.5532 133.0
66.568 142.0
66.5828 134.0
66.5975 147.0
66.6123 151.0
66.6271 145.0
66.6419 151.0
66.6566 157.0
66.6714 160.0
66.6862 141.0
66.7009 163.0
66.7157 127.0
66.7305 151.0
66.7453 163.0
66.76 147.0
66.7748 167.0
66.7896 180.0
66.8043 162.0
66.8191 148.0
66.8339 174.0
66.8487 174.0
66.8634 144.0
66.8782 186.0
66.893 203.0
66.9077 166.0
66.9225 202.0
66.9373 181.0
66.9521 185.0
66.9668 192.0
66.9816 175.0
66.9964 193.0
67.0111 190.0
67.0259 204.0
67.0407 189.0
67.0555 255.0
67.0702 189.0
67.085 212.0
67.0998 257.0
67.1145 208.0
67.1293 215.0
67.1441 203.0
67.1589 264.0
67.1736 271.0
67.1884 212.0
67.2032 263.0
67.2179 257.0
67.2327 217.0
67.2475 279.0
67.2623 309.0
67.277 298.0
67.2918 291.0
67.3066 300.0
67.3213 338.0
67.3361 337.0
67.3509 283.0
67.3657 321.0
67.3804 355.0
67.3952 317.0
67.41 363.0
67.4248 351.0
67.4395 351.0
67.4543 366.0
67.4691 346.0
67.4838 383.0
67.4986 353.0
67.5134 383.0
67.5282 392.0
67.5429 422.0
67.5577 452.0
67.5725 479.0
67.5872 444.0
67.602 480.0
67.6168 463.0
67.6316 517.0
67.6463 520.0
67.6611 550.0
67.6759 555.0
67.6906 594.0
67.7054 698.0
67.7202 690.0
67.735 746.0
67.7497 914.0
67.7645 1041.0
67.7793 1212.0
67.794 1285.0
67.8088 1536.0
67.8236 1674.0
67.8384 1724.0
67.8531 1712.0
67.8679 1765.0
67.8827 1775.0
67.8974 1776.0
67.9122 1747.0
67.927 1746.0
67.9418 1803.0
67.9565 1877.0
67.9713 2034.0
67.9861 2292.0
68.0008 2539.0
68.0156 3024.0
68.0304 3637.0
68.0452 4295.0
68.0599 5442.0
68.0747 7328.0
68.0895 9325.0
68.1042 15004.0
68.119 24299.0
68.1338 48715.0
68.1486 143465.0
68.1633 220730.0
68.1781 191881.0
68.1929 105577.0
68.2076 43555.0
68.2224 25185.0
68.2372 14847.0
68.252 10275.0
68.2667 9042.0
68.2815 8836.0
68.2963 10698.0
68.311 15375.0
68.3258 28192.0
68.3406 64177.0
68.3554 104867.0
68.3701 97640.0
68.3849 55869.0
68.3997 27220.0
68.4144 14368.0
68.4292 8644.0
68.444 5933.0
68.4588 4330.0
68.4735 3456.0
68.4883 2880.0
68.5031 2515.0
68.5178 2050.0
68.5326 1911.0
68.5474 1714.0
68.5622 1549.0
68.5769 1415.0
68.5917 1278.0
68.6065 1223.0
68.6212 1085.0
68.636 1026.0
68.6508 950.0
68.6656 932.0
68.6803 853.0
68.6951 712.0
68.7099 818.0
68.7246 720.0
68.7394 667.0
68.7542 657.0
68.769 625.0
68.7837 622.0
68.7985 602.0
68.8133 545.0
68.828 522.0
68.8428 479.0
68.8576 433.0
68.8724 449.0
68.8871 436.0
68.9019 424.0
68.9167 422.0
68.9315 397.0
68.9462 377.0
68.961 419.0
68.9758 385.0
68.9905 365.0
69.0053 319.0
69.0201 364.0
69.0349 308.0
69.0496 299.0
69.0644 330.0
69.0792 302.0
69.0939 286.0
69.1087 303.0
69.1235 283.0
69.1383 293.0
69.153 207.0
69.1678 263.0
69.1826 192.0
69.1973 255.0
69.2121 219.0
69.2269 192.0
69.2417 192.0
69.2564 183.0
69.2712 194.0
69.286 188.0
69.3007 182.0
69.3155 196.0
69.3303 181.0
69.3451 137.0
69.3598 181.0
69.3746 175.0
69.3894 159.0
69.4041 162.0
69.4189 159.0
69.4337 159.0
69.4485 173.0
69.4632 146.0
69.478 168.0
69.4928 157.0
69.5075 141.0
69.5223 144.0
69.5371 144.0
69.5519 149.0
69.5666 137.0
69.5814 115.0
69.5962 134.0
69.6109 107.0
69.6257 112.0
69.6405 114.0
69.6553 127.0
69.67 100.0
69.6848 122.0
69.6996 125.0
69.7143 115.0
69.7291 92.0
69.7439 125.0
69.7587 101.0
69.7734 123.0
69.7882 116.0
69.803 132.0
69.8177 103.0
69.8325 93.0
69.8473 102.0
69.8621 113.0
69.8768 91.0
69.8916 96.0
69.9064 105.0
69.9211 95.0
69.9359 101.0
69.9507 97.0
69.9655 102.0
69.9802 96.0
69.995 99.0
70.0098 74.0
70.0245 100.0
70.0393 76.0
70.0541 85.0
70.0689 89.0
70.0836 97.0
70.0984 83.0
70.1132 76.0
70.1279 94.0
70.1427 90.0
70.1575 75.0
70.1723 91.0
70.187 87.0
70.2018 88.0
70.2166 85.0
70.2313 88.0
70.2461 100.0
70.2609 94.0
70.2757 77.0
70.2904 91.0
70.3052 76.0
70.32 76.0
70.3347 94.0
70.3495 86.0
70.3643 71.0
70.3791 80.0
70.3938 78.0
70.4086 78.0
70.4234 80.0
70.4382 96.0
70.4529 67.0
70.4677 87.0
70.4825 101.0
70.4972 72.0
70.512 89.0
70.5268 78.0
70.5416 73.0
70.5563 70.0
70.5711 74.0
70.5859 77.0
70.6006 71.0
70.6154 84.0
70.6302 71.0
70.645 69.0
70.6597 58.0
70.6745 86.0
70.6893 78.0
70.704 84.0
70.7188 68.0
70.7336 78.0
70.7484 81.0
70.7631 75.0
70.7779 74.0
70.7927 67.0
70.8074 71.0
70.8222 81.0
70.837 80.0
70.8518 81.0
70.8665 83.0
70.8813 77.0
70.8961 75.0
70.9108 78.0
70.9256 71.0
70.9404 72.0
70.9552 83.0
70.9699 73.0
70.9847 78.0
70.9995 70.0
71.0142 80.0
71.029 77.0
71.0438 87.0
71.0586 85.0
71.0733 83.0
71.0881 84.0
71.1029 80.0
71.1176 65.0
71.1324 70.0
71.1472 66.0
71.162 85.0
71.1767 75.0
71.1915 61.0
71.2063 87.0
71.221 76.0
71.2358 71.0
71.2506 56.0
71.2654 76.0
71.2801 62.0
71.2949 70.0
71.3097 54.0
71.3244 78.0
71.3392 73.0
71.354 73.0
71.3688 60.0
71.3835 63.0
71.3983 62.0
71.4131 84.0
71.4278 77.0
71.4426 73.0
71.4574 61.0
71.4722 74.0
71.4869 64.0
71.5017 69.0
71.5165 68.0
71.5312 56.0
71.546 75.0
71.5608 81.0
71.5756 72.0
71.5903 55.0
71.6051 69.0
71.6199 70.0
71.6346 68.0
71.6494 65.0
71.6642 81.0
71.679 82.0
71.6937 78.0
71.7085 63.0
71.7233 44.0
71.738 52.0
71.7528 86.0
71.7676 71.0
71.7824 82.0
71.7971 71.0
71.8119 55.0
71.8267 69.0
71.8414 62.0
71.8562 67.0
71.871 71.0
71.8858 77.0
71.9005 72.0
71.9153 66.0
71.9301 92.0
71.9449 53.0
71.9596 67.0
71.9744 57.0
71.9892 79.0
72.0039 61.0
72.0187 76.0
72.0335 84.0
72.0483 65.0
72.063 63.0
72.0778 80.0
72.0926 63.0
72.1073 72.0
72.1221 59.0
72.1369 70.0
72.1517 73.0
72.1664 66.0
72.1812 77.0
72.196 57.0
72.2107 80.0
72.2255 67.0
72.2403 72.0
72.2551 65.0
72.2698 56.0
72.2846 79.0
72.2994 71.0
72.3141 51.0
72.3289 68.0
72.3437 64.0
72.3585 66.0
72.3732 70.0
72.388 57.0
72.4028 71.0
72.4175 54.0
72.4323 49.0
72.4471 67.0
72.4619 69.0
72.4766 68.0
72.4914 67.0
72.5062 84.0
72.5209 64.0
72.5357 63.0
72.5505 48.0
72.5653 64.0
72.58 80.0
72.5948 65.0
72.6096 50.0
72.6243 66.0
72.6391 56.0
72.6539 67.0
72.6687 67.0
72.6834 69.0
72.6982 67.0
72.713 58.0
72.7277 79.0
72.7425 64.0
72.7573 57.0
72.7721 62.0
72.7868 65.0
72.8016 60.0
72.8164 64.0
72.8311 57.0
72.8459 58.0
72.8607 64.0
72.8755 55.0
72.8902 43.0
72.905 62.0
72.9198 54.0
72.9345 61.0
72.9493 66.0
72.9641 65.0
72.9789 58.0
72.9936 53.0
73.0084 71.0
73.0232 68.0
73.0379 63.0
73.0527 64.0
73.0675 65.0
73.0823 58.0
73.097 62.0
73.1118 61.0
73.1266 55.0
73.1413 56.0
73.1561 51.0
73.1709 52.0
73.1857 68.0
73.2004 61.0
73.2152 60.0
73.23 72.0
73.2447 58.0
73.2595 59.0
73.2743 52.0
73.2891 65.0
73.3038 60.0
73.3186 60.0
73.3334 71.0
73.3481 68.0
73.3629 49.0
73.3777 64.0
73.3925 61.0
73.4072 66.0
73.422 56.0
73.4368 57.0
73.4516 59.0
73.4663 62.0
73.4811 47.0
73.4959 59.0
73.5106 54.0
73.5254 73.0
73.5402 72.0
73.555 72.0
73.5697 60.0
73.5845 67.0
73.5993 67.0
73.614 69.0
73.6288 55.0
73.6436 70.0
73.6584 61.0
73.6731 64.0
73.6879 61.0
73.7027 59.0
73.7174 48.0
73.7322 56.0
73.747 49.0
73.7618 55.0
73.7765 65.0
73.7913 56.0
73.8061 69.0
73.8208 55.0
73.8356 63.0
73.8504 74.0
73.8652 69.0
73.8799 58.0
73.8947 54.0
73.9095 48.0
73.9242 63.0
73.939 50.0
73.9538 61.0
73.9686 58.0
73.9833 72.0
73.9981 68.0
74.0129 64.0
74.0276 46.0
74.0424 63.0
74.0572 51.0
74.072 81.0
74.0867 54.0
74.1015 58.0
74.1163 50.0
74.131 62.0
74.1458 69.0
74.1606 66.0
74.1754 82.0
74.1901 67.0
74.2049 63.0
74.2197 56.0
74.2344 57.0
74.2492 66.0
74.264 71.0
74.2788 69.0
74.2935 60.0
74.3083 61.0
74.3231 63.0
74.3378 59.0
74.3526 56.0
74.3674 59.0
74.3822 54.0
74.3969 46.0
74.4117 62.0
74.4265 59.0
74.4412 55.0
74.456 49.0
74.4708 68.0
74.4856 59.0
74.5003 58.0
74.5151 79.0
74.5299 74.0
74.5446 54.0
74.5594 56.0
74.5742 67.0
74.589 50.0
74.6037 67.0
74.6185 68.0
74.6333 58.0
74.648 51.0
74.6628 53.0
74.6776 72.0
74.6924 53.0
74.7071 61.0
74.7219 57.0
74.7367 46.0
74.7514 50.0
74.7662 59.0
74.781 62.0
74.7958 44.0
74.8105 59.0
74.8253 63.0
74.8401 53.0
74.8548 68.0
74.8696 63.0
74.8844 53.0
74.8992 47.0
74.9139 57.0
74.9287 51.0
74.9435 71.0
74.9583 45.0
74.973 71.0
74.9878 56.0
74.9976 70.0