File: data/W6716/XRD_2ThetaOmega/phi0scan_2th-om_m_Cr2O3_55-75deg_PIXscan_4min_W6716_5.xy
55.0019 12.0
55.0166 5.0
55.0314 9.0
55.0462 12.0
55.0609 10.0
55.0757 11.0
55.0905 12.0
55.1053 11.0
55.12 16.0
55.1348 9.0
55.1496 11.0
55.1643 9.0
55.1791 10.0
55.1939 11.0
55.2087 15.0
55.2234 5.0
55.2382 9.0
55.253 8.0
55.2678 10.0
55.2825 14.0
55.2973 13.0
55.3121 3.0
55.3268 7.0
55.3416 5.0
55.3564 6.0
55.3712 7.0
55.3859 10.0
55.4007 7.0
55.4155 15.0
55.4302 7.0
55.445 9.0
55.4598 16.0
55.4746 10.0
55.4893 12.0
55.5041 11.0
55.5189 4.0
55.5336 12.0
55.5484 13.0
55.5632 10.0
55.578 14.0
55.5927 6.0
55.6075 8.0
55.6223 8.0
55.637 14.0
55.6518 5.0
55.6666 6.0
55.6814 11.0
55.6961 4.0
55.7109 11.0
55.7257 6.0
55.7404 10.0
55.7552 12.0
55.77 7.0
55.7848 12.0
55.7995 13.0
55.8143 11.0
55.8291 11.0
55.8438 11.0
55.8586 5.0
55.8734 10.0
55.8882 9.0
55.9029 12.0
55.9177 10.0
55.9325 11.0
55.9472 5.0
55.962 12.0
55.9768 7.0
55.9916 13.0
56.0063 7.0
56.0211 6.0
56.0359 11.0
56.0506 10.0
56.0654 8.0
56.0802 14.0
56.095 9.0
56.1097 14.0
56.1245 6.0
56.1393 12.0
56.154 6.0
56.1688 6.0
56.1836 8.0
56.1984 18.0
56.2131 9.0
56.2279 18.0
56.2427 12.0
56.2574 13.0
56.2722 10.0
56.287 8.0
56.3018 8.0
56.3165 8.0
56.3313 4.0
56.3461 11.0
56.3608 9.0
56.3756 10.0
56.3904 8.0
56.4052 6.0
56.4199 11.0
56.4347 10.0
56.4495 10.0
56.4642 7.0
56.479 12.0
56.4938 9.0
56.5086 6.0
56.5233 12.0
56.5381 4.0
56.5529 8.0
56.5676 9.0
56.5824 9.0
56.5972 9.0
56.612 6.0
56.6267 8.0
56.6415 10.0
56.6563 9.0
56.671 8.0
56.6858 11.0
56.7006 13.0
56.7154 14.0
56.7301 11.0
56.7449 10.0
56.7597 9.0
56.7745 4.0
56.7892 8.0
56.804 7.0
56.8188 5.0
56.8335 15.0
56.8483 11.0
56.8631 18.0
56.8779 8.0
56.8926 5.0
56.9074 8.0
56.9222 6.0
56.9369 12.0
56.9517 8.0
56.9665 10.0
56.9813 8.0
56.996 10.0
57.0108 10.0
57.0256 18.0
57.0403 12.0
57.0551 10.0
57.0699 11.0
57.0847 8.0
57.0994 10.0
57.1142 11.0
57.129 7.0
57.1437 9.0
57.1585 12.0
57.1733 8.0
57.1881 6.0
57.2028 7.0
57.2176 16.0
57.2324 9.0
57.2471 8.0
57.2619 6.0
57.2767 14.0
57.2915 9.0
57.3062 7.0
57.321 10.0
57.3358 12.0
57.3505 14.0
57.3653 12.0
57.3801 11.0
57.3949 9.0
57.4096 4.0
57.4244 9.0
57.4392 8.0
57.4539 13.0
57.4687 12.0
57.4835 8.0
57.4983 13.0
57.513 10.0
57.5278 8.0
57.5426 14.0
57.5573 22.0
57.5721 8.0
57.5869 15.0
57.6017 15.0
57.6164 8.0
57.6312 9.0
57.646 13.0
57.6607 6.0
57.6755 4.0
57.6903 14.0
57.7051 7.0
57.7198 20.0
57.7346 6.0
57.7494 20.0
57.7641 9.0
57.7789 11.0
57.7937 18.0
57.8085 12.0
57.8232 10.0
57.838 12.0
57.8528 8.0
57.8675 12.0
57.8823 13.0
57.8971 12.0
57.9119 11.0
57.9266 14.0
57.9414 14.0
57.9562 18.0
57.9709 10.0
57.9857 9.0
58.0005 14.0
58.0153 10.0
58.03 9.0
58.0448 10.0
58.0596 10.0
58.0743 13.0
58.0891 14.0
58.1039 12.0
58.1187 7.0
58.1334 10.0
58.1482 3.0
58.163 12.0
58.1777 10.0
58.1925 12.0
58.2073 13.0
58.2221 6.0
58.2368 11.0
58.2516 5.0
58.2664 11.0
58.2812 16.0
58.2959 12.0
58.3107 8.0
58.3255 4.0
58.3402 14.0
58.355 6.0
58.3698 12.0
58.3846 14.0
58.3993 15.0
58.4141 10.0
58.4289 10.0
58.4436 12.0
58.4584 12.0
58.4732 7.0
58.488 2.0
58.5027 9.0
58.5175 12.0
58.5323 14.0
58.547 9.0
58.5618 10.0
58.5766 10.0
58.5914 10.0
58.6061 6.0
58.6209 8.0
58.6357 12.0
58.6504 7.0
58.6652 8.0
58.68 8.0
58.6948 9.0
58.7095 10.0
58.7243 9.0
58.7391 9.0
58.7538 11.0
58.7686 13.0
58.7834 12.0
58.7982 13.0
58.8129 8.0
58.8277 9.0
58.8425 10.0
58.8572 11.0
58.872 10.0
58.8868 12.0
58.9016 13.0
58.9163 9.0
58.9311 8.0
58.9459 8.0
58.9606 15.0
58.9754 11.0
58.9902 10.0
59.005 7.0
59.0197 9.0
59.0345 10.0
59.0493 11.0
59.064 6.0
59.0788 7.0
59.0936 7.0
59.1084 11.0
59.1231 11.0
59.1379 13.0
59.1527 16.0
59.1674 11.0
59.1822 18.0
59.197 15.0
59.2118 12.0
59.2265 11.0
59.2413 15.0
59.2561 9.0
59.2708 8.0
59.2856 6.0
59.3004 8.0
59.3152 9.0
59.3299 9.0
59.3447 11.0
59.3595 7.0
59.3742 6.0
59.389 8.0
59.4038 6.0
59.4186 14.0
59.4333 13.0
59.4481 6.0
59.4629 10.0
59.4776 3.0
59.4924 8.0
59.5072 7.0
59.522 6.0
59.5367 5.0
59.5515 9.0
59.5663 10.0
59.581 7.0
59.5958 15.0
59.6106 5.0
59.6254 10.0
59.6401 11.0
59.6549 9.0
59.6697 9.0
59.6844 9.0
59.6992 7.0
59.714 10.0
59.7288 8.0
59.7435 6.0
59.7583 10.0
59.7731 9.0
59.7878 12.0
59.8026 15.0
59.8174 6.0
59.8322 14.0
59.8469 7.0
59.8617 8.0
59.8765 15.0
59.8913 9.0
59.906 6.0
59.9208 9.0
59.9356 6.0
59.9503 14.0
59.9651 8.0
59.9799 8.0
59.9947 8.0
60.0094 11.0
60.0242 10.0
60.039 8.0
60.0537 14.0
60.0685 10.0
60.0833 8.0
60.0981 9.0
60.1128 13.0
60.1276 12.0
60.1424 14.0
60.1571 13.0
60.1719 14.0
60.1867 12.0
60.2015 9.0
60.2162 11.0
60.231 15.0
60.2458 12.0
60.2605 19.0
60.2753 11.0
60.2901 17.0
60.3049 22.0
60.3196 17.0
60.3344 18.0
60.3492 15.0
60.3639 18.0
60.3787 17.0
60.3935 12.0
60.4083 19.0
60.423 14.0
60.4378 8.0
60.4526 17.0
60.4673 11.0
60.4821 23.0
60.4969 14.0
60.5117 14.0
60.5264 20.0
60.5412 13.0
60.556 16.0
60.5707 14.0
60.5855 18.0
60.6003 19.0
60.6151 19.0
60.6298 19.0
60.6446 25.0
60.6594 22.0
60.6741 33.0
60.6889 46.0
60.7037 54.0
60.7185 81.0
60.7332 124.0
60.748 300.0
60.7628 470.0
60.7775 576.0
60.7923 613.0
60.8071 553.0
60.8219 405.0
60.8366 329.0
60.8514 204.0
60.8662 211.0
60.8809 186.0
60.8957 122.0
60.9105 78.0
60.9253 52.0
60.94 44.0
60.9548 55.0
60.9696 41.0
60.9843 27.0
60.9991 26.0
61.0139 13.0
61.0287 16.0
61.0434 25.0
61.0582 33.0
61.073 25.0
61.0877 23.0
61.1025 17.0
61.1173 28.0
61.1321 27.0
61.1468 26.0
61.1616 22.0
61.1764 18.0
61.1911 19.0
61.2059 18.0
61.2207 20.0
61.2355 23.0
61.2502 19.0
61.265 15.0
61.2798 19.0
61.2945 20.0
61.3093 17.0
61.3241 16.0
61.3389 16.0
61.3536 19.0
61.3684 20.0
61.3832 12.0
61.398 14.0
61.4127 14.0
61.4275 18.0
61.4423 20.0
61.457 12.0
61.4718 14.0
61.4866 10.0
61.5014 21.0
61.5161 12.0
61.5309 15.0
61.5457 15.0
61.5604 21.0
61.5752 16.0
61.59 19.0
61.6048 16.0
61.6195 17.0
61.6343 14.0
61.6491 23.0
61.6638 16.0
61.6786 14.0
61.6934 14.0
61.7082 19.0
61.7229 13.0
61.7377 21.0
61.7525 14.0
61.7672 11.0
61.782 18.0
61.7968 9.0
61.8116 12.0
61.8263 22.0
61.8411 15.0
61.8559 17.0
61.8706 7.0
61.8854 13.0
61.9002 13.0
61.915 18.0
61.9297 15.0
61.9445 15.0
61.9593 19.0
61.974 19.0
61.9888 15.0
62.0036 21.0
62.0184 12.0
62.0331 14.0
62.0479 13.0
62.0627 10.0
62.0774 13.0
62.0922 18.0
62.107 17.0
62.1218 15.0
62.1365 19.0
62.1513 9.0
62.1661 19.0
62.1808 11.0
62.1956 11.0
62.2104 16.0
62.2252 10.0
62.2399 19.0
62.2547 18.0
62.2695 18.0
62.2842 13.0
62.299 14.0
62.3138 13.0
62.3286 11.0
62.3433 17.0
62.3581 14.0
62.3729 13.0
62.3876 21.0
62.4024 15.0
62.4172 17.0
62.432 27.0
62.4467 17.0
62.4615 12.0
62.4763 16.0
62.491 22.0
62.5058 11.0
62.5206 14.0
62.5354 17.0
62.5501 25.0
62.5649 21.0
62.5797 21.0
62.5944 15.0
62.6092 26.0
62.624 16.0
62.6388 19.0
62.6535 23.0
62.6683 15.0
62.6831 22.0
62.6978 19.0
62.7126 19.0
62.7274 21.0
62.7422 18.0
62.7569 18.0
62.7717 30.0
62.7865 16.0
62.8012 23.0
62.816 26.0
62.8308 26.0
62.8456 16.0
62.8603 17.0
62.8751 27.0
62.8899 36.0
62.9047 22.0
62.9194 24.0
62.9342 28.0
62.949 21.0
62.9637 21.0
62.9785 21.0
62.9933 17.0
63.0081 25.0
63.0228 24.0
63.0376 31.0
63.0524 29.0
63.0671 19.0
63.0819 17.0
63.0967 24.0
63.1115 21.0
63.1262 35.0
63.141 17.0
63.1558 26.0
63.1705 28.0
63.1853 20.0
63.2001 26.0
63.2149 25.0
63.2296 22.0
63.2444 24.0
63.2592 26.0
63.2739 32.0
63.2887 21.0
63.3035 29.0
63.3183 17.0
63.333 42.0
63.3478 39.0
63.3626 31.0
63.3773 28.0
63.3921 30.0
63.4069 34.0
63.4217 37.0
63.4364 37.0
63.4512 44.0
63.466 38.0
63.4807 33.0
63.4955 41.0
63.5103 38.0
63.5251 35.0
63.5398 33.0
63.5546 33.0
63.5694 29.0
63.5841 47.0
63.5989 37.0
63.6137 44.0
63.6285 37.0
63.6432 42.0
63.658 51.0
63.6728 51.0
63.6875 36.0
63.7023 48.0
63.7171 42.0
63.7319 41.0
63.7466 59.0
63.7614 56.0
63.7762 41.0
63.7909 52.0
63.8057 50.0
63.8205 52.0
63.8353 69.0
63.85 56.0
63.8648 65.0
63.8796 56.0
63.8943 67.0
63.9091 58.0
63.9239 64.0
63.9387 75.0
63.9534 62.0
63.9682 52.0
63.983 72.0
63.9977 58.0
64.0125 76.0
64.0273 66.0
64.0421 82.0
64.0568 90.0
64.0716 79.0
64.0864 83.0
64.1011 86.0
64.1159 93.0
64.1307 90.0
64.1455 94.0
64.1602 98.0
64.175 97.0
64.1898 97.0
64.2045 113.0
64.2193 120.0
64.2341 135.0
64.2489 137.0
64.2636 116.0
64.2784 141.0
64.2932 125.0
64.3079 173.0
64.3227 171.0
64.3375 152.0
64.3523 169.0
64.367 187.0
64.3818 181.0
64.3966 203.0
64.4114 192.0
64.4261 241.0
64.4409 231.0
64.4557 219.0
64.4704 244.0
64.4852 289.0
64.5 264.0
64.5148 311.0
64.5295 336.0
64.5443 354.0
64.5591 370.0
64.5738 383.0
64.5886 457.0
64.6034 462.0
64.6182 533.0
64.6329 565.0
64.6477 549.0
64.6625 591.0
64.6772 579.0
64.692 621.0
64.7068 620.0
64.7216 593.0
64.7363 597.0
64.7511 530.0
64.7659 525.0
64.7806 528.0
64.7954 537.0
64.8102 560.0
64.825 504.0
64.8397 455.0
64.8545 438.0
64.8693 422.0
64.884 414.0
64.8988 380.0
64.9136 412.0
64.9284 359.0
64.9431 353.0
64.9579 313.0
64.9727 325.0
64.9874 290.0
65.0022 237.0
65.017 220.0
65.0318 210.0
65.0465 179.0
65.0613 163.0
65.0761 149.0
65.0908 144.0
65.1056 174.0
65.1204 114.0
65.1352 110.0
65.1499 111.0
65.1647 99.0
65.1795 111.0
65.1942 87.0
65.209 101.0
65.2238 94.0
65.2386 89.0
65.2533 87.0
65.2681 79.0
65.2829 70.0
65.2976 72.0
65.3124 74.0
65.3272 78.0
65.342 62.0
65.3567 68.0
65.3715 61.0
65.3863 58.0
65.401 64.0
65.4158 63.0
65.4306 64.0
65.4454 69.0
65.4601 62.0
65.4749 58.0
65.4897 51.0
65.5044 57.0
65.5192 60.0
65.534 54.0
65.5488 50.0
65.5635 48.0
65.5783 53.0
65.5931 54.0
65.6078 51.0
65.6226 54.0
65.6374 46.0
65.6522 52.0
65.6669 52.0
65.6817 32.0
65.6965 47.0
65.7112 56.0
65.726 34.0
65.7408 45.0
65.7556 46.0
65.7703 46.0
65.7851 56.0
65.7999 46.0
65.8146 58.0
65.8294 40.0
65.8442 54.0
65.859 45.0
65.8737 44.0
65.8885 56.0
65.9033 53.0
65.9181 57.0
65.9328 49.0
65.9476 54.0
65.9624 62.0
65.9771 42.0
65.9919 67.0
66.0067 40.0
66.0215 51.0
66.0362 55.0
66.051 44.0
66.0658 57.0
66.0805 58.0
66.0953 58.0
66.1101 57.0
66.1249 63.0
66.1396 55.0
66.1544 61.0
66.1692 68.0
66.1839 68.0
66.1987 56.0
66.2135 60.0
66.2283 68.0
66.243 59.0
66.2578 67.0
66.2726 64.0
66.2873 61.0
66.3021 69.0
66.3169 66.0
66.3317 58.0
66.3464 75.0
66.3612 81.0
66.376 68.0
66.3907 64.0
66.4055 79.0
66.4203 62.0
66.4351 84.0
66.4498 81.0
66.4646 77.0
66.4794 79.0
66.4941 71.0
66.5089 91.0
66.5237 88.0
66.5385 80.0
66.5532 90.0
66.568 88.0
66.5828 91.0
66.5975 84.0
66.6123 100.0
66.6271 109.0
66.6419 109.0
66.6566 111.0
66.6714 88.0
66.6862 101.0
66.7009 110.0
66.7157 98.0
66.7305 101.0
66.7453 97.0
66.76 107.0
66.7748 109.0
66.7896 87.0
66.8043 114.0
66.8191 102.0
66.8339 107.0
66.8487 111.0
66.8634 130.0
66.8782 122.0
66.893 106.0
66.9077 125.0
66.9225 138.0
66.9373 122.0
66.9521 126.0
66.9668 127.0
66.9816 141.0
66.9964 131.0
67.0111 151.0
67.0259 143.0
67.0407 120.0
67.0555 150.0
67.0702 161.0
67.085 146.0
67.0998 136.0
67.1145 163.0
67.1293 162.0
67.1441 143.0
67.1589 169.0
67.1736 149.0
67.1884 165.0
67.2032 191.0
67.2179 186.0
67.2327 183.0
67.2475 175.0
67.2623 181.0
67.277 212.0
67.2918 193.0
67.3066 200.0
67.3213 220.0
67.3361 179.0
67.3509 213.0
67.3657 279.0
67.3804 202.0
67.3952 281.0
67.41 274.0
67.4248 218.0
67.4395 261.0
67.4543 266.0
67.4691 302.0
67.4838 330.0
67.4986 323.0
67.5134 318.0
67.5282 356.0
67.5429 353.0
67.5577 327.0
67.5725 366.0
67.5872 398.0
67.602 448.0
67.6168 401.0
67.6316 472.0
67.6463 529.0
67.6611 545.0
67.6759 581.0
67.6906 698.0
67.7054 805.0
67.7202 948.0
67.735 1109.0
67.7497 1177.0
67.7645 1321.0
67.7793 1397.0
67.794 1504.0
67.8088 1473.0
67.8236 1439.0
67.8384 1435.0
67.8531 1346.0
67.8679 1326.0
67.8827 1481.0
67.8974 1581.0
67.9122 1552.0
67.927 1813.0
67.9418 2140.0
67.9565 2437.0
67.9713 3086.0
67.9861 3598.0
68.0008 4472.0
68.0156 6112.0
68.0304 8650.0
68.0452 13143.0
68.0599 23926.0
68.0747 58396.0
68.0895 119696.0
68.1042 147388.0
68.119 146464.0
68.1338 99227.0
68.1486 47068.0
68.1633 24117.0
68.1781 13917.0
68.1929 9692.0
68.2076 8081.0
68.2224 7919.0
68.2372 9781.0
68.252 15354.0
68.2667 31523.0
68.2815 57890.0
68.2963 74332.0
68.311 73952.0
68.3258 53613.0
68.3406 28485.0
68.3554 14350.0
68.3701 8362.0
68.3849 5415.0
68.3997 3877.0
68.4144 3141.0
68.4292 2536.0
68.444 2145.0
68.4588 1892.0
68.4735 1710.0
68.4883 1447.0
68.5031 1343.0
68.5178 1228.0
68.5326 1174.0
68.5474 1067.0
68.5622 992.0
68.5769 928.0
68.5917 831.0
68.6065 766.0
68.6212 707.0
68.636 727.0
68.6508 684.0
68.6656 643.0
68.6803 640.0
68.6951 649.0
68.7099 579.0
68.7246 506.0
68.7394 498.0
68.7542 471.0
68.769 473.0
68.7837 470.0
68.7985 469.0
68.8133 414.0
68.828 395.0
68.8428 391.0
68.8576 385.0
68.8724 401.0
68.8871 323.0
68.9019 340.0
68.9167 325.0
68.9315 334.0
68.9462 297.0
68.961 303.0
68.9758 286.0
68.9905 282.0
69.0053 286.0
69.0201 297.0
69.0349 208.0
69.0496 266.0
69.0644 197.0
69.0792 194.0
69.0939 194.0
69.1087 256.0
69.1235 196.0
69.1383 257.0
69.153 207.0
69.1678 202.0
69.1826 179.0
69.1973 187.0
69.2121 161.0
69.2269 157.0
69.2417 169.0
69.2564 177.0
69.2712 146.0
69.286 188.0
69.3007 158.0
69.3155 159.0
69.3303 131.0
69.3451 146.0
69.3598 158.0
69.3746 124.0
69.3894 126.0
69.4041 130.0
69.4189 143.0
69.4337 114.0
69.4485 114.0
69.4632 123.0
69.478 116.0
69.4928 104.0
69.5075 114.0
69.5223 102.0
69.5371 104.0
69.5519 114.0
69.5666 95.0
69.5814 90.0
69.5962 93.0
69.6109 91.0
69.6257 107.0
69.6405 103.0
69.6553 79.0
69.67 78.0
69.6848 97.0
69.6996 104.0
69.7143 91.0
69.7291 82.0
69.7439 80.0
69.7587 83.0
69.7734 83.0
69.7882 79.0
69.803 74.0
69.8177 87.0
69.8325 68.0
69.8473 59.0
69.8621 70.0
69.8768 77.0
69.8916 56.0
69.9064 66.0
69.9211 70.0
69.9359 69.0
69.9507 70.0
69.9655 47.0
69.9802 68.0
69.995 47.0
70.0098 63.0
70.0245 43.0
70.0393 55.0
70.0541 62.0
70.0689 58.0
70.0836 46.0
70.0984 54.0
70.1132 57.0
70.1279 50.0
70.1427 43.0
70.1575 44.0
70.1723 60.0
70.187 49.0
70.2018 44.0
70.2166 47.0
70.2313 57.0
70.2461 42.0
70.2609 47.0
70.2757 48.0
70.2904 44.0
70.3052 47.0
70.32 40.0
70.3347 33.0
70.3495 35.0
70.3643 36.0
70.3791 39.0
70.3938 36.0
70.4086 27.0
70.4234 45.0
70.4382 43.0
70.4529 30.0
70.4677 29.0
70.4825 39.0
70.4972 38.0
70.512 30.0
70.5268 24.0
70.5416 40.0
70.5563 19.0
70.5711 28.0
70.5859 31.0
70.6006 33.0
70.6154 34.0
70.6302 33.0
70.645 28.0
70.6597 23.0
70.6745 35.0
70.6893 28.0
70.704 30.0
70.7188 22.0
70.7336 21.0
70.7484 35.0
70.7631 20.0
70.7779 19.0
70.7927 41.0
70.8074 30.0
70.8222 26.0
70.837 29.0
70.8518 18.0
70.8665 21.0
70.8813 16.0
70.8961 39.0
70.9108 26.0
70.9256 26.0
70.9404 27.0
70.9552 27.0
70.9699 35.0
70.9847 25.0
70.9995 22.0
71.0142 34.0
71.029 33.0
71.0438 17.0
71.0586 19.0
71.0733 31.0
71.0881 21.0
71.1029 21.0
71.1176 10.0
71.1324 18.0
71.1472 22.0
71.162 39.0
71.1767 27.0
71.1915 25.0
71.2063 26.0
71.221 24.0
71.2358 19.0
71.2506 23.0
71.2654 26.0
71.2801 26.0
71.2949 22.0
71.3097 22.0
71.3244 12.0
71.3392 12.0
71.354 19.0
71.3688 14.0
71.3835 26.0
71.3983 16.0
71.4131 16.0
71.4278 20.0
71.4426 19.0
71.4574 29.0
71.4722 21.0
71.4869 22.0
71.5017 24.0
71.5165 20.0
71.5312 21.0
71.546 22.0
71.5608 20.0
71.5756 25.0
71.5903 23.0
71.6051 26.0
71.6199 18.0
71.6346 16.0
71.6494 14.0
71.6642 19.0
71.679 22.0
71.6937 25.0
71.7085 12.0
71.7233 30.0
71.738 17.0
71.7528 19.0
71.7676 19.0
71.7824 15.0
71.7971 11.0
71.8119 24.0
71.8267 21.0
71.8414 17.0
71.8562 17.0
71.871 15.0
71.8858 26.0
71.9005 20.0
71.9153 15.0
71.9301 10.0
71.9449 18.0
71.9596 19.0
71.9744 18.0
71.9892 26.0
72.0039 9.0
72.0187 11.0
72.0335 13.0
72.0483 10.0
72.063 19.0
72.0778 14.0
72.0926 17.0
72.1073 20.0
72.1221 17.0
72.1369 21.0
72.1517 17.0
72.1664 14.0
72.1812 14.0
72.196 19.0
72.2107 16.0
72.2255 9.0
72.2403 21.0
72.2551 19.0
72.2698 17.0
72.2846 14.0
72.2994 11.0
72.3141 17.0
72.3289 25.0
72.3437 19.0
72.3585 17.0
72.3732 15.0
72.388 20.0
72.4028 17.0
72.4175 9.0
72.4323 14.0
72.4471 17.0
72.4619 22.0
72.4766 19.0
72.4914 13.0
72.5062 8.0
72.5209 18.0
72.5357 12.0
72.5505 10.0
72.5653 9.0
72.58 18.0
72.5948 18.0
72.6096 23.0
72.6243 10.0
72.6391 13.0
72.6539 15.0
72.6687 11.0
72.6834 13.0
72.6982 11.0
72.713 14.0
72.7277 20.0
72.7425 9.0
72.7573 12.0
72.7721 12.0
72.7868 16.0
72.8016 14.0
72.8164 16.0
72.8311 13.0
72.8459 10.0
72.8607 6.0
72.8755 26.0
72.8902 11.0
72.905 19.0
72.9198 18.0
72.9345 14.0
72.9493 13.0
72.9641 10.0
72.9789 16.0
72.9936 13.0
73.0084 11.0
73.0232 19.0
73.0379 21.0
73.0527 23.0
73.0675 16.0
73.0823 29.0
73.097 14.0
73.1118 13.0
73.1266 21.0
73.1413 11.0
73.1561 14.0
73.1709 13.0
73.1857 11.0
73.2004 10.0
73.2152 9.0
73.23 19.0
73.2447 15.0
73.2595 14.0
73.2743 15.0
73.2891 18.0
73.3038 12.0
73.3186 12.0
73.3334 13.0
73.3481 10.0
73.3629 8.0
73.3777 6.0
73.3925 9.0
73.4072 12.0
73.422 17.0
73.4368 10.0
73.4516 12.0
73.4663 10.0
73.4811 18.0
73.4959 14.0
73.5106 10.0
73.5254 19.0
73.5402 14.0
73.555 13.0
73.5697 10.0
73.5845 18.0
73.5993 10.0
73.614 10.0
73.6288 13.0
73.6436 9.0
73.6584 9.0
73.6731 16.0
73.6879 20.0
73.7027 8.0
73.7174 14.0
73.7322 11.0
73.747 14.0
73.7618 13.0
73.7765 11.0
73.7913 5.0
73.8061 13.0
73.8208 12.0
73.8356 19.0
73.8504 11.0
73.8652 12.0
73.8799 12.0
73.8947 12.0
73.9095 15.0
73.9242 23.0
73.939 2.0
73.9538 5.0
73.9686 11.0
73.9833 9.0
73.9981 11.0
74.0129 9.0
74.0276 10.0
74.0424 10.0
74.0572 8.0
74.072 10.0
74.0867 12.0
74.1015 9.0
74.1163 19.0
74.131 5.0
74.1458 11.0
74.1606 17.0
74.1754 10.0
74.1901 9.0
74.2049 11.0
74.2197 13.0
74.2344 9.0
74.2492 11.0
74.264 9.0
74.2788 7.0
74.2935 9.0
74.3083 9.0
74.3231 13.0
74.3378 14.0
74.3526 17.0
74.3674 11.0
74.3822 9.0
74.3969 12.0
74.4117 13.0
74.4265 6.0
74.4412 13.0
74.456 13.0
74.4708 6.0
74.4856 12.0
74.5003 13.0
74.5151 9.0
74.5299 11.0
74.5446 18.0
74.5594 11.0
74.5742 3.0
74.589 19.0
74.6037 14.0
74.6185 18.0
74.6333 10.0
74.648 14.0
74.6628 12.0
74.6776 12.0
74.6924 12.0
74.7071 2.0
74.7219 9.0
74.7367 6.0
74.7514 8.0
74.7662 16.0
74.781 13.0
74.7958 10.0
74.8105 8.0
74.8253 12.0
74.8401 13.0
74.8548 10.0
74.8696 18.0
74.8844 12.0
74.8992 11.0
74.9139 12.0
74.9287 13.0
74.9435 8.0
74.9583 8.0
74.973 11.0
74.9878 17.0
74.9976 11.0