File: data/W6716/XRD_2ThetaOmega/phi180scan_2th-om_m_Cr2O3_55-75deg_PIXscan_4min_W6716_7.xy
55.0019 2.0
55.0166 12.0
55.0314 8.0
55.0462 6.0
55.0609 10.0
55.0757 16.0
55.0905 11.0
55.1053 8.0
55.12 8.0
55.1348 14.0
55.1496 12.0
55.1643 13.0
55.1791 8.0
55.1939 13.0
55.2087 8.0
55.2234 8.0
55.2382 12.0
55.253 14.0
55.2678 8.0
55.2825 13.0
55.2973 6.0
55.3121 9.0
55.3268 9.0
55.3416 10.0
55.3564 10.0
55.3712 11.0
55.3859 14.0
55.4007 6.0
55.4155 12.0
55.4302 7.0
55.445 8.0
55.4598 5.0
55.4746 18.0
55.4893 15.0
55.5041 6.0
55.5189 12.0
55.5336 12.0
55.5484 16.0
55.5632 7.0
55.578 7.0
55.5927 8.0
55.6075 8.0
55.6223 8.0
55.637 11.0
55.6518 6.0
55.6666 11.0
55.6814 11.0
55.6961 7.0
55.7109 10.0
55.7257 14.0
55.7404 13.0
55.7552 11.0
55.77 12.0
55.7848 5.0
55.7995 6.0
55.8143 10.0
55.8291 8.0
55.8438 13.0
55.8586 10.0
55.8734 13.0
55.8882 7.0
55.9029 13.0
55.9177 13.0
55.9325 14.0
55.9472 7.0
55.962 3.0
55.9768 13.0
55.9916 8.0
56.0063 8.0
56.0211 8.0
56.0359 10.0
56.0506 13.0
56.0654 11.0
56.0802 9.0
56.095 9.0
56.1097 9.0
56.1245 7.0
56.1393 14.0
56.154 9.0
56.1688 7.0
56.1836 13.0
56.1984 12.0
56.2131 7.0
56.2279 13.0
56.2427 7.0
56.2574 9.0
56.2722 8.0
56.287 15.0
56.3018 5.0
56.3165 11.0
56.3313 12.0
56.3461 8.0
56.3608 10.0
56.3756 12.0
56.3904 17.0
56.4052 7.0
56.4199 15.0
56.4347 11.0
56.4495 11.0
56.4642 10.0
56.479 14.0
56.4938 5.0
56.5086 4.0
56.5233 10.0
56.5381 10.0
56.5529 8.0
56.5676 13.0
56.5824 7.0
56.5972 20.0
56.612 10.0
56.6267 8.0
56.6415 6.0
56.6563 14.0
56.671 8.0
56.6858 9.0
56.7006 9.0
56.7154 7.0
56.7301 14.0
56.7449 13.0
56.7597 10.0
56.7745 11.0
56.7892 10.0
56.804 7.0
56.8188 12.0
56.8335 14.0
56.8483 8.0
56.8631 4.0
56.8779 8.0
56.8926 11.0
56.9074 6.0
56.9222 10.0
56.9369 7.0
56.9517 15.0
56.9665 10.0
56.9813 13.0
56.996 10.0
57.0108 15.0
57.0256 9.0
57.0403 13.0
57.0551 8.0
57.0699 5.0
57.0847 13.0
57.0994 7.0
57.1142 11.0
57.129 7.0
57.1437 14.0
57.1585 12.0
57.1733 7.0
57.1881 10.0
57.2028 9.0
57.2176 11.0
57.2324 14.0
57.2471 13.0
57.2619 10.0
57.2767 15.0
57.2915 13.0
57.3062 9.0
57.321 9.0
57.3358 10.0
57.3505 7.0
57.3653 10.0
57.3801 16.0
57.3949 9.0
57.4096 11.0
57.4244 4.0
57.4392 10.0
57.4539 7.0
57.4687 13.0
57.4835 15.0
57.4983 9.0
57.513 15.0
57.5278 13.0
57.5426 10.0
57.5573 7.0
57.5721 9.0
57.5869 8.0
57.6017 11.0
57.6164 13.0
57.6312 11.0
57.646 10.0
57.6607 12.0
57.6755 14.0
57.6903 16.0
57.7051 5.0
57.7198 11.0
57.7346 14.0
57.7494 14.0
57.7641 8.0
57.7789 9.0
57.7937 16.0
57.8085 4.0
57.8232 9.0
57.838 5.0
57.8528 13.0
57.8675 17.0
57.8823 11.0
57.8971 8.0
57.9119 9.0
57.9266 13.0
57.9414 11.0
57.9562 8.0
57.9709 16.0
57.9857 11.0
58.0005 9.0
58.0153 8.0
58.03 10.0
58.0448 5.0
58.0596 10.0
58.0743 10.0
58.0891 10.0
58.1039 10.0
58.1187 13.0
58.1334 6.0
58.1482 8.0
58.163 8.0
58.1777 9.0
58.1925 14.0
58.2073 7.0
58.2221 12.0
58.2368 10.0
58.2516 12.0
58.2664 11.0
58.2812 12.0
58.2959 7.0
58.3107 10.0
58.3255 17.0
58.3402 10.0
58.355 11.0
58.3698 16.0
58.3846 9.0
58.3993 13.0
58.4141 8.0
58.4289 15.0
58.4436 7.0
58.4584 11.0
58.4732 13.0
58.488 7.0
58.5027 8.0
58.5175 14.0
58.5323 14.0
58.547 9.0
58.5618 11.0
58.5766 9.0
58.5914 7.0
58.6061 9.0
58.6209 12.0
58.6357 14.0
58.6504 9.0
58.6652 9.0
58.68 8.0
58.6948 12.0
58.7095 13.0
58.7243 6.0
58.7391 11.0
58.7538 2.0
58.7686 12.0
58.7834 10.0
58.7982 8.0
58.8129 14.0
58.8277 7.0
58.8425 10.0
58.8572 4.0
58.872 3.0
58.8868 12.0
58.9016 12.0
58.9163 9.0
58.9311 8.0
58.9459 12.0
58.9606 14.0
58.9754 14.0
58.9902 10.0
59.005 6.0
59.0197 6.0
59.0345 12.0
59.0493 6.0
59.064 12.0
59.0788 15.0
59.0936 15.0
59.1084 11.0
59.1231 4.0
59.1379 7.0
59.1527 12.0
59.1674 7.0
59.1822 8.0
59.197 11.0
59.2118 7.0
59.2265 12.0
59.2413 12.0
59.2561 19.0
59.2708 11.0
59.2856 13.0
59.3004 12.0
59.3152 14.0
59.3299 14.0
59.3447 10.0
59.3595 11.0
59.3742 11.0
59.389 10.0
59.4038 9.0
59.4186 12.0
59.4333 12.0
59.4481 13.0
59.4629 4.0
59.4776 10.0
59.4924 6.0
59.5072 15.0
59.522 13.0
59.5367 10.0
59.5515 9.0
59.5663 13.0
59.581 11.0
59.5958 15.0
59.6106 11.0
59.6254 6.0
59.6401 8.0
59.6549 7.0
59.6697 13.0
59.6844 12.0
59.6992 9.0
59.714 15.0
59.7288 13.0
59.7435 8.0
59.7583 15.0
59.7731 16.0
59.7878 9.0
59.8026 16.0
59.8174 13.0
59.8322 12.0
59.8469 7.0
59.8617 13.0
59.8765 9.0
59.8913 9.0
59.906 14.0
59.9208 10.0
59.9356 14.0
59.9503 17.0
59.9651 12.0
59.9799 8.0
59.9947 6.0
60.0094 12.0
60.0242 10.0
60.039 7.0
60.0537 10.0
60.0685 16.0
60.0833 8.0
60.0981 16.0
60.1128 8.0
60.1276 14.0
60.1424 10.0
60.1571 12.0
60.1719 11.0
60.1867 8.0
60.2015 13.0
60.2162 16.0
60.231 22.0
60.2458 20.0
60.2605 21.0
60.2753 19.0
60.2901 15.0
60.3049 24.0
60.3196 22.0
60.3344 14.0
60.3492 23.0
60.3639 13.0
60.3787 18.0
60.3935 16.0
60.4083 7.0
60.423 15.0
60.4378 19.0
60.4526 19.0
60.4673 11.0
60.4821 17.0
60.4969 11.0
60.5117 17.0
60.5264 19.0
60.5412 17.0
60.556 20.0
60.5707 28.0
60.5855 16.0
60.6003 17.0
60.6151 24.0
60.6298 28.0
60.6446 31.0
60.6594 28.0
60.6741 45.0
60.6889 40.0
60.7037 52.0
60.7185 73.0
60.7332 122.0
60.748 256.0
60.7628 417.0
60.7775 575.0
60.7923 696.0
60.8071 662.0
60.8219 482.0
60.8366 329.0
60.8514 201.0
60.8662 220.0
60.8809 190.0
60.8957 151.0
60.9105 114.0
60.9253 87.0
60.94 68.0
60.9548 70.0
60.9696 48.0
60.9843 50.0
60.9991 39.0
61.0139 31.0
61.0287 21.0
61.0434 40.0
61.0582 34.0
61.073 24.0
61.0877 29.0
61.1025 18.0
61.1173 24.0
61.1321 24.0
61.1468 24.0
61.1616 19.0
61.1764 25.0
61.1911 27.0
61.2059 23.0
61.2207 19.0
61.2355 19.0
61.2502 22.0
61.265 20.0
61.2798 14.0
61.2945 20.0
61.3093 18.0
61.3241 18.0
61.3389 19.0
61.3536 14.0
61.3684 18.0
61.3832 20.0
61.398 18.0
61.4127 23.0
61.4275 14.0
61.4423 22.0
61.457 14.0
61.4718 19.0
61.4866 20.0
61.5014 21.0
61.5161 11.0
61.5309 19.0
61.5457 28.0
61.5604 11.0
61.5752 20.0
61.59 15.0
61.6048 24.0
61.6195 19.0
61.6343 16.0
61.6491 25.0
61.6638 16.0
61.6786 14.0
61.6934 20.0
61.7082 22.0
61.7229 18.0
61.7377 14.0
61.7525 19.0
61.7672 18.0
61.782 11.0
61.7968 16.0
61.8116 18.0
61.8263 12.0
61.8411 7.0
61.8559 19.0
61.8706 13.0
61.8854 14.0
61.9002 14.0
61.915 14.0
61.9297 22.0
61.9445 15.0
61.9593 20.0
61.974 13.0
61.9888 18.0
62.0036 10.0
62.0184 17.0
62.0331 19.0
62.0479 15.0
62.0627 13.0
62.0774 21.0
62.0922 18.0
62.107 14.0
62.1218 24.0
62.1365 18.0
62.1513 18.0
62.1661 25.0
62.1808 21.0
62.1956 12.0
62.2104 22.0
62.2252 24.0
62.2399 21.0
62.2547 9.0
62.2695 9.0
62.2842 23.0
62.299 16.0
62.3138 24.0
62.3286 19.0
62.3433 15.0
62.3581 12.0
62.3729 25.0
62.3876 16.0
62.4024 16.0
62.4172 18.0
62.432 16.0
62.4467 20.0
62.4615 27.0
62.4763 15.0
62.491 20.0
62.5058 24.0
62.5206 24.0
62.5354 17.0
62.5501 17.0
62.5649 26.0
62.5797 18.0
62.5944 19.0
62.6092 15.0
62.624 27.0
62.6388 18.0
62.6535 29.0
62.6683 27.0
62.6831 15.0
62.6978 22.0
62.7126 21.0
62.7274 21.0
62.7422 23.0
62.7569 21.0
62.7717 20.0
62.7865 17.0
62.8012 23.0
62.816 23.0
62.8308 16.0
62.8456 23.0
62.8603 18.0
62.8751 18.0
62.8899 18.0
62.9047 20.0
62.9194 20.0
62.9342 19.0
62.949 20.0
62.9637 27.0
62.9785 29.0
62.9933 29.0
63.0081 17.0
63.0228 22.0
63.0376 29.0
63.0524 27.0
63.0671 30.0
63.0819 25.0
63.0967 26.0
63.1115 34.0
63.1262 22.0
63.141 22.0
63.1558 27.0
63.1705 25.0
63.1853 26.0
63.2001 21.0
63.2149 28.0
63.2296 25.0
63.2444 42.0
63.2592 28.0
63.2739 33.0
63.2887 25.0
63.3035 42.0
63.3183 28.0
63.333 24.0
63.3478 44.0
63.3626 38.0
63.3773 29.0
63.3921 37.0
63.4069 33.0
63.4217 37.0
63.4364 41.0
63.4512 38.0
63.466 37.0
63.4807 34.0
63.4955 45.0
63.5103 40.0
63.5251 40.0
63.5398 47.0
63.5546 39.0
63.5694 37.0
63.5841 41.0
63.5989 43.0
63.6137 53.0
63.6285 34.0
63.6432 36.0
63.658 45.0
63.6728 50.0
63.6875 42.0
63.7023 50.0
63.7171 42.0
63.7319 41.0
63.7466 43.0
63.7614 43.0
63.7762 45.0
63.7909 60.0
63.8057 56.0
63.8205 60.0
63.8353 63.0
63.85 63.0
63.8648 56.0
63.8796 46.0
63.8943 60.0
63.9091 64.0
63.9239 62.0
63.9387 63.0
63.9534 56.0
63.9682 70.0
63.983 65.0
63.9977 75.0
64.0125 84.0
64.0273 57.0
64.0421 64.0
64.0568 84.0
64.0716 80.0
64.0864 84.0
64.1011 68.0
64.1159 68.0
64.1307 89.0
64.1455 81.0
64.1602 112.0
64.175 83.0
64.1898 96.0
64.2045 99.0
64.2193 120.0
64.2341 104.0
64.2489 113.0
64.2636 125.0
64.2784 125.0
64.2932 125.0
64.3079 116.0
64.3227 145.0
64.3375 133.0
64.3523 140.0
64.367 149.0
64.3818 151.0
64.3966 167.0
64.4114 187.0
64.4261 185.0
64.4409 200.0
64.4557 195.0
64.4704 211.0
64.4852 227.0
64.5 270.0
64.5148 276.0
64.5295 293.0
64.5443 272.0
64.5591 304.0
64.5738 367.0
64.5886 343.0
64.6034 328.0
64.6182 409.0
64.6329 417.0
64.6477 447.0
64.6625 425.0
64.6772 461.0
64.692 446.0
64.7068 464.0
64.7216 481.0
64.7363 456.0
64.7511 449.0
64.7659 413.0
64.7806 451.0
64.7954 431.0
64.8102 371.0
64.825 380.0
64.8397 385.0
64.8545 352.0
64.8693 347.0
64.884 354.0
64.8988 343.0
64.9136 329.0
64.9284 292.0
64.9431 265.0
64.9579 292.0
64.9727 240.0
64.9874 235.0
65.0022 193.0
65.017 179.0
65.0318 180.0
65.0465 152.0
65.0613 136.0
65.0761 146.0
65.0908 139.0
65.1056 128.0
65.1204 138.0
65.1352 110.0
65.1499 104.0
65.1647 98.0
65.1795 96.0
65.1942 92.0
65.209 79.0
65.2238 91.0
65.2386 80.0
65.2533 79.0
65.2681 83.0
65.2829 57.0
65.2976 62.0
65.3124 58.0
65.3272 62.0
65.342 82.0
65.3567 64.0
65.3715 52.0
65.3863 66.0
65.401 66.0
65.4158 61.0
65.4306 63.0
65.4454 54.0
65.4601 50.0
65.4749 53.0
65.4897 60.0
65.5044 54.0
65.5192 54.0
65.534 55.0
65.5488 49.0
65.5635 60.0
65.5783 57.0
65.5931 51.0
65.6078 38.0
65.6226 73.0
65.6374 58.0
65.6522 48.0
65.6669 42.0
65.6817 64.0
65.6965 58.0
65.7112 63.0
65.726 51.0
65.7408 43.0
65.7556 65.0
65.7703 66.0
65.7851 44.0
65.7999 61.0
65.8146 66.0
65.8294 57.0
65.8442 40.0
65.859 49.0
65.8737 48.0
65.8885 53.0
65.9033 47.0
65.9181 52.0
65.9328 47.0
65.9476 51.0
65.9624 49.0
65.9771 52.0
65.9919 54.0
66.0067 51.0
66.0215 66.0
66.0362 64.0
66.051 56.0
66.0658 56.0
66.0805 68.0
66.0953 70.0
66.1101 62.0
66.1249 63.0
66.1396 59.0
66.1544 73.0
66.1692 73.0
66.1839 67.0
66.1987 58.0
66.2135 78.0
66.2283 68.0
66.243 63.0
66.2578 65.0
66.2726 61.0
66.2873 70.0
66.3021 85.0
66.3169 71.0
66.3317 77.0
66.3464 78.0
66.3612 68.0
66.376 71.0
66.3907 89.0
66.4055 67.0
66.4203 77.0
66.4351 91.0
66.4498 80.0
66.4646 77.0
66.4794 79.0
66.4941 70.0
66.5089 87.0
66.5237 86.0
66.5385 94.0
66.5532 91.0
66.568 99.0
66.5828 85.0
66.5975 99.0
66.6123 101.0
66.6271 89.0
66.6419 88.0
66.6566 101.0
66.6714 107.0
66.6862 89.0
66.7009 106.0
66.7157 99.0
66.7305 121.0
66.7453 100.0
66.76 86.0
66.7748 108.0
66.7896 113.0
66.8043 118.0
66.8191 114.0
66.8339 102.0
66.8487 129.0
66.8634 97.0
66.8782 123.0
66.893 116.0
66.9077 124.0
66.9225 128.0
66.9373 127.0
66.9521 121.0
66.9668 107.0
66.9816 129.0
66.9964 134.0
67.0111 133.0
67.0259 148.0
67.0407 133.0
67.0555 140.0
67.0702 142.0
67.085 153.0
67.0998 134.0
67.1145 156.0
67.1293 153.0
67.1441 152.0
67.1589 165.0
67.1736 165.0
67.1884 151.0
67.2032 166.0
67.2179 186.0
67.2327 189.0
67.2475 181.0
67.2623 180.0
67.277 190.0
67.2918 185.0
67.3066 201.0
67.3213 191.0
67.3361 197.0
67.3509 197.0
67.3657 255.0
67.3804 206.0
67.3952 214.0
67.41 207.0
67.4248 203.0
67.4395 199.0
67.4543 209.0
67.4691 291.0
67.4838 310.0
67.4986 312.0
67.5134 322.0
67.5282 326.0
67.5429 334.0
67.5577 369.0
67.5725 396.0
67.5872 355.0
67.602 401.0
67.6168 398.0
67.6316 433.0
67.6463 514.0
67.6611 548.0
67.6759 576.0
67.6906 688.0
67.7054 730.0
67.7202 873.0
67.735 1015.0
67.7497 1245.0
67.7645 1360.0
67.7793 1438.0
67.794 1558.0
67.8088 1508.0
67.8236 1481.0
67.8384 1412.0
67.8531 1405.0
67.8679 1412.0
67.8827 1484.0
67.8974 1526.0
67.9122 1607.0
67.927 1763.0
67.9418 2055.0
67.9565 2315.0
67.9713 2904.0
67.9861 3445.0
68.0008 4220.0
68.0156 5635.0
68.0304 7489.0
68.0452 11273.0
68.0599 18776.0
68.0747 40353.0
68.0895 97773.0
68.1042 146880.0
68.119 158015.0
68.1338 128248.0
68.1486 65545.0
68.1633 32104.0
68.1781 17867.0
68.1929 11243.0
68.2076 8537.0
68.2224 8043.0
68.2372 8987.0
68.252 12889.0
68.2667 23357.0
68.2815 48351.0
68.2963 71718.0
68.311 78976.0
68.3258 65689.0
68.3406 38324.0
68.3554 19174.0
68.3701 10332.0
68.3849 6430.0
68.3997 4658.0
68.4144 3405.0
68.4292 2757.0
68.444 2330.0
68.4588 2045.0
68.4735 1799.0
68.4883 1651.0
68.5031 1420.0
68.5178 1301.0
68.5326 1196.0
68.5474 1104.0
68.5622 1002.0
68.5769 936.0
68.5917 900.0
68.6065 825.0
68.6212 776.0
68.636 761.0
68.6508 722.0
68.6656 654.0
68.6803 601.0
68.6951 559.0
68.7099 581.0
68.7246 526.0
68.7394 554.0
68.7542 485.0
68.769 507.0
68.7837 471.0
68.7985 428.0
68.8133 427.0
68.828 429.0
68.8428 380.0
68.8576 380.0
68.8724 388.0
68.8871 329.0
68.9019 349.0
68.9167 337.0
68.9315 300.0
68.9462 354.0
68.961 302.0
68.9758 328.0
68.9905 319.0
69.0053 283.0
69.0201 282.0
69.0349 304.0
69.0496 276.0
69.0644 296.0
69.0792 216.0
69.0939 267.0
69.1087 210.0
69.1235 206.0
69.1383 195.0
69.153 190.0
69.1678 214.0
69.1826 177.0
69.1973 190.0
69.2121 162.0
69.2269 166.0
69.2417 170.0
69.2564 177.0
69.2712 173.0
69.286 169.0
69.3007 163.0
69.3155 162.0
69.3303 143.0
69.3451 151.0
69.3598 146.0
69.3746 148.0
69.3894 134.0
69.4041 164.0
69.4189 148.0
69.4337 124.0
69.4485 115.0
69.4632 129.0
69.478 132.0
69.4928 132.0
69.5075 120.0
69.5223 123.0
69.5371 111.0
69.5519 80.0
69.5666 101.0
69.5814 98.0
69.5962 106.0
69.6109 101.0
69.6257 92.0
69.6405 101.0
69.6553 93.0
69.67 93.0
69.6848 74.0
69.6996 82.0
69.7143 72.0
69.7291 77.0
69.7439 77.0
69.7587 97.0
69.7734 74.0
69.7882 69.0
69.803 94.0
69.8177 66.0
69.8325 84.0
69.8473 63.0
69.8621 59.0
69.8768 65.0
69.8916 75.0
69.9064 61.0
69.9211 66.0
69.9359 57.0
69.9507 52.0
69.9655 60.0
69.9802 80.0
69.995 63.0
70.0098 56.0
70.0245 69.0
70.0393 63.0
70.0541 48.0
70.0689 46.0
70.0836 41.0
70.0984 37.0
70.1132 42.0
70.1279 56.0
70.1427 56.0
70.1575 44.0
70.1723 46.0
70.187 37.0
70.2018 36.0
70.2166 41.0
70.2313 49.0
70.2461 27.0
70.2609 40.0
70.2757 36.0
70.2904 36.0
70.3052 49.0
70.32 34.0
70.3347 40.0
70.3495 44.0
70.3643 28.0
70.3791 41.0
70.3938 30.0
70.4086 31.0
70.4234 35.0
70.4382 29.0
70.4529 39.0
70.4677 38.0
70.4825 29.0
70.4972 32.0
70.512 37.0
70.5268 34.0
70.5416 35.0
70.5563 40.0
70.5711 29.0
70.5859 33.0
70.6006 35.0
70.6154 36.0
70.6302 25.0
70.645 30.0
70.6597 35.0
70.6745 42.0
70.6893 31.0
70.704 38.0
70.7188 23.0
70.7336 29.0
70.7484 25.0
70.7631 33.0
70.7779 31.0
70.7927 29.0
70.8074 28.0
70.8222 22.0
70.837 19.0
70.8518 29.0
70.8665 35.0
70.8813 22.0
70.8961 24.0
70.9108 27.0
70.9256 26.0
70.9404 24.0
70.9552 21.0
70.9699 25.0
70.9847 34.0
70.9995 27.0
71.0142 25.0
71.029 20.0
71.0438 22.0
71.0586 20.0
71.0733 22.0
71.0881 18.0
71.1029 26.0
71.1176 25.0
71.1324 23.0
71.1472 30.0
71.162 25.0
71.1767 26.0
71.1915 20.0
71.2063 23.0
71.221 23.0
71.2358 20.0
71.2506 19.0
71.2654 26.0
71.2801 22.0
71.2949 26.0
71.3097 19.0
71.3244 20.0
71.3392 23.0
71.354 17.0
71.3688 12.0
71.3835 25.0
71.3983 25.0
71.4131 26.0
71.4278 23.0
71.4426 24.0
71.4574 15.0
71.4722 16.0
71.4869 23.0
71.5017 19.0
71.5165 25.0
71.5312 33.0
71.546 18.0
71.5608 25.0
71.5756 13.0
71.5903 25.0
71.6051 23.0
71.6199 18.0
71.6346 12.0
71.6494 24.0
71.6642 23.0
71.679 22.0
71.6937 16.0
71.7085 9.0
71.7233 19.0
71.738 12.0
71.7528 23.0
71.7676 24.0
71.7824 17.0
71.7971 18.0
71.8119 18.0
71.8267 15.0
71.8414 14.0
71.8562 17.0
71.871 15.0
71.8858 14.0
71.9005 17.0
71.9153 12.0
71.9301 18.0
71.9449 17.0
71.9596 16.0
71.9744 20.0
71.9892 18.0
72.0039 17.0
72.0187 18.0
72.0335 20.0
72.0483 17.0
72.063 12.0
72.0778 12.0
72.0926 15.0
72.1073 16.0
72.1221 24.0
72.1369 22.0
72.1517 7.0
72.1664 20.0
72.1812 16.0
72.196 21.0
72.2107 16.0
72.2255 18.0
72.2403 27.0
72.2551 15.0
72.2698 13.0
72.2846 17.0
72.2994 24.0
72.3141 24.0
72.3289 18.0
72.3437 18.0
72.3585 14.0
72.3732 20.0
72.388 19.0
72.4028 16.0
72.4175 17.0
72.4323 19.0
72.4471 15.0
72.4619 19.0
72.4766 20.0
72.4914 17.0
72.5062 21.0
72.5209 16.0
72.5357 16.0
72.5505 23.0
72.5653 11.0
72.58 11.0
72.5948 15.0
72.6096 11.0
72.6243 21.0
72.6391 21.0
72.6539 18.0
72.6687 20.0
72.6834 17.0
72.6982 8.0
72.713 13.0
72.7277 14.0
72.7425 18.0
72.7573 15.0
72.7721 17.0
72.7868 12.0
72.8016 16.0
72.8164 14.0
72.8311 13.0
72.8459 10.0
72.8607 16.0
72.8755 14.0
72.8902 17.0
72.905 16.0
72.9198 18.0
72.9345 14.0
72.9493 24.0
72.9641 19.0
72.9789 14.0
72.9936 15.0
73.0084 18.0
73.0232 13.0
73.0379 15.0
73.0527 9.0
73.0675 10.0
73.0823 18.0
73.097 17.0
73.1118 12.0
73.1266 17.0
73.1413 17.0
73.1561 13.0
73.1709 9.0
73.1857 11.0
73.2004 15.0
73.2152 12.0
73.23 10.0
73.2447 19.0
73.2595 13.0
73.2743 11.0
73.2891 17.0
73.3038 11.0
73.3186 16.0
73.3334 11.0
73.3481 11.0
73.3629 7.0
73.3777 14.0
73.3925 11.0
73.4072 11.0
73.422 16.0
73.4368 13.0
73.4516 11.0
73.4663 18.0
73.4811 11.0
73.4959 11.0
73.5106 10.0
73.5254 11.0
73.5402 16.0
73.555 11.0
73.5697 11.0
73.5845 5.0
73.5993 8.0
73.614 11.0
73.6288 17.0
73.6436 20.0
73.6584 7.0
73.6731 12.0
73.6879 15.0
73.7027 12.0
73.7174 16.0
73.7322 6.0
73.747 13.0
73.7618 17.0
73.7765 10.0
73.7913 14.0
73.8061 11.0
73.8208 8.0
73.8356 8.0
73.8504 18.0
73.8652 18.0
73.8799 5.0
73.8947 9.0
73.9095 14.0
73.9242 16.0
73.939 15.0
73.9538 4.0
73.9686 9.0
73.9833 12.0
73.9981 7.0
74.0129 14.0
74.0276 6.0
74.0424 9.0
74.0572 9.0
74.072 17.0
74.0867 8.0
74.1015 7.0
74.1163 12.0
74.131 13.0
74.1458 20.0
74.1606 18.0
74.1754 6.0
74.1901 10.0
74.2049 15.0
74.2197 10.0
74.2344 8.0
74.2492 14.0
74.264 13.0
74.2788 10.0
74.2935 16.0
74.3083 12.0
74.3231 13.0
74.3378 10.0
74.3526 6.0
74.3674 11.0
74.3822 17.0
74.3969 17.0
74.4117 12.0
74.4265 11.0
74.4412 11.0
74.456 14.0
74.4708 8.0
74.4856 11.0
74.5003 15.0
74.5151 10.0
74.5299 15.0
74.5446 6.0
74.5594 13.0
74.5742 10.0
74.589 11.0
74.6037 10.0
74.6185 6.0
74.6333 13.0
74.648 8.0
74.6628 8.0
74.6776 8.0
74.6924 17.0
74.7071 9.0
74.7219 14.0
74.7367 6.0
74.7514 6.0
74.7662 11.0
74.781 13.0
74.7958 8.0
74.8105 15.0
74.8253 7.0
74.8401 6.0
74.8548 11.0
74.8696 4.0
74.8844 21.0
74.8992 11.0
74.9139 5.0
74.9287 6.0
74.9435 12.0
74.9583 9.0
74.973 14.0
74.9878 16.0
74.9976 16.0