File: data/W6716/XRD_2ThetaOmega/phi270scan_2th-om_m_Cr2O3_55-75deg_PIXscan_4min_W6716_8.xy
55.0019 12.0
55.0166 13.0
55.0314 15.0
55.0462 6.0
55.0609 7.0
55.0757 8.0
55.0905 12.0
55.1053 5.0
55.12 9.0
55.1348 9.0
55.1496 12.0
55.1643 5.0
55.1791 7.0
55.1939 8.0
55.2087 9.0
55.2234 10.0
55.2382 17.0
55.253 13.0
55.2678 11.0
55.2825 13.0
55.2973 13.0
55.3121 20.0
55.3268 6.0
55.3416 10.0
55.3564 5.0
55.3712 6.0
55.3859 14.0
55.4007 13.0
55.4155 12.0
55.4302 14.0
55.445 6.0
55.4598 17.0
55.4746 12.0
55.4893 17.0
55.5041 16.0
55.5189 9.0
55.5336 15.0
55.5484 15.0
55.5632 12.0
55.578 12.0
55.5927 13.0
55.6075 10.0
55.6223 9.0
55.637 9.0
55.6518 9.0
55.6666 11.0
55.6814 8.0
55.6961 13.0
55.7109 13.0
55.7257 14.0
55.7404 8.0
55.7552 17.0
55.77 5.0
55.7848 9.0
55.7995 14.0
55.8143 15.0
55.8291 13.0
55.8438 15.0
55.8586 10.0
55.8734 9.0
55.8882 9.0
55.9029 11.0
55.9177 11.0
55.9325 7.0
55.9472 14.0
55.962 8.0
55.9768 6.0
55.9916 10.0
56.0063 16.0
56.0211 12.0
56.0359 9.0
56.0506 10.0
56.0654 10.0
56.0802 11.0
56.095 10.0
56.1097 8.0
56.1245 8.0
56.1393 12.0
56.154 6.0
56.1688 7.0
56.1836 11.0
56.1984 14.0
56.2131 9.0
56.2279 9.0
56.2427 14.0
56.2574 12.0
56.2722 7.0
56.287 8.0
56.3018 11.0
56.3165 13.0
56.3313 11.0
56.3461 14.0
56.3608 9.0
56.3756 6.0
56.3904 11.0
56.4052 6.0
56.4199 13.0
56.4347 5.0
56.4495 6.0
56.4642 13.0
56.479 10.0
56.4938 13.0
56.5086 10.0
56.5233 10.0
56.5381 10.0
56.5529 9.0
56.5676 15.0
56.5824 16.0
56.5972 18.0
56.612 10.0
56.6267 10.0
56.6415 10.0
56.6563 18.0
56.671 8.0
56.6858 6.0
56.7006 13.0
56.7154 17.0
56.7301 11.0
56.7449 10.0
56.7597 9.0
56.7745 8.0
56.7892 14.0
56.804 10.0
56.8188 16.0
56.8335 14.0
56.8483 8.0
56.8631 17.0
56.8779 7.0
56.8926 11.0
56.9074 10.0
56.9222 7.0
56.9369 10.0
56.9517 14.0
56.9665 8.0
56.9813 8.0
56.996 6.0
57.0108 9.0
57.0256 5.0
57.0403 11.0
57.0551 10.0
57.0699 9.0
57.0847 9.0
57.0994 9.0
57.1142 14.0
57.129 12.0
57.1437 13.0
57.1585 10.0
57.1733 14.0
57.1881 16.0
57.2028 15.0
57.2176 9.0
57.2324 16.0
57.2471 15.0
57.2619 11.0
57.2767 7.0
57.2915 8.0
57.3062 6.0
57.321 10.0
57.3358 20.0
57.3505 9.0
57.3653 19.0
57.3801 9.0
57.3949 9.0
57.4096 16.0
57.4244 9.0
57.4392 11.0
57.4539 8.0
57.4687 9.0
57.4835 13.0
57.4983 8.0
57.513 6.0
57.5278 17.0
57.5426 10.0
57.5573 17.0
57.5721 9.0
57.5869 10.0
57.6017 11.0
57.6164 16.0
57.6312 10.0
57.646 12.0
57.6607 13.0
57.6755 14.0
57.6903 22.0
57.7051 14.0
57.7198 24.0
57.7346 29.0
57.7494 15.0
57.7641 37.0
57.7789 38.0
57.7937 22.0
57.8085 23.0
57.8232 23.0
57.838 21.0
57.8528 29.0
57.8675 23.0
57.8823 32.0
57.8971 25.0
57.9119 22.0
57.9266 14.0
57.9414 29.0
57.9562 18.0
57.9709 14.0
57.9857 18.0
58.0005 16.0
58.0153 17.0
58.03 10.0
58.0448 15.0
58.0596 12.0
58.0743 13.0
58.0891 10.0
58.1039 17.0
58.1187 12.0
58.1334 9.0
58.1482 7.0
58.163 10.0
58.1777 16.0
58.1925 12.0
58.2073 13.0
58.2221 13.0
58.2368 10.0
58.2516 15.0
58.2664 14.0
58.2812 9.0
58.2959 10.0
58.3107 17.0
58.3255 13.0
58.3402 11.0
58.355 12.0
58.3698 12.0
58.3846 5.0
58.3993 14.0
58.4141 11.0
58.4289 6.0
58.4436 12.0
58.4584 10.0
58.4732 14.0
58.488 11.0
58.5027 13.0
58.5175 21.0
58.5323 10.0
58.547 6.0
58.5618 10.0
58.5766 12.0
58.5914 13.0
58.6061 9.0
58.6209 10.0
58.6357 8.0
58.6504 15.0
58.6652 4.0
58.68 15.0
58.6948 4.0
58.7095 14.0
58.7243 14.0
58.7391 10.0
58.7538 20.0
58.7686 12.0
58.7834 15.0
58.7982 8.0
58.8129 10.0
58.8277 12.0
58.8425 12.0
58.8572 15.0
58.872 9.0
58.8868 13.0
58.9016 12.0
58.9163 12.0
58.9311 17.0
58.9459 11.0
58.9606 18.0
58.9754 17.0
58.9902 11.0
59.005 9.0
59.0197 11.0
59.0345 13.0
59.0493 16.0
59.064 13.0
59.0788 11.0
59.0936 11.0
59.1084 15.0
59.1231 9.0
59.1379 15.0
59.1527 5.0
59.1674 11.0
59.1822 3.0
59.197 7.0
59.2118 12.0
59.2265 7.0
59.2413 10.0
59.2561 10.0
59.2708 12.0
59.2856 14.0
59.3004 15.0
59.3152 12.0
59.3299 13.0
59.3447 8.0
59.3595 6.0
59.3742 15.0
59.389 14.0
59.4038 15.0
59.4186 10.0
59.4333 13.0
59.4481 10.0
59.4629 12.0
59.4776 15.0
59.4924 10.0
59.5072 11.0
59.522 8.0
59.5367 10.0
59.5515 12.0
59.5663 12.0
59.581 9.0
59.5958 9.0
59.6106 12.0
59.6254 17.0
59.6401 9.0
59.6549 16.0
59.6697 14.0
59.6844 14.0
59.6992 8.0
59.714 9.0
59.7288 16.0
59.7435 15.0
59.7583 12.0
59.7731 13.0
59.7878 10.0
59.8026 9.0
59.8174 9.0
59.8322 10.0
59.8469 10.0
59.8617 4.0
59.8765 13.0
59.8913 15.0
59.906 13.0
59.9208 10.0
59.9356 14.0
59.9503 5.0
59.9651 18.0
59.9799 16.0
59.9947 6.0
60.0094 18.0
60.0242 10.0
60.039 5.0
60.0537 9.0
60.0685 8.0
60.0833 17.0
60.0981 13.0
60.1128 14.0
60.1276 10.0
60.1424 16.0
60.1571 24.0
60.1719 19.0
60.1867 16.0
60.2015 10.0
60.2162 12.0
60.231 10.0
60.2458 24.0
60.2605 20.0
60.2753 24.0
60.2901 20.0
60.3049 21.0
60.3196 20.0
60.3344 11.0
60.3492 19.0
60.3639 20.0
60.3787 16.0
60.3935 13.0
60.4083 14.0
60.423 25.0
60.4378 17.0
60.4526 17.0
60.4673 15.0
60.4821 11.0
60.4969 18.0
60.5117 16.0
60.5264 16.0
60.5412 21.0
60.556 21.0
60.5707 24.0
60.5855 19.0
60.6003 22.0
60.6151 15.0
60.6298 25.0
60.6446 30.0
60.6594 33.0
60.6741 40.0
60.6889 54.0
60.7037 54.0
60.7185 85.0
60.7332 168.0
60.748 297.0
60.7628 426.0
60.7775 600.0
60.7923 675.0
60.8071 599.0
60.8219 438.0
60.8366 321.0
60.8514 227.0
60.8662 216.0
60.8809 163.0
60.8957 153.0
60.9105 102.0
60.9253 67.0
60.94 49.0
60.9548 38.0
60.9696 32.0
60.9843 44.0
60.9991 36.0
61.0139 35.0
61.0287 33.0
61.0434 49.0
61.0582 32.0
61.073 32.0
61.0877 23.0
61.1025 33.0
61.1173 34.0
61.1321 21.0
61.1468 16.0
61.1616 26.0
61.1764 22.0
61.1911 23.0
61.2059 19.0
61.2207 24.0
61.2355 19.0
61.2502 20.0
61.265 23.0
61.2798 26.0
61.2945 25.0
61.3093 22.0
61.3241 16.0
61.3389 20.0
61.3536 25.0
61.3684 22.0
61.3832 22.0
61.398 17.0
61.4127 16.0
61.4275 12.0
61.4423 19.0
61.457 17.0
61.4718 16.0
61.4866 20.0
61.5014 23.0
61.5161 24.0
61.5309 15.0
61.5457 18.0
61.5604 20.0
61.5752 20.0
61.59 22.0
61.6048 20.0
61.6195 11.0
61.6343 15.0
61.6491 15.0
61.6638 17.0
61.6786 15.0
61.6934 17.0
61.7082 17.0
61.7229 14.0
61.7377 21.0
61.7525 27.0
61.7672 15.0
61.782 22.0
61.7968 28.0
61.8116 23.0
61.8263 19.0
61.8411 9.0
61.8559 29.0
61.8706 23.0
61.8854 16.0
61.9002 25.0
61.915 18.0
61.9297 19.0
61.9445 15.0
61.9593 16.0
61.974 9.0
61.9888 21.0
62.0036 15.0
62.0184 16.0
62.0331 21.0
62.0479 23.0
62.0627 21.0
62.0774 28.0
62.0922 14.0
62.107 21.0
62.1218 15.0
62.1365 16.0
62.1513 27.0
62.1661 20.0
62.1808 23.0
62.1956 17.0
62.2104 23.0
62.2252 24.0
62.2399 15.0
62.2547 16.0
62.2695 28.0
62.2842 14.0
62.299 22.0
62.3138 20.0
62.3286 27.0
62.3433 25.0
62.3581 23.0
62.3729 23.0
62.3876 21.0
62.4024 24.0
62.4172 25.0
62.432 26.0
62.4467 31.0
62.4615 16.0
62.4763 27.0
62.491 15.0
62.5058 15.0
62.5206 29.0
62.5354 23.0
62.5501 18.0
62.5649 19.0
62.5797 20.0
62.5944 29.0
62.6092 24.0
62.624 20.0
62.6388 23.0
62.6535 30.0
62.6683 18.0
62.6831 22.0
62.6978 26.0
62.7126 29.0
62.7274 27.0
62.7422 26.0
62.7569 23.0
62.7717 21.0
62.7865 27.0
62.8012 22.0
62.816 22.0
62.8308 26.0
62.8456 22.0
62.8603 24.0
62.8751 27.0
62.8899 34.0
62.9047 31.0
62.9194 32.0
62.9342 26.0
62.949 25.0
62.9637 30.0
62.9785 26.0
62.9933 28.0
63.0081 35.0
63.0228 38.0
63.0376 28.0
63.0524 37.0
63.0671 32.0
63.0819 40.0
63.0967 40.0
63.1115 33.0
63.1262 35.0
63.141 39.0
63.1558 42.0
63.1705 26.0
63.1853 28.0
63.2001 34.0
63.2149 39.0
63.2296 32.0
63.2444 39.0
63.2592 32.0
63.2739 39.0
63.2887 35.0
63.3035 43.0
63.3183 44.0
63.333 34.0
63.3478 38.0
63.3626 39.0
63.3773 44.0
63.3921 51.0
63.4069 52.0
63.4217 41.0
63.4364 31.0
63.4512 51.0
63.466 37.0
63.4807 47.0
63.4955 49.0
63.5103 44.0
63.5251 59.0
63.5398 36.0
63.5546 64.0
63.5694 44.0
63.5841 51.0
63.5989 59.0
63.6137 47.0
63.6285 49.0
63.6432 61.0
63.658 62.0
63.6728 58.0
63.6875 65.0
63.7023 60.0
63.7171 56.0
63.7319 69.0
63.7466 62.0
63.7614 60.0
63.7762 65.0
63.7909 72.0
63.8057 71.0
63.8205 71.0
63.8353 74.0
63.85 78.0
63.8648 91.0
63.8796 78.0
63.8943 80.0
63.9091 78.0
63.9239 93.0
63.9387 84.0
63.9534 93.0
63.9682 79.0
63.983 121.0
63.9977 103.0
64.0125 107.0
64.0273 113.0
64.0421 113.0
64.0568 120.0
64.0716 151.0
64.0864 130.0
64.1011 137.0
64.1159 119.0
64.1307 137.0
64.1455 159.0
64.1602 143.0
64.175 153.0
64.1898 182.0
64.2045 190.0
64.2193 219.0
64.2341 178.0
64.2489 266.0
64.2636 225.0
64.2784 284.0
64.2932 271.0
64.3079 297.0
64.3227 294.0
64.3375 332.0
64.3523 343.0
64.367 321.0
64.3818 410.0
64.3966 455.0
64.4114 460.0
64.4261 536.0
64.4409 587.0
64.4557 598.0
64.4704 698.0
64.4852 773.0
64.5 834.0
64.5148 916.0
64.5295 1036.0
64.5443 1116.0
64.5591 1262.0
64.5738 1441.0
64.5886 1682.0
64.6034 1829.0
64.6182 2052.0
64.6329 2144.0
64.6477 2345.0
64.6625 2452.0
64.6772 2536.0
64.692 2490.0
64.7068 2526.0
64.7216 2487.0
64.7363 2457.0
64.7511 2330.0
64.7659 2311.0
64.7806 2251.0
64.7954 2152.0
64.8102 2107.0
64.825 1849.0
64.8397 1855.0
64.8545 1891.0
64.8693 1659.0
64.884 1626.0
64.8988 1557.0
64.9136 1480.0
64.9284 1323.0
64.9431 1172.0
64.9579 1065.0
64.9727 981.0
64.9874 843.0
65.0022 789.0
65.017 675.0
65.0318 566.0
65.0465 536.0
65.0613 471.0
65.0761 443.0
65.0908 366.0
65.1056 367.0
65.1204 296.0
65.1352 268.0
65.1499 257.0
65.1647 258.0
65.1795 227.0
65.1942 202.0
65.209 185.0
65.2238 169.0
65.2386 187.0
65.2533 137.0
65.2681 136.0
65.2829 145.0
65.2976 138.0
65.3124 140.0
65.3272 112.0
65.342 120.0
65.3567 119.0
65.3715 119.0
65.3863 95.0
65.401 122.0
65.4158 107.0
65.4306 88.0
65.4454 84.0
65.4601 81.0
65.4749 81.0
65.4897 67.0
65.5044 66.0
65.5192 73.0
65.534 79.0
65.5488 86.0
65.5635 81.0
65.5783 80.0
65.5931 62.0
65.6078 73.0
65.6226 77.0
65.6374 77.0
65.6522 61.0
65.6669 75.0
65.6817 84.0
65.6965 59.0
65.7112 73.0
65.726 55.0
65.7408 55.0
65.7556 63.0
65.7703 84.0
65.7851 70.0
65.7999 70.0
65.8146 64.0
65.8294 65.0
65.8442 66.0
65.859 68.0
65.8737 67.0
65.8885 62.0
65.9033 61.0
65.9181 77.0
65.9328 69.0
65.9476 60.0
65.9624 64.0
65.9771 69.0
65.9919 74.0
66.0067 74.0
66.0215 73.0
66.0362 71.0
66.051 81.0
66.0658 70.0
66.0805 81.0
66.0953 59.0
66.1101 67.0
66.1249 74.0
66.1396 70.0
66.1544 73.0
66.1692 59.0
66.1839 74.0
66.1987 79.0
66.2135 69.0
66.2283 82.0
66.243 66.0
66.2578 86.0
66.2726 69.0
66.2873 60.0
66.3021 68.0
66.3169 88.0
66.3317 75.0
66.3464 98.0
66.3612 96.0
66.376 82.0
66.3907 80.0
66.4055 80.0
66.4203 76.0
66.4351 87.0
66.4498 76.0
66.4646 101.0
66.4794 81.0
66.4941 91.0
66.5089 95.0
66.5237 93.0
66.5385 96.0
66.5532 95.0
66.568 107.0
66.5828 106.0
66.5975 75.0
66.6123 96.0
66.6271 89.0
66.6419 112.0
66.6566 103.0
66.6714 102.0
66.6862 94.0
66.7009 101.0
66.7157 119.0
66.7305 98.0
66.7453 121.0
66.76 86.0
66.7748 122.0
66.7896 112.0
66.8043 112.0
66.8191 105.0
66.8339 145.0
66.8487 123.0
66.8634 128.0
66.8782 126.0
66.893 124.0
66.9077 111.0
66.9225 124.0
66.9373 140.0
66.9521 124.0
66.9668 133.0
66.9816 141.0
66.9964 157.0
67.0111 133.0
67.0259 146.0
67.0407 138.0
67.0555 146.0
67.0702 153.0
67.085 142.0
67.0998 160.0
67.1145 155.0
67.1293 186.0
67.1441 154.0
67.1589 173.0
67.1736 161.0
67.1884 174.0
67.2032 174.0
67.2179 174.0
67.2327 169.0
67.2475 168.0
67.2623 183.0
67.277 192.0
67.2918 208.0
67.3066 217.0
67.3213 187.0
67.3361 200.0
67.3509 287.0
67.3657 257.0
67.3804 281.0
67.3952 279.0
67.41 274.0
67.4248 301.0
67.4395 315.0
67.4543 286.0
67.4691 323.0
67.4838 337.0
67.4986 326.0
67.5134 303.0
67.5282 360.0
67.5429 356.0
67.5577 392.0
67.5725 382.0
67.5872 369.0
67.602 389.0
67.6168 429.0
67.6316 476.0
67.6463 517.0
67.6611 554.0
67.6759 585.0
67.6906 661.0
67.7054 819.0
67.7202 947.0
67.735 1074.0
67.7497 1210.0
67.7645 1346.0
67.7793 1399.0
67.794 1372.0
67.8088 1502.0
67.8236 1406.0
67.8384 1409.0
67.8531 1388.0
67.8679 1393.0
67.8827 1365.0
67.8974 1499.0
67.9122 1670.0
67.927 1752.0
67.9418 2093.0
67.9565 2367.0
67.9713 2933.0
67.9861 3518.0
68.0008 4346.0
68.0156 5783.0
68.0304 7850.0
68.0452 12183.0
68.0599 21373.0
68.0747 48710.0
68.0895 108486.0
68.1042 143624.0
68.119 148601.0
68.1338 109361.0
68.1486 53611.0
68.1633 26798.0
68.1781 14873.0
68.1929 9906.0
68.2076 8132.0
68.2224 7903.0
68.2372 9313.0
68.252 13873.0
68.2667 27266.0
68.2815 52970.0
68.2963 71930.0
68.311 74578.0
68.3258 57008.0
68.3406 31491.0
68.3554 15765.0
68.3701 8978.0
68.3849 5704.0
68.3997 3904.0
68.4144 3151.0
68.4292 2580.0
68.444 2171.0
68.4588 1813.0
68.4735 1649.0
68.4883 1499.0
68.5031 1367.0
68.5178 1267.0
68.5326 1141.0
68.5474 1036.0
68.5622 954.0
68.5769 894.0
68.5917 820.0
68.6065 816.0
68.6212 720.0
68.636 659.0
68.6508 656.0
68.6656 623.0
68.6803 633.0
68.6951 612.0
68.7099 543.0
68.7246 536.0
68.7394 530.0
68.7542 512.0
68.769 481.0
68.7837 430.0
68.7985 399.0
68.8133 402.0
68.828 382.0
68.8428 367.0
68.8576 350.0
68.8724 345.0
68.8871 355.0
68.9019 326.0
68.9167 308.0
68.9315 300.0
68.9462 327.0
68.961 284.0
68.9758 300.0
68.9905 313.0
69.0053 277.0
69.0201 289.0
69.0349 205.0
69.0496 257.0
69.0644 260.0
69.0792 205.0
69.0939 198.0
69.1087 195.0
69.1235 189.0
69.1383 170.0
69.153 212.0
69.1678 174.0
69.1826 186.0
69.1973 170.0
69.2121 155.0
69.2269 147.0
69.2417 175.0
69.2564 145.0
69.2712 152.0
69.286 147.0
69.3007 138.0
69.3155 145.0
69.3303 145.0
69.3451 134.0
69.3598 125.0
69.3746 133.0
69.3894 146.0
69.4041 120.0
69.4189 112.0
69.4337 114.0
69.4485 114.0
69.4632 112.0
69.478 101.0
69.4928 114.0
69.5075 103.0
69.5223 79.0
69.5371 100.0
69.5519 91.0
69.5666 101.0
69.5814 91.0
69.5962 100.0
69.6109 77.0
69.6257 86.0
69.6405 83.0
69.6553 74.0
69.67 87.0
69.6848 94.0
69.6996 71.0
69.7143 88.0
69.7291 67.0
69.7439 74.0
69.7587 75.0
69.7734 69.0
69.7882 64.0
69.803 58.0
69.8177 67.0
69.8325 66.0
69.8473 71.0
69.8621 60.0
69.8768 63.0
69.8916 56.0
69.9064 61.0
69.9211 58.0
69.9359 53.0
69.9507 60.0
69.9655 51.0
69.9802 52.0
69.995 61.0
70.0098 46.0
70.0245 54.0
70.0393 45.0
70.0541 58.0
70.0689 59.0
70.0836 43.0
70.0984 47.0
70.1132 44.0
70.1279 45.0
70.1427 46.0
70.1575 47.0
70.1723 43.0
70.187 40.0
70.2018 35.0
70.2166 54.0
70.2313 40.0
70.2461 39.0
70.2609 43.0
70.2757 32.0
70.2904 35.0
70.3052 44.0
70.32 40.0
70.3347 47.0
70.3495 49.0
70.3643 43.0
70.3791 37.0
70.3938 35.0
70.4086 32.0
70.4234 35.0
70.4382 37.0
70.4529 32.0
70.4677 40.0
70.4825 43.0
70.4972 46.0
70.512 32.0
70.5268 25.0
70.5416 31.0
70.5563 21.0
70.5711 29.0
70.5859 30.0
70.6006 39.0
70.6154 28.0
70.6302 43.0
70.645 29.0
70.6597 28.0
70.6745 20.0
70.6893 40.0
70.704 26.0
70.7188 28.0
70.7336 34.0
70.7484 18.0
70.7631 40.0
70.7779 27.0
70.7927 26.0
70.8074 25.0
70.8222 25.0
70.837 24.0
70.8518 28.0
70.8665 27.0
70.8813 26.0
70.8961 29.0
70.9108 22.0
70.9256 25.0
70.9404 30.0
70.9552 19.0
70.9699 29.0
70.9847 20.0
70.9995 28.0
71.0142 22.0
71.029 30.0
71.0438 25.0
71.0586 19.0
71.0733 30.0
71.0881 28.0
71.1029 23.0
71.1176 21.0
71.1324 30.0
71.1472 21.0
71.162 25.0
71.1767 20.0
71.1915 22.0
71.2063 20.0
71.221 24.0
71.2358 21.0
71.2506 18.0
71.2654 25.0
71.2801 21.0
71.2949 23.0
71.3097 22.0
71.3244 29.0
71.3392 13.0
71.354 18.0
71.3688 25.0
71.3835 8.0
71.3983 22.0
71.4131 23.0
71.4278 19.0
71.4426 23.0
71.4574 18.0
71.4722 23.0
71.4869 17.0
71.5017 22.0
71.5165 23.0
71.5312 16.0
71.546 21.0
71.5608 20.0
71.5756 17.0
71.5903 21.0
71.6051 17.0
71.6199 14.0
71.6346 23.0
71.6494 19.0
71.6642 19.0
71.679 9.0
71.6937 18.0
71.7085 23.0
71.7233 15.0
71.738 21.0
71.7528 23.0
71.7676 20.0
71.7824 17.0
71.7971 8.0
71.8119 18.0
71.8267 25.0
71.8414 20.0
71.8562 15.0
71.871 15.0
71.8858 17.0
71.9005 16.0
71.9153 15.0
71.9301 23.0
71.9449 19.0
71.9596 22.0
71.9744 18.0
71.9892 17.0
72.0039 15.0
72.0187 15.0
72.0335 22.0
72.0483 14.0
72.063 17.0
72.0778 22.0
72.0926 17.0
72.1073 21.0
72.1221 18.0
72.1369 25.0
72.1517 17.0
72.1664 18.0
72.1812 17.0
72.196 17.0
72.2107 14.0
72.2255 11.0
72.2403 26.0
72.2551 18.0
72.2698 18.0
72.2846 15.0
72.2994 18.0
72.3141 16.0
72.3289 14.0
72.3437 18.0
72.3585 23.0
72.3732 18.0
72.388 15.0
72.4028 8.0
72.4175 8.0
72.4323 16.0
72.4471 11.0
72.4619 17.0
72.4766 24.0
72.4914 12.0
72.5062 23.0
72.5209 12.0
72.5357 19.0
72.5505 22.0
72.5653 17.0
72.58 13.0
72.5948 17.0
72.6096 22.0
72.6243 14.0
72.6391 17.0
72.6539 11.0
72.6687 17.0
72.6834 18.0
72.6982 11.0
72.713 16.0
72.7277 19.0
72.7425 16.0
72.7573 13.0
72.7721 14.0
72.7868 18.0
72.8016 14.0
72.8164 16.0
72.8311 15.0
72.8459 19.0
72.8607 12.0
72.8755 10.0
72.8902 18.0
72.905 13.0
72.9198 13.0
72.9345 20.0
72.9493 18.0
72.9641 12.0
72.9789 16.0
72.9936 18.0
73.0084 19.0
73.0232 6.0
73.0379 12.0
73.0527 12.0
73.0675 24.0
73.0823 9.0
73.097 10.0
73.1118 10.0
73.1266 16.0
73.1413 16.0
73.1561 14.0
73.1709 13.0
73.1857 14.0
73.2004 10.0
73.2152 9.0
73.23 16.0
73.2447 12.0
73.2595 12.0
73.2743 19.0
73.2891 11.0
73.3038 13.0
73.3186 17.0
73.3334 8.0
73.3481 13.0
73.3629 16.0
73.3777 16.0
73.3925 18.0
73.4072 13.0
73.422 12.0
73.4368 18.0
73.4516 19.0
73.4663 17.0
73.4811 15.0
73.4959 9.0
73.5106 13.0
73.5254 19.0
73.5402 11.0
73.555 11.0
73.5697 16.0
73.5845 14.0
73.5993 11.0
73.614 12.0
73.6288 14.0
73.6436 18.0
73.6584 9.0
73.6731 11.0
73.6879 9.0
73.7027 8.0
73.7174 17.0
73.7322 14.0
73.747 7.0
73.7618 9.0
73.7765 8.0
73.7913 18.0
73.8061 13.0
73.8208 16.0
73.8356 8.0
73.8504 14.0
73.8652 7.0
73.8799 9.0
73.8947 12.0
73.9095 14.0
73.9242 18.0
73.939 13.0
73.9538 20.0
73.9686 11.0
73.9833 19.0
73.9981 17.0
74.0129 18.0
74.0276 13.0
74.0424 11.0
74.0572 13.0
74.072 9.0
74.0867 10.0
74.1015 12.0
74.1163 10.0
74.131 21.0
74.1458 12.0
74.1606 10.0
74.1754 11.0
74.1901 12.0
74.2049 11.0
74.2197 12.0
74.2344 12.0
74.2492 25.0
74.264 18.0
74.2788 10.0
74.2935 9.0
74.3083 9.0
74.3231 7.0
74.3378 15.0
74.3526 11.0
74.3674 9.0
74.3822 14.0
74.3969 8.0
74.4117 16.0
74.4265 13.0
74.4412 11.0
74.456 8.0
74.4708 13.0
74.4856 10.0
74.5003 9.0
74.5151 11.0
74.5299 16.0
74.5446 12.0
74.5594 14.0
74.5742 11.0
74.589 17.0
74.6037 16.0
74.6185 17.0
74.6333 10.0
74.648 14.0
74.6628 11.0
74.6776 17.0
74.6924 12.0
74.7071 11.0
74.7219 7.0
74.7367 16.0
74.7514 9.0
74.7662 12.0
74.781 9.0
74.7958 8.0
74.8105 15.0
74.8253 11.0
74.8401 12.0
74.8548 8.0
74.8696 11.0
74.8844 10.0
74.8992 12.0
74.9139 13.0
74.9287 15.0
74.9435 10.0
74.9583 13.0
74.973 12.0
74.9878 6.0
74.9976 9.0