File: data/W6716/XRD_2ThetaOmega/phi90scan_2th-om_m_Cr2O3_55-75deg_PIXscan_4min_W6716_6.xy
55.0019 11.0
55.0166 8.0
55.0314 6.0
55.0462 10.0
55.0609 4.0
55.0757 14.0
55.0905 7.0
55.1053 8.0
55.12 9.0
55.1348 12.0
55.1496 11.0
55.1643 10.0
55.1791 10.0
55.1939 15.0
55.2087 13.0
55.2234 12.0
55.2382 7.0
55.253 8.0
55.2678 15.0
55.2825 15.0
55.2973 10.0
55.3121 15.0
55.3268 12.0
55.3416 12.0
55.3564 10.0
55.3712 17.0
55.3859 11.0
55.4007 13.0
55.4155 9.0
55.4302 14.0
55.445 8.0
55.4598 10.0
55.4746 15.0
55.4893 10.0
55.5041 8.0
55.5189 9.0
55.5336 16.0
55.5484 14.0
55.5632 12.0
55.578 11.0
55.5927 11.0
55.6075 9.0
55.6223 8.0
55.637 11.0
55.6518 7.0
55.6666 13.0
55.6814 9.0
55.6961 8.0
55.7109 7.0
55.7257 14.0
55.7404 8.0
55.7552 8.0
55.77 13.0
55.7848 15.0
55.7995 16.0
55.8143 5.0
55.8291 14.0
55.8438 8.0
55.8586 10.0
55.8734 6.0
55.8882 6.0
55.9029 13.0
55.9177 10.0
55.9325 6.0
55.9472 12.0
55.962 11.0
55.9768 12.0
55.9916 9.0
56.0063 13.0
56.0211 8.0
56.0359 11.0
56.0506 10.0
56.0654 22.0
56.0802 10.0
56.095 18.0
56.1097 17.0
56.1245 15.0
56.1393 12.0
56.154 13.0
56.1688 8.0
56.1836 16.0
56.1984 12.0
56.2131 12.0
56.2279 14.0
56.2427 17.0
56.2574 12.0
56.2722 15.0
56.287 18.0
56.3018 13.0
56.3165 12.0
56.3313 9.0
56.3461 10.0
56.3608 15.0
56.3756 7.0
56.3904 6.0
56.4052 10.0
56.4199 17.0
56.4347 14.0
56.4495 10.0
56.4642 20.0
56.479 9.0
56.4938 9.0
56.5086 9.0
56.5233 9.0
56.5381 10.0
56.5529 13.0
56.5676 6.0
56.5824 11.0
56.5972 8.0
56.612 11.0
56.6267 15.0
56.6415 10.0
56.6563 12.0
56.671 13.0
56.6858 17.0
56.7006 10.0
56.7154 15.0
56.7301 11.0
56.7449 16.0
56.7597 9.0
56.7745 14.0
56.7892 15.0
56.804 12.0
56.8188 16.0
56.8335 15.0
56.8483 11.0
56.8631 9.0
56.8779 14.0
56.8926 15.0
56.9074 10.0
56.9222 12.0
56.9369 10.0
56.9517 7.0
56.9665 12.0
56.9813 13.0
56.996 5.0
57.0108 7.0
57.0256 13.0
57.0403 9.0
57.0551 15.0
57.0699 9.0
57.0847 12.0
57.0994 13.0
57.1142 16.0
57.129 7.0
57.1437 13.0
57.1585 14.0
57.1733 8.0
57.1881 9.0
57.2028 10.0
57.2176 15.0
57.2324 10.0
57.2471 10.0
57.2619 10.0
57.2767 5.0
57.2915 11.0
57.3062 5.0
57.321 20.0
57.3358 10.0
57.3505 15.0
57.3653 10.0
57.3801 14.0
57.3949 10.0
57.4096 18.0
57.4244 10.0
57.4392 11.0
57.4539 14.0
57.4687 17.0
57.4835 13.0
57.4983 13.0
57.513 15.0
57.5278 22.0
57.5426 16.0
57.5573 9.0
57.5721 13.0
57.5869 14.0
57.6017 17.0
57.6164 9.0
57.6312 20.0
57.646 5.0
57.6607 24.0
57.6755 10.0
57.6903 19.0
57.7051 20.0
57.7198 16.0
57.7346 20.0
57.7494 21.0
57.7641 23.0
57.7789 16.0
57.7937 18.0
57.8085 28.0
57.8232 27.0
57.838 28.0
57.8528 21.0
57.8675 18.0
57.8823 20.0
57.8971 31.0
57.9119 20.0
57.9266 15.0
57.9414 19.0
57.9562 25.0
57.9709 22.0
57.9857 14.0
58.0005 10.0
58.0153 17.0
58.03 14.0
58.0448 11.0
58.0596 17.0
58.0743 9.0
58.0891 6.0
58.1039 12.0
58.1187 15.0
58.1334 14.0
58.1482 15.0
58.163 14.0
58.1777 12.0
58.1925 10.0
58.2073 20.0
58.2221 20.0
58.2368 12.0
58.2516 11.0
58.2664 13.0
58.2812 14.0
58.2959 12.0
58.3107 15.0
58.3255 9.0
58.3402 14.0
58.355 10.0
58.3698 10.0
58.3846 10.0
58.3993 16.0
58.4141 16.0
58.4289 13.0
58.4436 13.0
58.4584 13.0
58.4732 19.0
58.488 13.0
58.5027 21.0
58.5175 12.0
58.5323 3.0
58.547 10.0
58.5618 8.0
58.5766 6.0
58.5914 12.0
58.6061 17.0
58.6209 12.0
58.6357 18.0
58.6504 14.0
58.6652 9.0
58.68 12.0
58.6948 17.0
58.7095 10.0
58.7243 9.0
58.7391 8.0
58.7538 11.0
58.7686 13.0
58.7834 20.0
58.7982 8.0
58.8129 8.0
58.8277 12.0
58.8425 12.0
58.8572 16.0
58.872 16.0
58.8868 16.0
58.9016 10.0
58.9163 12.0
58.9311 9.0
58.9459 8.0
58.9606 16.0
58.9754 9.0
58.9902 15.0
59.005 10.0
59.0197 12.0
59.0345 10.0
59.0493 13.0
59.064 13.0
59.0788 16.0
59.0936 11.0
59.1084 20.0
59.1231 13.0
59.1379 6.0
59.1527 11.0
59.1674 20.0
59.1822 14.0
59.197 6.0
59.2118 10.0
59.2265 15.0
59.2413 16.0
59.2561 10.0
59.2708 12.0
59.2856 9.0
59.3004 15.0
59.3152 20.0
59.3299 13.0
59.3447 8.0
59.3595 21.0
59.3742 14.0
59.389 17.0
59.4038 10.0
59.4186 12.0
59.4333 15.0
59.4481 16.0
59.4629 11.0
59.4776 13.0
59.4924 14.0
59.5072 14.0
59.522 13.0
59.5367 12.0
59.5515 10.0
59.5663 10.0
59.581 8.0
59.5958 12.0
59.6106 10.0
59.6254 11.0
59.6401 12.0
59.6549 12.0
59.6697 8.0
59.6844 13.0
59.6992 9.0
59.714 12.0
59.7288 11.0
59.7435 14.0
59.7583 7.0
59.7731 13.0
59.7878 17.0
59.8026 13.0
59.8174 10.0
59.8322 6.0
59.8469 19.0
59.8617 19.0
59.8765 10.0
59.8913 9.0
59.906 14.0
59.9208 14.0
59.9356 14.0
59.9503 8.0
59.9651 16.0
59.9799 13.0
59.9947 15.0
60.0094 12.0
60.0242 15.0
60.039 7.0
60.0537 14.0
60.0685 7.0
60.0833 18.0
60.0981 12.0
60.1128 6.0
60.1276 9.0
60.1424 15.0
60.1571 9.0
60.1719 16.0
60.1867 13.0
60.2015 18.0
60.2162 13.0
60.231 23.0
60.2458 15.0
60.2605 20.0
60.2753 13.0
60.2901 12.0
60.3049 16.0
60.3196 13.0
60.3344 19.0
60.3492 15.0
60.3639 18.0
60.3787 20.0
60.3935 12.0
60.4083 21.0
60.423 17.0
60.4378 14.0
60.4526 13.0
60.4673 16.0
60.4821 17.0
60.4969 15.0
60.5117 20.0
60.5264 24.0
60.5412 18.0
60.556 22.0
60.5707 14.0
60.5855 23.0
60.6003 20.0
60.6151 31.0
60.6298 21.0
60.6446 21.0
60.6594 22.0
60.6741 41.0
60.6889 35.0
60.7037 63.0
60.7185 71.0
60.7332 112.0
60.748 183.0
60.7628 400.0
60.7775 550.0
60.7923 611.0
60.8071 546.0
60.8219 396.0
60.8366 318.0
60.8514 214.0
60.8662 203.0
60.8809 178.0
60.8957 154.0
60.9105 100.0
60.9253 82.0
60.94 55.0
60.9548 47.0
60.9696 48.0
60.9843 32.0
60.9991 40.0
61.0139 38.0
61.0287 43.0
61.0434 29.0
61.0582 24.0
61.073 21.0
61.0877 26.0
61.1025 26.0
61.1173 25.0
61.1321 26.0
61.1468 19.0
61.1616 21.0
61.1764 30.0
61.1911 22.0
61.2059 17.0
61.2207 14.0
61.2355 27.0
61.2502 30.0
61.265 13.0
61.2798 21.0
61.2945 16.0
61.3093 29.0
61.3241 21.0
61.3389 16.0
61.3536 15.0
61.3684 23.0
61.3832 13.0
61.398 12.0
61.4127 21.0
61.4275 18.0
61.4423 12.0
61.457 18.0
61.4718 17.0
61.4866 16.0
61.5014 19.0
61.5161 19.0
61.5309 25.0
61.5457 15.0
61.5604 20.0
61.5752 24.0
61.59 18.0
61.6048 22.0
61.6195 17.0
61.6343 22.0
61.6491 22.0
61.6638 12.0
61.6786 18.0
61.6934 21.0
61.7082 29.0
61.7229 23.0
61.7377 20.0
61.7525 22.0
61.7672 27.0
61.782 13.0
61.7968 22.0
61.8116 22.0
61.8263 14.0
61.8411 14.0
61.8559 18.0
61.8706 18.0
61.8854 24.0
61.9002 21.0
61.915 20.0
61.9297 17.0
61.9445 20.0
61.9593 21.0
61.974 24.0
61.9888 21.0
62.0036 22.0
62.0184 17.0
62.0331 19.0
62.0479 16.0
62.0627 16.0
62.0774 19.0
62.0922 13.0
62.107 21.0
62.1218 21.0
62.1365 20.0
62.1513 19.0
62.1661 19.0
62.1808 18.0
62.1956 25.0
62.2104 17.0
62.2252 21.0
62.2399 18.0
62.2547 30.0
62.2695 13.0
62.2842 18.0
62.299 20.0
62.3138 17.0
62.3286 22.0
62.3433 25.0
62.3581 20.0
62.3729 24.0
62.3876 16.0
62.4024 28.0
62.4172 15.0
62.432 21.0
62.4467 22.0
62.4615 18.0
62.4763 16.0
62.491 32.0
62.5058 17.0
62.5206 26.0
62.5354 17.0
62.5501 23.0
62.5649 23.0
62.5797 23.0
62.5944 24.0
62.6092 21.0
62.624 17.0
62.6388 23.0
62.6535 31.0
62.6683 19.0
62.6831 23.0
62.6978 21.0
62.7126 17.0
62.7274 16.0
62.7422 25.0
62.7569 26.0
62.7717 26.0
62.7865 17.0
62.8012 25.0
62.816 25.0
62.8308 31.0
62.8456 26.0
62.8603 33.0
62.8751 26.0
62.8899 23.0
62.9047 23.0
62.9194 29.0
62.9342 25.0
62.949 34.0
62.9637 25.0
62.9785 29.0
62.9933 39.0
63.0081 38.0
63.0228 30.0
63.0376 33.0
63.0524 31.0
63.0671 45.0
63.0819 28.0
63.0967 36.0
63.1115 35.0
63.1262 29.0
63.141 30.0
63.1558 31.0
63.1705 35.0
63.1853 35.0
63.2001 39.0
63.2149 24.0
63.2296 30.0
63.2444 37.0
63.2592 31.0
63.2739 35.0
63.2887 37.0
63.3035 37.0
63.3183 41.0
63.333 49.0
63.3478 33.0
63.3626 37.0
63.3773 35.0
63.3921 35.0
63.4069 41.0
63.4217 42.0
63.4364 54.0
63.4512 32.0
63.466 33.0
63.4807 41.0
63.4955 37.0
63.5103 41.0
63.5251 50.0
63.5398 37.0
63.5546 39.0
63.5694 60.0
63.5841 50.0
63.5989 45.0
63.6137 58.0
63.6285 47.0
63.6432 56.0
63.658 57.0
63.6728 44.0
63.6875 49.0
63.7023 47.0
63.7171 65.0
63.7319 48.0
63.7466 62.0
63.7614 58.0
63.7762 59.0
63.7909 64.0
63.8057 59.0
63.8205 66.0
63.8353 53.0
63.85 70.0
63.8648 71.0
63.8796 70.0
63.8943 65.0
63.9091 72.0
63.9239 76.0
63.9387 88.0
63.9534 86.0
63.9682 102.0
63.983 90.0
63.9977 89.0
64.0125 95.0
64.0273 111.0
64.0421 109.0
64.0568 112.0
64.0716 138.0
64.0864 104.0
64.1011 141.0
64.1159 122.0
64.1307 122.0
64.1455 124.0
64.1602 148.0
64.175 150.0
64.1898 175.0
64.2045 198.0
64.2193 176.0
64.2341 210.0
64.2489 201.0
64.2636 240.0
64.2784 247.0
64.2932 268.0
64.3079 281.0
64.3227 304.0
64.3375 290.0
64.3523 340.0
64.367 351.0
64.3818 402.0
64.3966 425.0
64.4114 466.0
64.4261 509.0
64.4409 543.0
64.4557 595.0
64.4704 592.0
64.4852 697.0
64.5 796.0
64.5148 878.0
64.5295 952.0
64.5443 1043.0
64.5591 1223.0
64.5738 1325.0
64.5886 1563.0
64.6034 1676.0
64.6182 1868.0
64.6329 2045.0
64.6477 2141.0
64.6625 2238.0
64.6772 2325.0
64.692 2395.0
64.7068 2447.0
64.7216 2361.0
64.7363 2343.0
64.7511 2195.0
64.7659 2113.0
64.7806 2092.0
64.7954 1967.0
64.8102 1996.0
64.825 1847.0
64.8397 1740.0
64.8545 1675.0
64.8693 1616.0
64.884 1601.0
64.8988 1462.0
64.9136 1315.0
64.9284 1246.0
64.9431 1157.0
64.9579 1023.0
64.9727 886.0
64.9874 854.0
65.0022 682.0
65.017 641.0
65.0318 593.0
65.0465 506.0
65.0613 431.0
65.0761 394.0
65.0908 368.0
65.1056 358.0
65.1204 295.0
65.1352 264.0
65.1499 247.0
65.1647 242.0
65.1795 248.0
65.1942 212.0
65.209 189.0
65.2238 155.0
65.2386 183.0
65.2533 140.0
65.2681 155.0
65.2829 132.0
65.2976 119.0
65.3124 121.0
65.3272 111.0
65.342 124.0
65.3567 104.0
65.3715 107.0
65.3863 95.0
65.401 88.0
65.4158 94.0
65.4306 95.0
65.4454 87.0
65.4601 87.0
65.4749 86.0
65.4897 97.0
65.5044 92.0
65.5192 79.0
65.534 82.0
65.5488 94.0
65.5635 79.0
65.5783 68.0
65.5931 78.0
65.6078 79.0
65.6226 73.0
65.6374 57.0
65.6522 66.0
65.6669 65.0
65.6817 72.0
65.6965 59.0
65.7112 74.0
65.726 52.0
65.7408 75.0
65.7556 56.0
65.7703 58.0
65.7851 61.0
65.7999 55.0
65.8146 60.0
65.8294 61.0
65.8442 58.0
65.859 61.0
65.8737 71.0
65.8885 66.0
65.9033 72.0
65.9181 71.0
65.9328 60.0
65.9476 71.0
65.9624 51.0
65.9771 65.0
65.9919 56.0
66.0067 49.0
66.0215 50.0
66.0362 74.0
66.051 69.0
66.0658 58.0
66.0805 61.0
66.0953 74.0
66.1101 56.0
66.1249 71.0
66.1396 63.0
66.1544 57.0
66.1692 67.0
66.1839 55.0
66.1987 60.0
66.2135 74.0
66.2283 64.0
66.243 80.0
66.2578 57.0
66.2726 61.0
66.2873 71.0
66.3021 71.0
66.3169 93.0
66.3317 73.0
66.3464 60.0
66.3612 93.0
66.376 81.0
66.3907 76.0
66.4055 67.0
66.4203 78.0
66.4351 78.0
66.4498 62.0
66.4646 78.0
66.4794 77.0
66.4941 84.0
66.5089 87.0
66.5237 77.0
66.5385 78.0
66.5532 90.0
66.568 77.0
66.5828 86.0
66.5975 80.0
66.6123 83.0
66.6271 102.0
66.6419 107.0
66.6566 83.0
66.6714 103.0
66.6862 111.0
66.7009 74.0
66.7157 94.0
66.7305 98.0
66.7453 102.0
66.76 104.0
66.7748 97.0
66.7896 118.0
66.8043 104.0
66.8191 113.0
66.8339 118.0
66.8487 109.0
66.8634 106.0
66.8782 123.0
66.893 117.0
66.9077 109.0
66.9225 123.0
66.9373 109.0
66.9521 107.0
66.9668 116.0
66.9816 121.0
66.9964 115.0
67.0111 124.0
67.0259 131.0
67.0407 128.0
67.0555 151.0
67.0702 143.0
67.085 148.0
67.0998 147.0
67.1145 152.0
67.1293 161.0
67.1441 140.0
67.1589 143.0
67.1736 154.0
67.1884 163.0
67.2032 178.0
67.2179 157.0
67.2327 166.0
67.2475 173.0
67.2623 202.0
67.277 181.0
67.2918 189.0
67.3066 197.0
67.3213 192.0
67.3361 216.0
67.3509 202.0
67.3657 210.0
67.3804 210.0
67.3952 206.0
67.41 267.0
67.4248 259.0
67.4395 262.0
67.4543 289.0
67.4691 308.0
67.4838 332.0
67.4986 355.0
67.5134 340.0
67.5282 307.0
67.5429 325.0
67.5577 354.0
67.5725 375.0
67.5872 401.0
67.602 348.0
67.6168 426.0
67.6316 460.0
67.6463 493.0
67.6611 540.0
67.6759 583.0
67.6906 673.0
67.7054 755.0
67.7202 891.0
67.735 1045.0
67.7497 1190.0
67.7645 1245.0
67.7793 1343.0
67.794 1364.0
67.8088 1475.0
67.8236 1375.0
67.8384 1365.0
67.8531 1322.0
67.8679 1440.0
67.8827 1429.0
67.8974 1521.0
67.9122 1645.0
67.927 1730.0
67.9418 1951.0
67.9565 2322.0
67.9713 2733.0
67.9861 3346.0
68.0008 4376.0
68.0156 5642.0
68.0304 7703.0
68.0452 11614.0
68.0599 20300.0
68.0747 45896.0
68.0895 104849.0
68.1042 142192.0
68.119 147510.0
68.1338 111067.0
68.1486 53742.0
68.1633 26968.0
68.1781 14970.0
68.1929 10060.0
68.2076 7999.0
68.2224 7707.0
68.2372 9073.0
68.252 13038.0
68.2667 25875.0
68.2815 51356.0
68.2963 71843.0
68.311 74729.0
68.3258 59412.0
68.3406 32140.0
68.3554 16116.0
68.3701 9177.0
68.3849 5794.0
68.3997 4077.0
68.4144 3138.0
68.4292 2679.0
68.444 2221.0
68.4588 1887.0
68.4735 1635.0
68.4883 1463.0
68.5031 1327.0
68.5178 1303.0
68.5326 1166.0
68.5474 1098.0
68.5622 958.0
68.5769 888.0
68.5917 862.0
68.6065 849.0
68.6212 750.0
68.636 697.0
68.6508 657.0
68.6656 650.0
68.6803 640.0
68.6951 570.0
68.7099 538.0
68.7246 538.0
68.7394 518.0
68.7542 479.0
68.769 485.0
68.7837 465.0
68.7985 433.0
68.8133 415.0
68.828 400.0
68.8428 410.0
68.8576 405.0
68.8724 340.0
68.8871 350.0
68.9019 337.0
68.9167 340.0
68.9315 332.0
68.9462 321.0
68.961 327.0
68.9758 284.0
68.9905 288.0
69.0053 286.0
69.0201 295.0
69.0349 274.0
69.0496 286.0
69.0644 266.0
69.0792 275.0
69.0939 214.0
69.1087 257.0
69.1235 209.0
69.1383 219.0
69.153 193.0
69.1678 199.0
69.1826 190.0
69.1973 199.0
69.2121 194.0
69.2269 193.0
69.2417 173.0
69.2564 160.0
69.2712 186.0
69.286 206.0
69.3007 158.0
69.3155 183.0
69.3303 133.0
69.3451 156.0
69.3598 138.0
69.3746 154.0
69.3894 136.0
69.4041 152.0
69.4189 137.0
69.4337 133.0
69.4485 118.0
69.4632 142.0
69.478 119.0
69.4928 108.0
69.5075 109.0
69.5223 108.0
69.5371 110.0
69.5519 112.0
69.5666 104.0
69.5814 99.0
69.5962 96.0
69.6109 100.0
69.6257 118.0
69.6405 121.0
69.6553 104.0
69.67 92.0
69.6848 101.0
69.6996 84.0
69.7143 107.0
69.7291 84.0
69.7439 70.0
69.7587 75.0
69.7734 74.0
69.7882 74.0
69.803 87.0
69.8177 69.0
69.8325 75.0
69.8473 77.0
69.8621 69.0
69.8768 64.0
69.8916 62.0
69.9064 69.0
69.9211 57.0
69.9359 71.0
69.9507 64.0
69.9655 66.0
69.9802 71.0
69.995 60.0
70.0098 71.0
70.0245 68.0
70.0393 58.0
70.0541 48.0
70.0689 59.0
70.0836 64.0
70.0984 52.0
70.1132 54.0
70.1279 35.0
70.1427 32.0
70.1575 47.0
70.1723 59.0
70.187 50.0
70.2018 48.0
70.2166 54.0
70.2313 48.0
70.2461 48.0
70.2609 46.0
70.2757 54.0
70.2904 39.0
70.3052 50.0
70.32 44.0
70.3347 46.0
70.3495 42.0
70.3643 45.0
70.3791 43.0
70.3938 38.0
70.4086 39.0
70.4234 41.0
70.4382 36.0
70.4529 42.0
70.4677 34.0
70.4825 46.0
70.4972 29.0
70.512 36.0
70.5268 38.0
70.5416 30.0
70.5563 38.0
70.5711 30.0
70.5859 33.0
70.6006 39.0
70.6154 40.0
70.6302 28.0
70.645 33.0
70.6597 25.0
70.6745 24.0
70.6893 43.0
70.704 23.0
70.7188 32.0
70.7336 20.0
70.7484 42.0
70.7631 32.0
70.7779 27.0
70.7927 28.0
70.8074 34.0
70.8222 27.0
70.837 38.0
70.8518 43.0
70.8665 32.0
70.8813 24.0
70.8961 30.0
70.9108 23.0
70.9256 38.0
70.9404 26.0
70.9552 27.0
70.9699 24.0
70.9847 29.0
70.9995 27.0
71.0142 21.0
71.029 23.0
71.0438 28.0
71.0586 22.0
71.0733 22.0
71.0881 29.0
71.1029 24.0
71.1176 29.0
71.1324 32.0
71.1472 33.0
71.162 16.0
71.1767 22.0
71.1915 27.0
71.2063 21.0
71.221 22.0
71.2358 27.0
71.2506 23.0
71.2654 27.0
71.2801 17.0
71.2949 20.0
71.3097 26.0
71.3244 20.0
71.3392 26.0
71.354 21.0
71.3688 20.0
71.3835 25.0
71.3983 20.0
71.4131 24.0
71.4278 22.0
71.4426 28.0
71.4574 21.0
71.4722 22.0
71.4869 20.0
71.5017 26.0
71.5165 25.0
71.5312 28.0
71.546 19.0
71.5608 18.0
71.5756 16.0
71.5903 20.0
71.6051 27.0
71.6199 21.0
71.6346 16.0
71.6494 24.0
71.6642 16.0
71.679 22.0
71.6937 19.0
71.7085 20.0
71.7233 19.0
71.738 22.0
71.7528 20.0
71.7676 22.0
71.7824 11.0
71.7971 22.0
71.8119 23.0
71.8267 12.0
71.8414 19.0
71.8562 14.0
71.871 16.0
71.8858 10.0
71.9005 18.0
71.9153 16.0
71.9301 14.0
71.9449 20.0
71.9596 22.0
71.9744 15.0
71.9892 19.0
72.0039 19.0
72.0187 16.0
72.0335 14.0
72.0483 18.0
72.063 27.0
72.0778 14.0
72.0926 21.0
72.1073 19.0
72.1221 21.0
72.1369 18.0
72.1517 24.0
72.1664 27.0
72.1812 13.0
72.196 23.0
72.2107 16.0
72.2255 25.0
72.2403 21.0
72.2551 15.0
72.2698 18.0
72.2846 23.0
72.2994 13.0
72.3141 27.0
72.3289 13.0
72.3437 16.0
72.3585 18.0
72.3732 13.0
72.388 22.0
72.4028 20.0
72.4175 12.0
72.4323 13.0
72.4471 20.0
72.4619 9.0
72.4766 14.0
72.4914 21.0
72.5062 15.0
72.5209 14.0
72.5357 13.0
72.5505 23.0
72.5653 13.0
72.58 13.0
72.5948 18.0
72.6096 16.0
72.6243 17.0
72.6391 12.0
72.6539 14.0
72.6687 9.0
72.6834 23.0
72.6982 14.0
72.713 21.0
72.7277 14.0
72.7425 15.0
72.7573 15.0
72.7721 20.0
72.7868 18.0
72.8016 8.0
72.8164 15.0
72.8311 21.0
72.8459 20.0
72.8607 8.0
72.8755 15.0
72.8902 17.0
72.905 21.0
72.9198 19.0
72.9345 12.0
72.9493 11.0
72.9641 15.0
72.9789 18.0
72.9936 20.0
73.0084 19.0
73.0232 22.0
73.0379 19.0
73.0527 16.0
73.0675 19.0
73.0823 13.0
73.097 17.0
73.1118 13.0
73.1266 10.0
73.1413 21.0
73.1561 22.0
73.1709 17.0
73.1857 17.0
73.2004 13.0
73.2152 18.0
73.23 15.0
73.2447 17.0
73.2595 20.0
73.2743 11.0
73.2891 13.0
73.3038 12.0
73.3186 19.0
73.3334 13.0
73.3481 12.0
73.3629 13.0
73.3777 15.0
73.3925 17.0
73.4072 9.0
73.422 12.0
73.4368 15.0
73.4516 14.0
73.4663 7.0
73.4811 9.0
73.4959 17.0
73.5106 17.0
73.5254 20.0
73.5402 12.0
73.555 17.0
73.5697 11.0
73.5845 15.0
73.5993 15.0
73.614 15.0
73.6288 9.0
73.6436 14.0
73.6584 12.0
73.6731 13.0
73.6879 16.0
73.7027 14.0
73.7174 14.0
73.7322 15.0
73.747 9.0
73.7618 10.0
73.7765 12.0
73.7913 11.0
73.8061 12.0
73.8208 8.0
73.8356 17.0
73.8504 14.0
73.8652 17.0
73.8799 12.0
73.8947 5.0
73.9095 17.0
73.9242 11.0
73.939 4.0
73.9538 20.0
73.9686 13.0
73.9833 16.0
73.9981 17.0
74.0129 14.0
74.0276 13.0
74.0424 12.0
74.0572 11.0
74.072 16.0
74.0867 7.0
74.1015 12.0
74.1163 13.0
74.131 20.0
74.1458 18.0
74.1606 14.0
74.1754 15.0
74.1901 18.0
74.2049 20.0
74.2197 12.0
74.2344 7.0
74.2492 7.0
74.264 8.0
74.2788 15.0
74.2935 12.0
74.3083 14.0
74.3231 14.0
74.3378 11.0
74.3526 16.0
74.3674 18.0
74.3822 14.0
74.3969 20.0
74.4117 9.0
74.4265 8.0
74.4412 13.0
74.456 11.0
74.4708 19.0
74.4856 13.0
74.5003 6.0
74.5151 7.0
74.5299 13.0
74.5446 19.0
74.5594 14.0
74.5742 15.0
74.589 10.0
74.6037 13.0
74.6185 14.0
74.6333 15.0
74.648 11.0
74.6628 15.0
74.6776 9.0
74.6924 15.0
74.7071 15.0
74.7219 11.0
74.7367 16.0
74.7514 14.0
74.7662 12.0
74.781 5.0
74.7958 10.0
74.8105 14.0
74.8253 25.0
74.8401 8.0
74.8548 16.0
74.8696 13.0
74.8844 10.0
74.8992 17.0
74.9139 11.0
74.9287 13.0
74.9435 15.0
74.9583 14.0
74.973 7.0
74.9878 13.0
74.9976 13.0