File: data/W6716/XRD_2ThetaOmega/W6716_absolute_2th-om_10-100deg.xy
10.0045 19.0
10.0685 19.0
10.1325 20.0
10.1965 16.0
10.2605 20.0
10.3245 25.0
10.3885 16.0
10.4525 20.0
10.5165 20.0
10.5806 17.0
10.6446 16.0
10.7086 23.0
10.7726 16.0
10.8366 18.0
10.9006 29.0
10.9646 24.0
11.0286 21.0
11.0926 18.0
11.1566 24.0
11.2207 21.0
11.2847 19.0
11.3487 23.0
11.4127 18.0
11.4767 15.0
11.5407 13.0
11.6047 27.0
11.6687 17.0
11.7327 20.0
11.7967 24.0
11.8608 16.0
11.9248 23.0
11.9888 26.0
12.0528 21.0
12.1168 25.0
12.1808 29.0
12.2448 23.0
12.3088 16.0
12.3728 25.0
12.4368 22.0
12.5009 21.0
12.5649 16.0
12.6289 16.0
12.6929 20.0
12.7569 20.0
12.8209 21.0
12.8849 14.0
12.9489 25.0
13.0129 13.0
13.0769 22.0
13.141 11.0
13.205 19.0
13.269 17.0
13.333 16.0
13.397 19.0
13.461 14.0
13.525 19.0
13.589 12.0
13.653 19.0
13.717 12.0
13.7811 15.0
13.8451 20.0
13.9091 23.0
13.9731 16.0
14.0371 16.0
14.1011 12.0
14.1651 18.0
14.2291 15.0
14.2931 15.0
14.3572 16.0
14.4212 17.0
14.4852 11.0
14.5492 15.0
14.6132 11.0
14.6772 18.0
14.7412 10.0
14.8052 18.0
14.8692 6.0
14.9332 18.0
14.9973 29.0
15.0613 20.0
15.1253 13.0
15.1893 14.0
15.2533 11.0
15.3173 18.0
15.3813 16.0
15.4453 15.0
15.5093 13.0
15.5733 17.0
15.6374 14.0
15.7014 12.0
15.7654 20.0
15.8294 13.0
15.8934 18.0
15.9574 20.0
16.0214 16.0
16.0854 26.0
16.1494 18.0
16.2134 9.0
16.2775 11.0
16.3415 15.0
16.4055 13.0
16.4695 15.0
16.5335 13.0
16.5975 16.0
16.6615 15.0
16.7255 15.0
16.7895 11.0
16.8535 7.0
16.9176 7.0
16.9816 17.0
17.0456 18.0
17.1096 12.0
17.1736 14.0
17.2376 12.0
17.3016 9.0
17.3656 16.0
17.4296 14.0
17.4936 7.0
17.5577 6.0
17.6217 11.0
17.6857 13.0
17.7497 15.0
17.8137 14.0
17.8777 5.0
17.9417 7.0
18.0057 6.0
18.0697 10.0
18.1337 11.0
18.1978 10.0
18.2618 16.0
18.3258 9.0
18.3898 9.0
18.4538 8.0
18.5178 11.0
18.5818 9.0
18.6458 8.0
18.7098 13.0
18.7738 10.0
18.8379 8.0
18.9019 8.0
18.9659 9.0
19.0299 16.0
19.0939 9.0
19.1579 4.0
19.2219 17.0
19.2859 8.0
19.3499 7.0
19.414 5.0
19.478 7.0
19.542 13.0
19.606 12.0
19.67 7.0
19.734 8.0
19.798 8.0
19.862 5.0
19.926 13.0
19.99 7.0
20.0541 8.0
20.1181 12.0
20.1821 19.0
20.2461 8.0
20.3101 18.0
20.3741 12.0
20.4381 12.0
20.5021 12.0
20.5661 8.0
20.6301 13.0
20.6942 11.0
20.7582 5.0
20.8222 9.0
20.8862 6.0
20.9502 10.0
21.0142 7.0
21.0782 9.0
21.1422 10.0
21.2062 6.0
21.2702 6.0
21.3343 7.0
21.3983 11.0
21.4623 7.0
21.5263 11.0
21.5903 9.0
21.6543 3.0
21.7183 8.0
21.7823 6.0
21.8463 5.0
21.9103 6.0
21.9744 8.0
22.0384 3.0
22.1024 11.0
22.1664 7.0
22.2304 3.0
22.2944 7.0
22.3584 12.0
22.4224 5.0
22.4864 7.0
22.5504 12.0
22.6145 8.0
22.6785 8.0
22.7425 5.0
22.8065 4.0
22.8705 5.0
22.9345 9.0
22.9985 10.0
23.0625 9.0
23.1265 6.0
23.1905 4.0
23.2546 5.0
23.3186 2.0
23.3826 5.0
23.4466 5.0
23.5106 9.0
23.5746 7.0
23.6386 6.0
23.7026 4.0
23.7666 7.0
23.8306 7.0
23.8947 11.0
23.9587 7.0
24.0227 9.0
24.0867 6.0
24.1507 8.0
24.2147 10.0
24.2787 8.0
24.3427 9.0
24.4067 5.0
24.4708 6.0
24.5348 3.0
24.5988 7.0
24.6628 7.0
24.7268 5.0
24.7908 5.0
24.8548 9.0
24.9188 4.0
24.9828 3.0
25.0468 4.0
25.1109 5.0
25.1749 6.0
25.2389 11.0
25.3029 5.0
25.3669 1.0
25.4309 3.0
25.4949 4.0
25.5589 8.0
25.6229 11.0
25.6869 4.0
25.751 9.0
25.815 3.0
25.879 5.0
25.943 8.0
26.007 7.0
26.071 4.0
26.135 5.0
26.199 3.0
26.263 6.0
26.327 4.0
26.3911 4.0
26.4551 4.0
26.5191 7.0
26.5831 6.0
26.6471 5.0
26.7111 9.0
26.7751 6.0
26.8391 8.0
26.9031 5.0
26.9671 2.0
27.0312 2.0
27.0952 3.0
27.1592 10.0
27.2232 4.0
27.2872 9.0
27.3512 8.0
27.4152 5.0
27.4792 6.0
27.5432 4.0
27.6072 3.0
27.6713 6.0
27.7353 3.0
27.7993 4.0
27.8633 5.0
27.9273 7.0
27.9913 6.0
28.0553 4.0
28.1193 4.0
28.1833 6.0
28.2473 7.0
28.3114 5.0
28.3754 3.0
28.4394 3.0
28.5034 5.0
28.5674 4.0
28.6314 7.0
28.6954 5.0
28.7594 2.0
28.8234 3.0
28.8874 4.0
28.9515 13.0
29.0155 3.0
29.0795 2.0
29.1435 4.0
29.2075 6.0
29.2715 8.0
29.3355 2.0
29.3995 2.0
29.4635 5.0
29.5276 3.0
29.5916 1.0
29.6556 3.0
29.7196 3.0
29.7836 4.0
29.8476 4.0
29.9116 4.0
29.9756 1.0
30.0396 7.0
30.1036 5.0
30.1677 11.0
30.2317 4.0
30.2957 5.0
30.3597 8.0
30.4237 7.0
30.4877 4.0
30.5517 4.0
30.6157 3.0
30.6797 5.0
30.7437 6.0
30.8078 2.0
30.8718 3.0
30.9358 8.0
30.9998 9.0
31.0638 5.0
31.1278 4.0
31.1918 3.0
31.2558 3.0
31.3198 0.0
31.3838 7.0
31.4479 2.0
31.5119 2.0
31.5759 4.0
31.6399 7.0
31.7039 5.0
31.7679 5.0
31.8319 5.0
31.8959 3.0
31.9599 0.0
32.0239 6.0
32.088 3.0
32.152 7.0
32.216 4.0
32.28 7.0
32.344 3.0
32.408 6.0
32.472 8.0
32.536 0.0
32.6 4.0
32.664 1.0
32.7281 3.0
32.7921 2.0
32.8561 3.0
32.9201 2.0
32.9841 2.0
33.0481 6.0
33.1121 8.0
33.1761 2.0
33.2401 5.0
33.3041 6.0
33.3682 4.0
33.4322 4.0
33.4962 1.0
33.5602 0.0
33.6242 0.0
33.6882 5.0
33.7522 4.0
33.8162 4.0
33.8802 1.0
33.9442 0.0
34.0083 5.0
34.0723 5.0
34.1363 3.0
34.2003 1.0
34.2643 4.0
34.3283 0.0
34.3923 3.0
34.4563 3.0
34.5203 6.0
34.5844 4.0
34.6484 5.0
34.7124 1.0
34.7764 3.0
34.8404 4.0
34.9044 5.0
34.9684 1.0
35.0324 2.0
35.0964 1.0
35.1604 4.0
35.2245 4.0
35.2885 3.0
35.3525 2.0
35.4165 7.0
35.4805 4.0
35.5445 4.0
35.6085 3.0
35.6725 2.0
35.7365 6.0
35.8005 6.0
35.8646 4.0
35.9286 5.0
35.9926 5.0
36.0566 3.0
36.1206 0.0
36.1846 4.0
36.2486 1.0
36.3126 3.0
36.3766 4.0
36.4406 3.0
36.5047 3.0
36.5687 0.0
36.6327 1.0
36.6967 6.0
36.7607 7.0
36.8247 6.0
36.8887 3.0
36.9527 2.0
37.0167 6.0
37.0807 5.0
37.1448 4.0
37.2088 1.0
37.2728 2.0
37.3368 3.0
37.4008 3.0
37.4648 4.0
37.5288 2.0
37.5928 5.0
37.6568 7.0
37.7208 3.0
37.7849 4.0
37.8489 2.0
37.9129 6.0
37.9769 0.0
38.0409 4.0
38.1049 4.0
38.1689 1.0
38.2329 3.0
38.2969 1.0
38.3609 2.0
38.425 4.0
38.489 0.0
38.553 1.0
38.617 0.0
38.681 1.0
38.745 4.0
38.809 2.0
38.873 2.0
38.937 1.0
39.001 3.0
39.0651 4.0
39.1291 1.0
39.1931 8.0
39.2571 2.0
39.3211 3.0
39.3851 4.0
39.4491 2.0
39.5131 2.0
39.5771 0.0
39.6412 6.0
39.7052 0.0
39.7692 4.0
39.8332 0.0
39.8972 0.0
39.9612 0.0
40.0252 2.0
40.0892 3.0
40.1532 3.0
40.2172 5.0
40.2813 1.0
40.3453 4.0
40.4093 4.0
40.4733 2.0
40.5373 5.0
40.6013 1.0
40.6653 5.0
40.7293 4.0
40.7933 1.0
40.8573 6.0
40.9214 3.0
40.9854 1.0
41.0494 2.0
41.1134 1.0
41.1774 7.0
41.2414 4.0
41.3054 2.0
41.3694 0.0
41.4334 5.0
41.4974 3.0
41.5615 2.0
41.6255 6.0
41.6895 3.0
41.7535 1.0
41.8175 5.0
41.8815 4.0
41.9455 3.0
42.0095 1.0
42.0735 3.0
42.1375 5.0
42.2016 3.0
42.2656 2.0
42.3296 2.0
42.3936 2.0
42.4576 5.0
42.5216 4.0
42.5856 4.0
42.6496 2.0
42.7136 2.0
42.7776 3.0
42.8417 0.0
42.9057 0.0
42.9697 7.0
43.0337 1.0
43.0977 0.0
43.1617 1.0
43.2257 2.0
43.2897 0.0
43.3537 0.0
43.4177 2.0
43.4818 1.0
43.5458 2.0
43.6098 3.0
43.6738 2.0
43.7378 3.0
43.8018 2.0
43.8658 4.0
43.9298 3.0
43.9938 4.0
44.0579 2.0
44.1219 2.0
44.1859 1.0
44.2499 6.0
44.3139 8.0
44.3779 1.0
44.4419 0.0
44.5059 3.0
44.5699 5.0
44.6339 3.0
44.698 0.0
44.762 4.0
44.826 5.0
44.89 0.0
44.954 2.0
45.018 0.0
45.082 3.0
45.146 2.0
45.21 3.0
45.274 0.0
45.3381 4.0
45.4021 2.0
45.4661 1.0
45.5301 1.0
45.5941 0.0
45.6581 2.0
45.7221 3.0
45.7861 4.0
45.8501 5.0
45.9141 2.0
45.9782 1.0
46.0422 2.0
46.1062 3.0
46.1702 5.0
46.2342 2.0
46.2982 1.0
46.3622 3.0
46.4262 2.0
46.4902 1.0
46.5542 3.0
46.6183 2.0
46.6823 3.0
46.7463 2.0
46.8103 2.0
46.8743 0.0
46.9383 5.0
47.0023 4.0
47.0663 3.0
47.1303 0.0
47.1943 2.0
47.2584 6.0
47.3224 2.0
47.3864 5.0
47.4504 3.0
47.5144 2.0
47.5784 4.0
47.6424 2.0
47.7064 1.0
47.7704 1.0
47.8344 5.0
47.8985 0.0
47.9625 4.0
48.0265 1.0
48.0905 2.0
48.1545 6.0
48.2185 3.0
48.2825 1.0
48.3465 0.0
48.4105 4.0
48.4745 4.0
48.5386 1.0
48.6026 1.0
48.6666 1.0
48.7306 1.0
48.7946 0.0
48.8586 3.0
48.9226 3.0
48.9866 4.0
49.0506 0.0
49.1147 0.0
49.1787 3.0
49.2427 3.0
49.3067 2.0
49.3707 2.0
49.4347 3.0
49.4987 3.0
49.5627 1.0
49.6267 0.0
49.6907 0.0
49.7548 1.0
49.8188 4.0
49.8828 4.0
49.9468 2.0
50.0108 6.0
50.0748 3.0
50.1388 0.0
50.2028 2.0
50.2668 2.0
50.3308 1.0
50.3949 3.0
50.4589 1.0
50.5229 4.0
50.5869 5.0
50.6509 0.0
50.7149 1.0
50.7789 3.0
50.8429 3.0
50.9069 2.0
50.9709 8.0
51.035 3.0
51.099 5.0
51.163 5.0
51.227 1.0
51.291 1.0
51.355 1.0
51.419 2.0
51.483 4.0
51.547 1.0
51.611 1.0
51.6751 3.0
51.7391 4.0
51.8031 2.0
51.8671 4.0
51.9311 0.0
51.9951 2.0
52.0591 3.0
52.1231 2.0
52.1871 3.0
52.2511 6.0
52.3152 3.0
52.3792 1.0
52.4432 1.0
52.5072 4.0
52.5712 4.0
52.6352 3.0
52.6992 2.0
52.7632 0.0
52.8272 3.0
52.8912 2.0
52.9553 3.0
53.0193 0.0
53.0833 1.0
53.1473 5.0
53.2113 3.0
53.2753 4.0
53.3393 4.0
53.4033 0.0
53.4673 4.0
53.5313 4.0
53.5954 6.0
53.6594 4.0
53.7234 2.0
53.7874 6.0
53.8514 7.0
53.9154 6.0
53.9794 6.0
54.0434 3.0
54.1074 5.0
54.1715 6.0
54.2355 0.0
54.2995 2.0
54.3635 3.0
54.4275 2.0
54.4915 0.0
54.5555 1.0
54.6195 4.0
54.6835 8.0
54.7475 4.0
54.8116 2.0
54.8756 3.0
54.9396 1.0
55.0036 5.0
55.0676 5.0
55.1316 7.0
55.1956 5.0
55.2596 2.0
55.3236 3.0
55.3876 1.0
55.4517 5.0
55.5157 10.0
55.5797 27.0
55.6437 8.0
55.7077 11.0
55.7717 1.0
55.8357 3.0
55.8997 0.0
55.9637 2.0
56.0277 5.0
56.0918 3.0
56.1558 1.0
56.2198 0.0
56.2838 4.0
56.3478 3.0
56.4118 3.0
56.4758 2.0
56.5398 4.0
56.6038 2.0
56.6678 2.0
56.7319 2.0
56.7959 2.0
56.8599 3.0
56.9239 3.0
56.9879 1.0
57.0519 2.0
57.1159 3.0
57.1799 0.0
57.2439 5.0
57.3079 3.0
57.372 2.0
57.436 0.0
57.5 0.0
57.564 3.0
57.628 4.0
57.692 2.0
57.756 4.0
57.82 7.0
57.884 6.0
57.948 8.0
58.0121 4.0
58.0761 3.0
58.1401 3.0
58.2041 1.0
58.2681 3.0
58.3321 0.0
58.3961 4.0
58.4601 1.0
58.5241 2.0
58.5881 6.0
58.6522 1.0
58.7162 0.0
58.7802 2.0
58.8442 3.0
58.9082 1.0
58.9722 1.0
59.0362 4.0
59.1002 1.0
59.1642 4.0
59.2283 5.0
59.2923 1.0
59.3563 4.0
59.4203 2.0
59.4843 4.0
59.5483 3.0
59.6123 5.0
59.6763 3.0
59.7403 2.0
59.8043 4.0
59.8684 7.0
59.9324 3.0
59.9964 7.0
60.0604 2.0
60.1244 2.0
60.1884 4.0
60.2524 3.0
60.3164 5.0
60.3804 3.0
60.4444 1.0
60.5085 2.0
60.5725 6.0
60.6365 2.0
60.7005 10.0
60.7645 25.0
60.8285 111.0
60.8925 60.0
60.9565 19.0
61.0205 9.0
61.0845 7.0
61.1486 11.0
61.2126 4.0
61.2766 6.0
61.3406 10.0
61.4046 2.0
61.4686 2.0
61.5326 6.0
61.5966 11.0
61.6606 5.0
61.7246 8.0
61.7887 10.0
61.8527 5.0
61.9167 7.0
61.9807 3.0
62.0447 9.0
62.1087 4.0
62.1727 8.0
62.2367 13.0
62.3007 6.0
62.3647 9.0
62.4288 4.0
62.4928 9.0
62.5568 5.0
62.6208 3.0
62.6848 4.0
62.7488 4.0
62.8128 9.0
62.8768 6.0
62.9408 7.0
63.0048 5.0
63.0689 12.0
63.1329 8.0
63.1969 10.0
63.2609 3.0
63.3249 13.0
63.3889 9.0
63.4529 14.0
63.5169 12.0
63.5809 7.0
63.6449 7.0
63.709 15.0
63.773 10.0
63.837 11.0
63.901 19.0
63.965 17.0
64.029 34.0
64.093 29.0
64.157 35.0
64.221 43.0
64.2851 65.0
64.3491 86.0
64.4131 112.0
64.4771 154.0
64.5411 268.0
64.6051 425.0
64.6691 590.0
64.7331 642.0
64.7971 572.0
64.8611 555.0
64.9252 573.0
64.9892 408.0
65.0532 202.0
65.1172 116.0
65.1812 90.0
65.2452 69.0
65.3092 54.0
65.3732 54.0
65.4372 45.0
65.5012 60.0
65.5653 49.0
65.6293 32.0
65.6933 19.0
65.7573 33.0
65.8213 17.0
65.8853 18.0
65.9493 27.0
66.0133 21.0
66.0773 12.0
66.1413 28.0
66.2054 23.0
66.2694 26.0
66.3334 21.0
66.3974 22.0
66.4614 29.0
66.5254 29.0
66.5894 21.0
66.6534 23.0
66.7174 35.0
66.7814 32.0
66.8455 34.0
66.9095 41.0
66.9735 42.0
67.0375 37.0
67.1015 57.0
67.1655 49.0
67.2295 59.0
67.2935 65.0
67.3575 68.0
67.4215 72.0
67.4856 79.0
67.5496 92.0
67.6136 100.0
67.6776 148.0
67.7416 197.0
67.8056 380.0
67.8696 410.0
67.9336 449.0
67.9976 725.0
68.0616 1866.0
68.1257 26326.0
68.1897 16610.0
68.2537 2383.0
68.3177 13206.0
68.3817 9746.0
68.4457 1097.0
68.5097 515.0
68.5737 314.0
68.6377 218.0
68.7017 157.0
68.7658 130.0
68.8298 95.0
68.8938 93.0
68.9578 84.0
69.0218 94.0
69.0858 64.0
69.1498 65.0
69.2138 62.0
69.2778 55.0
69.3419 66.0
69.4059 49.0
69.4699 34.0
69.5339 39.0
69.5979 43.0
69.6619 20.0
69.7259 36.0
69.7899 24.0
69.8539 27.0
69.9179 28.0
69.982 16.0
70.046 17.0
70.11 21.0
70.174 13.0
70.238 11.0
70.302 12.0
70.366 16.0
70.43 11.0
70.494 16.0
70.558 8.0
70.6221 10.0
70.6861 14.0
70.7501 11.0
70.8141 8.0
70.8781 7.0
70.9421 10.0
71.0061 8.0
71.0701 9.0
71.1341 8.0
71.1981 6.0
71.2622 10.0
71.3262 7.0
71.3902 9.0
71.4542 3.0
71.5182 6.0
71.5822 6.0
71.6462 8.0
71.7102 8.0
71.7742 8.0
71.8382 7.0
71.9023 4.0
71.9663 4.0
72.0303 5.0
72.0943 5.0
72.1583 7.0
72.2223 7.0
72.2863 7.0
72.3503 2.0
72.4143 8.0
72.4783 5.0
72.5424 3.0
72.6064 6.0
72.6704 5.0
72.7344 7.0
72.7984 4.0
72.8624 3.0
72.9264 5.0
72.9904 2.0
73.0544 6.0
73.1184 2.0
73.1825 5.0
73.2465 2.0
73.3105 4.0
73.3745 0.0
73.4385 5.0
73.5025 3.0
73.5665 3.0
73.6305 2.0
73.6945 3.0
73.7585 3.0
73.8226 2.0
73.8866 5.0
73.9506 6.0
74.0146 2.0
74.0786 3.0
74.1426 6.0
74.2066 0.0
74.2706 1.0
74.3346 3.0
74.3987 5.0
74.4627 5.0
74.5267 2.0
74.5907 4.0
74.6547 1.0
74.7187 3.0
74.7827 6.0
74.8467 6.0
74.9107 4.0
74.9747 2.0
75.0388 3.0
75.1028 3.0
75.1668 1.0
75.2308 1.0
75.2948 6.0
75.3588 0.0
75.4228 4.0
75.4868 4.0
75.5508 1.0
75.6148 3.0
75.6789 6.0
75.7429 2.0
75.8069 2.0
75.8709 4.0
75.9349 2.0
75.9989 5.0
76.0629 4.0
76.1269 1.0
76.1909 3.0
76.2549 2.0
76.319 2.0
76.383 4.0
76.447 0.0
76.511 2.0
76.575 3.0
76.639 5.0
76.703 2.0
76.767 1.0
76.831 0.0
76.895 0.0
76.9591 1.0
77.0231 1.0
77.0871 2.0
77.1511 4.0
77.2151 2.0
77.2791 3.0
77.3431 2.0
77.4071 6.0
77.4711 2.0
77.5351 3.0
77.5992 3.0
77.6632 2.0
77.7272 2.0
77.7912 2.0
77.8552 2.0
77.9192 2.0
77.9832 4.0
78.0472 2.0
78.1112 0.0
78.1752 4.0
78.2393 5.0
78.3033 1.0
78.3673 3.0
78.4313 2.0
78.4953 1.0
78.5593 3.0
78.6233 10.0
78.6873 5.0
78.7513 1.0
78.8153 1.0
78.8794 3.0
78.9434 1.0
79.0074 3.0
79.0714 3.0
79.1354 3.0
79.1994 3.0
79.2634 3.0
79.3274 0.0
79.3914 3.0
79.4555 2.0
79.5195 1.0
79.5835 0.0
79.6475 4.0
79.7115 2.0
79.7755 4.0
79.8395 3.0
79.9035 2.0
79.9675 1.0
80.0315 0.0
80.0956 0.0
80.1596 2.0
80.2236 0.0
80.2876 1.0
80.3516 3.0
80.4156 4.0
80.4796 2.0
80.5436 2.0
80.6076 1.0
80.6716 3.0
80.7357 1.0
80.7997 0.0
80.8637 1.0
80.9277 0.0
80.9917 2.0
81.0557 2.0
81.1197 1.0
81.1837 0.0
81.2477 1.0
81.3117 3.0
81.3758 1.0
81.4398 4.0
81.5038 3.0
81.5678 2.0
81.6318 3.0
81.6958 2.0
81.7598 2.0
81.8238 1.0
81.8878 2.0
81.9518 0.0
82.0159 1.0
82.0799 4.0
82.1439 0.0
82.2079 2.0
82.2719 1.0
82.3359 2.0
82.3999 4.0
82.4639 0.0
82.5279 2.0
82.5919 1.0
82.656 0.0
82.72 1.0
82.784 3.0
82.848 1.0
82.912 2.0
82.976 4.0
83.04 5.0
83.104 2.0
83.168 3.0
83.232 7.0
83.2961 0.0
83.3601 3.0
83.4241 2.0
83.4881 1.0
83.5521 1.0
83.6161 0.0
83.6801 2.0
83.7441 3.0
83.8081 2.0
83.8721 0.0
83.9362 2.0
84.0002 3.0
84.0642 4.0
84.1282 0.0
84.1922 1.0
84.2562 2.0
84.3202 3.0
84.3842 0.0
84.4482 2.0
84.5123 3.0
84.5763 0.0
84.6403 4.0
84.7043 2.0
84.7683 2.0
84.8323 6.0
84.8963 0.0
84.9603 1.0
85.0243 0.0
85.0883 4.0
85.1524 3.0
85.2164 3.0
85.2804 0.0
85.3444 2.0
85.4084 3.0
85.4724 3.0
85.5364 1.0
85.6004 0.0
85.6644 3.0
85.7284 2.0
85.7925 0.0
85.8565 2.0
85.9205 0.0
85.9845 0.0
86.0485 4.0
86.1125 1.0
86.1765 1.0
86.2405 0.0
86.3045 1.0
86.3685 6.0
86.4326 4.0
86.4966 4.0
86.5606 3.0
86.6246 0.0
86.6886 2.0
86.7526 2.0
86.8166 0.0
86.8806 1.0
86.9446 1.0
87.0086 2.0
87.0727 1.0
87.1367 2.0
87.2007 1.0
87.2647 3.0
87.3287 3.0
87.3927 0.0
87.4567 1.0
87.5207 3.0
87.5847 0.0
87.6487 2.0
87.7128 0.0
87.7768 1.0
87.8408 0.0
87.9048 4.0
87.9688 3.0
88.0328 0.0
88.0968 6.0
88.1608 2.0
88.2248 1.0
88.2888 1.0
88.3529 0.0
88.4169 0.0
88.4809 5.0
88.5449 7.0
88.6089 2.0
88.6729 4.0
88.7369 2.0
88.8009 0.0
88.8649 1.0
88.9289 4.0
88.993 0.0
89.057 5.0
89.121 1.0
89.185 0.0
89.249 2.0
89.313 3.0
89.377 2.0
89.441 3.0
89.505 0.0
89.5691 1.0
89.6331 0.0
89.6971 0.0
89.7611 0.0
89.8251 4.0
89.8891 2.0
89.9531 2.0
90.0171 3.0
90.0811 0.0
90.1451 4.0
90.2092 1.0
90.2732 2.0
90.3372 2.0
90.4012 1.0
90.4652 1.0
90.5292 0.0
90.5932 2.0
90.6572 1.0
90.7212 3.0
90.7852 1.0
90.8493 3.0
90.9133 1.0
90.9773 3.0
91.0413 4.0
91.1053 0.0
91.1693 2.0
91.2333 0.0
91.2973 2.0
91.3613 1.0
91.4253 2.0
91.4894 3.0
91.5534 4.0
91.6174 1.0
91.6814 0.0
91.7454 2.0
91.8094 4.0
91.8734 2.0
91.9374 4.0
92.0014 1.0
92.0654 1.0
92.1295 1.0
92.1935 0.0
92.2575 1.0
92.3215 3.0
92.3855 0.0
92.4495 2.0
92.5135 2.0
92.5775 0.0
92.6415 1.0
92.7055 0.0
92.7696 2.0
92.8336 6.0
92.8976 0.0
92.9616 3.0
93.0256 3.0
93.0896 1.0
93.1536 4.0
93.2176 6.0
93.2816 1.0
93.3456 3.0
93.4097 1.0
93.4737 4.0
93.5377 7.0
93.6017 3.0
93.6657 2.0
93.7297 0.0
93.7937 2.0
93.8577 1.0
93.9217 1.0
93.9858 1.0
94.0498 4.0
94.1138 1.0
94.1778 2.0
94.2418 2.0
94.3058 0.0
94.3698 2.0
94.4338 1.0
94.4978 2.0
94.5618 4.0
94.6259 1.0
94.6899 1.0
94.7539 1.0
94.8179 0.0
94.8819 0.0
94.9459 1.0
95.0099 5.0
95.0739 3.0
95.1379 3.0
95.2019 5.0
95.266 4.0
95.33 2.0
95.394 1.0
95.458 0.0
95.522 1.0
95.586 2.0
95.65 2.0
95.714 2.0
95.778 4.0
95.842 1.0
95.9061 3.0
95.9701 3.0
96.0341 1.0
96.0981 1.0
96.1621 1.0
96.2261 3.0
96.2901 3.0
96.3541 3.0
96.4181 3.0
96.4821 2.0
96.5462 1.0
96.6102 1.0
96.6742 0.0
96.7382 2.0
96.8022 2.0
96.8662 2.0
96.9302 3.0
96.9942 0.0
97.0582 0.0
97.1222 0.0
97.1863 2.0
97.2503 5.0
97.3143 1.0
97.3783 0.0
97.4423 1.0
97.5063 2.0
97.5703 1.0
97.6343 3.0
97.6983 3.0
97.7623 1.0
97.8264 2.0
97.8904 0.0
97.9544 4.0
98.0184 0.0
98.0824 3.0
98.1464 0.0
98.2104 3.0
98.2744 0.0
98.3384 1.0
98.4024 2.0
98.4665 0.0
98.5305 2.0
98.5945 3.0
98.6585 3.0
98.7225 2.0
98.7865 1.0
98.8505 1.0
98.9145 4.0
98.9785 1.0
99.0426 5.0
99.1066 0.0
99.1706 5.0
99.2346 2.0
99.2986 2.0
99.3626 0.0
99.4266 0.0
99.4906 0.0
99.5546 1.0
99.6186 2.0
99.6827 4.0
99.7467 6.0
99.8107 4.0
99.8747 1.0
99.9387 0.0
99.9978 3.0