File: data/W6716/XRD_2ThetaOmega/W6716_absolute_2th-om_58-72deg-20min_2.xy
58.0028 315.0
58.0127 316.0
58.0225 278.0
58.0324 331.0
58.0422 290.0
58.0521 326.0
58.0619 286.0
58.0718 324.0
58.0816 271.0
58.0915 294.0
58.1013 291.0
58.1112 276.0
58.121 289.0
58.1309 309.0
58.1407 285.0
58.1505 306.0
58.1604 285.0
58.1702 296.0
58.1801 273.0
58.1899 285.0
58.1998 284.0
58.2096 311.0
58.2195 273.0
58.2293 261.0
58.2392 281.0
58.249 290.0
58.2589 258.0
58.2687 291.0
58.2786 280.0
58.2884 284.0
58.2983 277.0
58.3081 246.0
58.318 286.0
58.3278 272.0
58.3377 275.0
58.3475 289.0
58.3573 265.0
58.3672 289.0
58.377 276.0
58.3869 277.0
58.3967 289.0
58.4066 314.0
58.4164 244.0
58.4263 271.0
58.4361 267.0
58.446 261.0
58.4558 278.0
58.4657 245.0
58.4755 282.0
58.4854 269.0
58.4952 297.0
58.5051 280.0
58.5149 293.0
58.5248 289.0
58.5346 248.0
58.5445 278.0
58.5543 285.0
58.5642 279.0
58.574 286.0
58.5838 256.0
58.5937 273.0
58.6035 242.0
58.6134 269.0
58.6232 241.0
58.6331 270.0
58.6429 294.0
58.6528 286.0
58.6626 261.0
58.6725 295.0
58.6823 266.0
58.6922 297.0
58.702 255.0
58.7119 262.0
58.7217 256.0
58.7316 272.0
58.7414 236.0
58.7513 256.0
58.7611 264.0
58.771 327.0
58.7808 264.0
58.7906 296.0
58.8005 279.0
58.8103 285.0
58.8202 291.0
58.83 287.0
58.8399 242.0
58.8497 321.0
58.8596 271.0
58.8694 279.0
58.8793 266.0
58.8891 290.0
58.899 288.0
58.9088 300.0
58.9187 296.0
58.9285 278.0
58.9384 264.0
58.9482 264.0
58.9581 285.0
58.9679 269.0
58.9778 277.0
58.9876 268.0
58.9974 303.0
59.0073 298.0
59.0171 261.0
59.027 264.0
59.0368 282.0
59.0467 274.0
59.0565 259.0
59.0664 281.0
59.0762 283.0
59.0861 269.0
59.0959 260.0
59.1058 267.0
59.1156 272.0
59.1255 284.0
59.1353 270.0
59.1452 280.0
59.155 289.0
59.1649 256.0
59.1747 275.0
59.1846 267.0
59.1944 280.0
59.2043 269.0
59.2141 246.0
59.2239 283.0
59.2338 264.0
59.2436 298.0
59.2535 272.0
59.2633 289.0
59.2732 270.0
59.283 266.0
59.2929 282.0
59.3027 312.0
59.3126 272.0
59.3224 281.0
59.3323 241.0
59.3421 283.0
59.352 266.0
59.3618 265.0
59.3717 291.0
59.3815 266.0
59.3914 265.0
59.4012 294.0
59.4111 248.0
59.4209 300.0
59.4307 265.0
59.4406 302.0
59.4504 260.0
59.4603 271.0
59.4701 247.0
59.48 259.0
59.4898 270.0
59.4997 258.0
59.5095 279.0
59.5194 270.0
59.5292 272.0
59.5391 275.0
59.5489 293.0
59.5588 276.0
59.5686 286.0
59.5785 264.0
59.5883 283.0
59.5982 276.0
59.608 276.0
59.6179 256.0
59.6277 299.0
59.6376 264.0
59.6474 268.0
59.6572 295.0
59.6671 264.0
59.6769 300.0
59.6868 281.0
59.6966 275.0
59.7065 290.0
59.7163 275.0
59.7262 264.0
59.736 289.0
59.7459 281.0
59.7557 284.0
59.7656 292.0
59.7754 275.0
59.7853 270.0
59.7951 272.0
59.805 285.0
59.8148 285.0
59.8247 287.0
59.8345 297.0
59.8444 320.0
59.8542 275.0
59.864 266.0
59.8739 273.0
59.8837 283.0
59.8936 267.0
59.9034 288.0
59.9133 292.0
59.9231 275.0
59.933 245.0
59.9428 260.0
59.9527 279.0
59.9625 265.0
59.9724 274.0
59.9822 318.0
59.9921 274.0
60.0019 287.0
60.0118 276.0
60.0216 289.0
60.0315 261.0
60.0413 275.0
60.0512 275.0
60.061 226.0
60.0709 283.0
60.0807 269.0
60.0905 304.0
60.1004 265.0
60.1102 304.0
60.1201 278.0
60.1299 266.0
60.1398 285.0
60.1496 274.0
60.1595 295.0
60.1693 277.0
60.1792 333.0
60.189 306.0
60.1989 295.0
60.2087 289.0
60.2186 319.0
60.2284 299.0
60.2383 260.0
60.2481 279.0
60.258 308.0
60.2678 293.0
60.2777 278.0
60.2875 343.0
60.2973 274.0
60.3072 320.0
60.317 328.0
60.3269 294.0
60.3367 327.0
60.3466 272.0
60.3564 291.0
60.3663 277.0
60.3761 310.0
60.386 312.0
60.3958 324.0
60.4057 336.0
60.4155 327.0
60.4254 310.0
60.4352 310.0
60.4451 352.0
60.4549 301.0
60.4648 311.0
60.4746 283.0
60.4845 315.0
60.4943 298.0
60.5041 278.0
60.514 297.0
60.5238 299.0
60.5337 310.0
60.5435 315.0
60.5534 303.0
60.5632 309.0
60.5731 321.0
60.5829 329.0
60.5928 329.0
60.6026 312.0
60.6125 326.0
60.6223 308.0
60.6322 330.0
60.642 325.0
60.6519 335.0
60.6617 331.0
60.6716 377.0
60.6814 343.0
60.6913 366.0
60.7011 362.0
60.711 407.0
60.7208 427.0
60.7306 455.0
60.7405 500.0
60.7503 601.0
60.7602 735.0
60.77 904.0
60.7799 1174.0
60.7897 1532.0
60.7996 1968.0
60.8094 2309.0
60.8193 2611.0
60.8291 2467.0
60.839 2327.0
60.8488 2111.0
60.8587 1836.0
60.8685 1532.0
60.8784 1404.0
60.8882 1269.0
60.8981 1282.0
60.9079 1199.0
60.9178 1090.0
60.9276 979.0
60.9374 811.0
60.9473 717.0
60.9571 654.0
60.967 548.0
60.9768 479.0
60.9867 539.0
60.9965 460.0
61.0064 452.0
61.0162 396.0
61.0261 405.0
61.0359 411.0
61.0458 378.0
61.0556 401.0
61.0655 365.0
61.0753 356.0
61.0852 340.0
61.095 345.0
61.1049 329.0
61.1147 378.0
61.1246 361.0
61.1344 340.0
61.1443 331.0
61.1541 352.0
61.1639 396.0
61.1738 379.0
61.1836 343.0
61.1935 387.0
61.2033 377.0
61.2132 325.0
61.223 342.0
61.2329 293.0
61.2427 336.0
61.2526 299.0
61.2624 303.0
61.2723 348.0
61.2821 328.0
61.292 330.0
61.3018 298.0
61.3117 313.0
61.3215 327.0
61.3314 346.0
61.3412 341.0
61.3511 327.0
61.3609 350.0
61.3707 319.0
61.3806 362.0
61.3904 349.0
61.4003 336.0
61.4101 349.0
61.42 365.0
61.4298 375.0
61.4397 372.0
61.4495 316.0
61.4594 328.0
61.4692 359.0
61.4791 364.0
61.4889 333.0
61.4988 372.0
61.5086 381.0
61.5185 399.0
61.5283 369.0
61.5382 367.0
61.548 380.0
61.5579 437.0
61.5677 402.0
61.5776 372.0
61.5874 423.0
61.5972 416.0
61.6071 463.0
61.6169 423.0
61.6268 458.0
61.6366 392.0
61.6465 421.0
61.6563 420.0
61.6662 442.0
61.676 482.0
61.6859 421.0
61.6957 444.0
61.7056 444.0
61.7154 430.0
61.7253 428.0
61.7351 457.0
61.745 417.0
61.7548 455.0
61.7647 428.0
61.7745 421.0
61.7844 414.0
61.7942 373.0
61.804 412.0
61.8139 358.0
61.8237 398.0
61.8336 378.0
61.8434 371.0
61.8533 370.0
61.8631 381.0
61.873 377.0
61.8828 347.0
61.8927 392.0
61.9025 353.0
61.9124 375.0
61.9222 383.0
61.9321 361.0
61.9419 347.0
61.9518 355.0
61.9616 339.0
61.9715 367.0
61.9813 329.0
61.9912 326.0
62.001 340.0
62.0108 368.0
62.0207 336.0
62.0305 342.0
62.0404 363.0
62.0502 289.0
62.0601 336.0
62.0699 321.0
62.0798 355.0
62.0896 351.0
62.0995 412.0
62.1093 365.0
62.1192 313.0
62.129 352.0
62.1389 369.0
62.1487 349.0
62.1586 386.0
62.1684 357.0
62.1783 343.0
62.1881 353.0
62.198 401.0
62.2078 361.0
62.2177 366.0
62.2275 393.0
62.2373 337.0
62.2472 371.0
62.257 361.0
62.2669 326.0
62.2767 395.0
62.2866 354.0
62.2964 383.0
62.3063 360.0
62.3161 355.0
62.326 314.0
62.3358 335.0
62.3457 346.0
62.3555 360.0
62.3654 340.0
62.3752 358.0
62.3851 336.0
62.3949 346.0
62.4048 334.0
62.4146 322.0
62.4245 322.0
62.4343 371.0
62.4441 329.0
62.454 346.0
62.4638 337.0
62.4737 362.0
62.4835 364.0
62.4934 366.0
62.5032 306.0
62.5131 330.0
62.5229 335.0
62.5328 340.0
62.5426 327.0
62.5525 352.0
62.5623 335.0
62.5722 335.0
62.582 341.0
62.5919 299.0
62.6017 358.0
62.6116 346.0
62.6214 327.0
62.6313 391.0
62.6411 386.0
62.651 346.0
62.6608 341.0
62.6706 320.0
62.6805 345.0
62.6903 344.0
62.7002 318.0
62.71 358.0
62.7199 327.0
62.7297 332.0
62.7396 332.0
62.7494 354.0
62.7593 340.0
62.7691 339.0
62.779 318.0
62.7888 327.0
62.7987 324.0
62.8085 347.0
62.8184 350.0
62.8282 334.0
62.8381 347.0
62.8479 361.0
62.8578 395.0
62.8676 352.0
62.8774 307.0
62.8873 337.0
62.8971 381.0
62.907 370.0
62.9168 338.0
62.9267 367.0
62.9365 368.0
62.9464 370.0
62.9562 373.0
62.9661 315.0
62.9759 366.0
62.9858 371.0
62.9956 362.0
63.0055 341.0
63.0153 329.0
63.0252 364.0
63.035 352.0
63.0449 372.0
63.0547 358.0
63.0646 370.0
63.0744 367.0
63.0843 369.0
63.0941 371.0
63.1039 381.0
63.1138 391.0
63.1236 375.0
63.1335 361.0
63.1433 382.0
63.1532 384.0
63.163 360.0
63.1729 357.0
63.1827 374.0
63.1926 369.0
63.2024 368.0
63.2123 364.0
63.2221 404.0
63.232 357.0
63.2418 389.0
63.2517 371.0
63.2615 412.0
63.2714 394.0
63.2812 372.0
63.2911 382.0
63.3009 353.0
63.3107 384.0
63.3206 388.0
63.3304 369.0
63.3403 356.0
63.3501 414.0
63.36 369.0
63.3698 426.0
63.3797 380.0
63.3895 352.0
63.3994 400.0
63.4092 395.0
63.4191 414.0
63.4289 399.0
63.4388 428.0
63.4486 442.0
63.4585 400.0
63.4683 420.0
63.4782 430.0
63.488 436.0
63.4979 432.0
63.5077 458.0
63.5175 453.0
63.5274 406.0
63.5372 420.0
63.5471 477.0
63.5569 433.0
63.5668 445.0
63.5766 420.0
63.5865 384.0
63.5963 447.0
63.6062 499.0
63.616 396.0
63.6259 455.0
63.6357 471.0
63.6456 443.0
63.6554 447.0
63.6653 483.0
63.6751 459.0
63.685 513.0
63.6948 498.0
63.7047 496.0
63.7145 475.0
63.7244 539.0
63.7342 488.0
63.744 480.0
63.7539 528.0
63.7637 519.0
63.7736 469.0
63.7834 534.0
63.7933 507.0
63.8031 522.0
63.813 546.0
63.8228 555.0
63.8327 610.0
63.8425 599.0
63.8524 587.0
63.8622 555.0
63.8721 590.0
63.8819 557.0
63.8918 616.0
63.9016 665.0
63.9115 594.0
63.9213 675.0
63.9312 619.0
63.941 628.0
63.9508 634.0
63.9607 711.0
63.9705 670.0
63.9804 672.0
63.9902 668.0
64.0001 724.0
64.0099 732.0
64.0198 710.0
64.0296 768.0
64.0395 775.0
64.0493 760.0
64.0592 820.0
64.069 840.0
64.0789 802.0
64.0887 814.0
64.0986 880.0
64.1084 867.0
64.1183 916.0
64.1281 1011.0
64.138 1052.0
64.1478 1010.0
64.1577 1064.0
64.1675 1082.0
64.1773 1097.0
64.1872 1153.0
64.197 1234.0
64.2069 1269.0
64.2167 1273.0
64.2266 1405.0
64.2364 1330.0
64.2463 1476.0
64.2561 1491.0
64.266 1550.0
64.2758 1631.0
64.2857 1690.0
64.2955 1731.0
64.3054 1935.0
64.3152 1970.0
64.3251 2105.0
64.3349 2161.0
64.3448 2314.0
64.3546 2449.0
64.3645 2458.0
64.3743 2656.0
64.3841 2705.0
64.394 2804.0
64.4038 3002.0
64.4137 3296.0
64.4235 3373.0
64.4334 3769.0
64.4432 3943.0
64.4531 4189.0
64.4629 4421.0
64.4728 4652.0
64.4826 5027.0
64.4925 5344.0
64.5023 5751.0
64.5122 6226.0
64.522 6798.0
64.5319 7141.0
64.5417 8031.0
64.5516 8762.0
64.5614 9562.0
64.5713 10302.0
64.5811 11094.0
64.591 12071.0
64.6008 13139.0
64.6106 13915.0
64.6205 14937.0
64.6303 16244.0
64.6402 16946.0
64.65 17931.0
64.6599 18434.0
64.6697 19131.0
64.6796 19532.0
64.6894 19794.0
64.6993 19601.0
64.7091 19706.0
64.719 19727.0
64.7288 19214.0
64.7387 18793.0
64.7485 18227.0
64.7584 17924.0
64.7682 17414.0
64.7781 17000.0
64.7879 16740.0
64.7978 16273.0
64.8076 16250.0
64.8174 15905.0
64.8273 15817.0
64.8371 15601.0
64.847 15441.0
64.8568 14971.0
64.8667 14838.0
64.8765 14487.0
64.8864 14457.0
64.8962 14450.0
64.9061 14316.0
64.9159 14220.0
64.9258 14220.0
64.9356 14129.0
64.9455 13372.0
64.9553 12731.0
64.9652 11868.0
64.975 10751.0
64.9849 9424.0
64.9947 8728.0
65.0046 7757.0
65.0144 6891.0
65.0242 6280.0
65.0341 5956.0
65.0439 5493.0
65.0538 5081.0
65.0636 4559.0
65.0735 4348.0
65.0833 4024.0
65.0932 3828.0
65.103 3664.0
65.1129 3373.0
65.1227 3158.0
65.1326 3018.0
65.1424 2887.0
65.1523 2818.0
65.1621 2699.0
65.172 2583.0
65.1818 2382.0
65.1917 2300.0
65.2015 2263.0
65.2114 2192.0
65.2212 2011.0
65.2311 1968.0
65.2409 1891.0
65.2507 1820.0
65.2606 1732.0
65.2704 1734.0
65.2803 1673.0
65.2901 1628.0
65.3 1554.0
65.3098 1515.0
65.3197 1465.0
65.3295 1437.0
65.3394 1419.0
65.3492 1398.0
65.3591 1327.0
65.3689 1277.0
65.3788 1235.0
65.3886 1252.0
65.3985 1264.0
65.4083 1200.0
65.4182 1258.0
65.428 1247.0
65.4379 1313.0
65.4477 1438.0
65.4575 1518.0
65.4674 1592.0
65.4772 1726.0
65.4871 1704.0
65.4969 1661.0
65.5068 1564.0
65.5166 1496.0
65.5265 1375.0
65.5363 1280.0
65.5462 1127.0
65.556 1072.0
65.5659 1062.0
65.5757 931.0
65.5856 956.0
65.5954 878.0
65.6053 864.0
65.6151 825.0
65.625 872.0
65.6348 799.0
65.6447 800.0
65.6545 823.0
65.6644 809.0
65.6742 737.0
65.684 713.0
65.6939 668.0
65.7037 714.0
65.7136 678.0
65.7234 715.0
65.7333 695.0
65.7431 694.0
65.753 732.0
65.7628 662.0
65.7727 683.0
65.7825 660.0
65.7924 660.0
65.8022 696.0
65.8121 701.0
65.8219 665.0
65.8318 637.0
65.8416 644.0
65.8515 649.0
65.8613 652.0
65.8712 649.0
65.881 640.0
65.8908 648.0
65.9007 648.0
65.9105 646.0
65.9204 672.0
65.9302 628.0
65.9401 612.0
65.9499 638.0
65.9598 676.0
65.9696 635.0
65.9795 638.0
65.9893 559.0
65.9992 675.0
66.009 669.0
66.0189 625.0
66.0287 637.0
66.0386 636.0
66.0484 579.0
66.0583 645.0
66.0681 608.0
66.078 591.0
66.0878 641.0
66.0977 652.0
66.1075 646.0
66.1173 662.0
66.1272 689.0
66.137 664.0
66.1469 659.0
66.1567 613.0
66.1666 662.0
66.1764 641.0
66.1863 657.0
66.1961 608.0
66.206 640.0
66.2158 605.0
66.2257 622.0
66.2355 628.0
66.2454 652.0
66.2552 647.0
66.2651 636.0
66.2749 583.0
66.2848 668.0
66.2946 626.0
66.3045 649.0
66.3143 635.0
66.3241 641.0
66.334 640.0
66.3438 673.0
66.3537 672.0
66.3635 620.0
66.3734 653.0
66.3832 656.0
66.3931 681.0
66.4029 672.0
66.4128 691.0
66.4226 662.0
66.4325 664.0
66.4423 661.0
66.4522 673.0
66.462 705.0
66.4719 672.0
66.4817 683.0
66.4916 688.0
66.5014 688.0
66.5113 707.0
66.5211 699.0
66.5309 708.0
66.5408 666.0
66.5506 693.0
66.5605 724.0
66.5703 777.0
66.5802 729.0
66.59 735.0
66.5999 720.0
66.6097 720.0
66.6196 742.0
66.6294 779.0
66.6393 732.0
66.6491 755.0
66.659 718.0
66.6688 745.0
66.6787 786.0
66.6885 802.0
66.6984 805.0
66.7082 792.0
66.7181 762.0
66.7279 800.0
66.7378 750.0
66.7476 793.0
66.7574 799.0
66.7673 818.0
66.7771 873.0
66.787 814.0
66.7968 795.0
66.8067 876.0
66.8165 852.0
66.8264 867.0
66.8362 936.0
66.8461 866.0
66.8559 949.0
66.8658 889.0
66.8756 869.0
66.8855 878.0
66.8953 877.0
66.9052 900.0
66.915 899.0
66.9249 900.0
66.9347 960.0
66.9446 913.0
66.9544 963.0
66.9642 921.0
66.9741 928.0
66.9839 1003.0
66.9938 977.0
67.0036 956.0
67.0135 932.0
67.0233 1021.0
67.0332 1038.0
67.043 1036.0
67.0529 1047.0
67.0627 1068.0
67.0726 1097.0
67.0824 1046.0
67.0923 1090.0
67.1021 1103.0
67.112 1097.0
67.1218 1058.0
67.1317 1150.0
67.1415 1096.0
67.1514 1137.0
67.1612 1180.0
67.1711 1110.0
67.1809 1147.0
67.1907 1165.0
67.2006 1152.0
67.2104 1199.0
67.2203 1238.0
67.2301 1206.0
67.24 1204.0
67.2498 1267.0
67.2597 1282.0
67.2695 1331.0
67.2794 1363.0
67.2892 1267.0
67.2991 1301.0
67.3089 1286.0
67.3188 1421.0
67.3286 1356.0
67.3385 1360.0
67.3483 1420.0
67.3582 1403.0
67.368 1419.0
67.3779 1472.0
67.3877 1491.0
67.3975 1500.0
67.4074 1486.0
67.4172 1521.0
67.4271 1599.0
67.4369 1552.0
67.4468 1611.0
67.4566 1673.0
67.4665 1710.0
67.4763 1706.0
67.4862 1730.0
67.496 1706.0
67.5059 1748.0
67.5157 1755.0
67.5256 1798.0
67.5354 1750.0
67.5453 1854.0
67.5551 1883.0
67.565 1938.0
67.5748 1967.0
67.5847 2007.0
67.5945 2067.0
67.6044 1994.0
67.6142 2159.0
67.624 2219.0
67.6339 2280.0
67.6437 2430.0
67.6536 2422.0
67.6634 2550.0
67.6733 2681.0
67.6831 2757.0
67.693 2922.0
67.7028 3020.0
67.7127 3281.0
67.7225 3570.0
67.7324 3928.0
67.7422 4317.0
67.7521 4643.0
67.7619 4995.0
67.7718 5619.0
67.7816 6012.0
67.7915 6301.0
67.8013 6418.0
67.8112 6847.0
67.821 7088.0
67.8308 7222.0
67.8407 7184.0
67.8505 6945.0
67.8604 7082.0
67.8702 7007.0
67.8801 7057.0
67.8899 6742.0
67.8998 6933.0
67.9096 7079.0
67.9195 7273.0
67.9293 7640.0
67.9392 8043.0
67.949 8516.0
67.9589 9007.0
67.9687 9769.0
67.9786 10631.0
67.9884 11852.0
67.9983 13214.0
68.0081 14811.0
68.018 17280.0
68.0278 19741.0
68.0376 23401.0
68.0475 27968.0
68.0573 34619.0
68.0672 44591.0
68.077 59333.0
68.0869 84164.0
68.0967 132885.0
68.1066 237624.0
68.1164 415542.0
68.1263 577120.0
68.1361 662448.0
68.146 695215.0
68.1558 673945.0
68.1657 568282.0
68.1755 382368.0
68.1854 232107.0
68.1952 147293.0
68.2051 97704.0
68.2149 69607.0
68.2248 53232.0
68.2346 44278.0
68.2445 40354.0
68.2543 40145.0
68.2641 43329.0
68.274 51149.0
68.2838 68313.0
68.2937 103587.0
68.3035 167963.0
68.3134 249165.0
68.3232 312450.0
68.3331 345779.0
68.3429 349342.0
68.3528 322068.0
68.3626 253504.0
68.3725 171728.0
68.3823 109841.0
68.3922 70857.0
68.402 48453.0
68.4119 34936.0
68.4217 26736.0
68.4316 21438.0
68.4414 18131.0
68.4513 15502.0
68.4611 13446.0
68.4709 11710.0
68.4808 10973.0
68.4906 9798.0
68.5005 9137.0
68.5103 8564.0
68.5202 7868.0
68.53 7405.0
68.5399 6963.0
68.5497 6617.0
68.5596 6270.0
68.5694 5932.0
68.5793 5663.0
68.5891 5388.0
68.599 5153.0
68.6088 4890.0
68.6187 4797.0
68.6285 4477.0
68.6384 4449.0
68.6482 4249.0
68.6581 4062.0
68.6679 3862.0
68.6778 3898.0
68.6876 3608.0
68.6974 3580.0
68.7073 3488.0
68.7171 3404.0
68.727 3324.0
68.7368 3193.0
68.7467 2998.0
68.7565 3057.0
68.7664 2972.0
68.7762 2873.0
68.7861 2810.0
68.7959 2713.0
68.8058 2638.0
68.8156 2583.0
68.8255 2457.0
68.8353 2474.0
68.8452 2466.0
68.855 2299.0
68.8649 2262.0
68.8747 2219.0
68.8846 2281.0
68.8944 2164.0
68.9042 2193.0
68.9141 2173.0
68.9239 2052.0
68.9338 2053.0
68.9436 2061.0
68.9535 2013.0
68.9633 1955.0
68.9732 1974.0
68.983 2000.0
68.9929 2001.0
69.0027 1935.0
69.0126 1907.0
69.0224 1920.0
69.0323 1872.0
69.0421 1877.0
69.052 1825.0
69.0618 1802.0
69.0717 1762.0
69.0815 1740.0
69.0914 1711.0
69.1012 1692.0
69.1111 1683.0
69.1209 1662.0
69.1307 1613.0
69.1406 1543.0
69.1504 1576.0
69.1603 1521.0
69.1701 1606.0
69.18 1470.0
69.1898 1539.0
69.1997 1460.0
69.2095 1492.0
69.2194 1467.0
69.2292 1420.0
69.2391 1513.0
69.2489 1527.0
69.2588 1401.0
69.2686 1404.0
69.2785 1380.0
69.2883 1329.0
69.2982 1400.0
69.308 1329.0
69.3179 1374.0
69.3277 1363.0
69.3375 1345.0
69.3474 1270.0
69.3572 1300.0
69.3671 1232.0
69.3769 1202.0
69.3868 1223.0
69.3966 1239.0
69.4065 1172.0
69.4163 1184.0
69.4262 1165.0
69.436 1141.0
69.4459 1188.0
69.4557 1123.0
69.4656 1157.0
69.4754 1074.0
69.4853 1093.0
69.4951 1061.0
69.505 1090.0
69.5148 1076.0
69.5247 1035.0
69.5345 1001.0
69.5443 1095.0
69.5542 1051.0
69.564 1062.0
69.5739 1035.0
69.5837 998.0
69.5936 1050.0
69.6034 1013.0
69.6133 1019.0
69.6231 965.0
69.633 972.0
69.6428 1007.0
69.6527 945.0
69.6625 925.0
69.6724 892.0
69.6822 918.0
69.6921 936.0
69.7019 946.0
69.7118 879.0
69.7216 914.0
69.7315 852.0
69.7413 870.0
69.7512 892.0
69.761 890.0
69.7708 825.0
69.7807 868.0
69.7905 889.0
69.8004 829.0
69.8102 841.0
69.8201 851.0
69.8299 809.0
69.8398 821.0
69.8496 792.0
69.8595 780.0
69.8693 766.0
69.8792 755.0
69.889 747.0
69.8989 721.0
69.9087 778.0
69.9186 749.0
69.9284 768.0
69.9383 752.0
69.9481 770.0
69.958 740.0
69.9678 704.0
69.9776 701.0
69.9875 676.0
69.9973 667.0
70.0072 725.0
70.017 688.0
70.0269 713.0
70.0367 696.0
70.0466 656.0
70.0564 706.0
70.0663 660.0
70.0761 670.0
70.086 700.0
70.0958 641.0
70.1057 680.0
70.1155 629.0
70.1254 676.0
70.1352 658.0
70.1451 637.0
70.1549 609.0
70.1648 653.0
70.1746 593.0
70.1845 621.0
70.1943 630.0
70.2041 620.0
70.214 612.0
70.2238 576.0
70.2337 568.0
70.2435 608.0
70.2534 609.0
70.2632 593.0
70.2731 576.0
70.2829 579.0
70.2928 594.0
70.3026 630.0
70.3125 553.0
70.3223 555.0
70.3322 567.0
70.342 593.0
70.3519 569.0
70.3617 562.0
70.3716 565.0
70.3814 564.0
70.3913 568.0
70.4011 537.0
70.4109 546.0
70.4208 536.0
70.4306 501.0
70.4405 497.0
70.4503 531.0
70.4602 512.0
70.47 533.0
70.4799 515.0
70.4897 520.0
70.4996 525.0
70.5094 520.0
70.5193 495.0
70.5291 506.0
70.539 485.0
70.5488 510.0
70.5587 479.0
70.5685 455.0
70.5784 511.0
70.5882 521.0
70.5981 517.0
70.6079 499.0
70.6178 470.0
70.6276 503.0
70.6374 482.0
70.6473 510.0
70.6571 456.0
70.667 474.0
70.6768 481.0
70.6867 461.0
70.6965 515.0
70.7064 461.0
70.7162 444.0
70.7261 446.0
70.7359 493.0
70.7458 480.0
70.7556 438.0
70.7655 445.0
70.7753 462.0
70.7852 425.0
70.795 460.0
70.8049 437.0
70.8147 431.0
70.8246 401.0
70.8344 418.0
70.8442 468.0
70.8541 474.0
70.8639 438.0
70.8738 429.0
70.8836 431.0
70.8935 423.0
70.9033 448.0
70.9132 420.0
70.923 444.0
70.9329 424.0
70.9427 430.0
70.9526 426.0
70.9624 441.0
70.9723 397.0
70.9821 437.0
70.992 427.0
71.0018 450.0
71.0117 389.0
71.0215 422.0
71.0314 435.0
71.0412 457.0
71.051 446.0
71.0609 423.0
71.0707 396.0
71.0806 429.0
71.0904 409.0
71.1003 438.0
71.1101 395.0
71.12 438.0
71.1298 404.0
71.1397 400.0
71.1495 416.0
71.1594 386.0
71.1692 412.0
71.1791 421.0
71.1889 411.0
71.1988 413.0
71.2086 427.0
71.2185 389.0
71.2283 356.0
71.2382 404.0
71.248 361.0
71.2579 385.0
71.2677 398.0
71.2775 383.0
71.2874 394.0
71.2972 411.0
71.3071 350.0
71.3169 383.0
71.3268 384.0
71.3366 376.0
71.3465 392.0
71.3563 394.0
71.3662 366.0
71.376 369.0
71.3859 358.0
71.3957 390.0
71.4056 394.0
71.4154 425.0
71.4253 400.0
71.4351 390.0
71.445 355.0
71.4548 388.0
71.4647 397.0
71.4745 365.0
71.4843 389.0
71.4942 343.0
71.504 354.0
71.5139 400.0
71.5237 384.0
71.5336 351.0
71.5434 353.0
71.5533 378.0
71.5631 391.0
71.573 365.0
71.5828 381.0
71.5927 360.0
71.6025 358.0
71.6124 358.0
71.6222 330.0
71.6321 383.0
71.6419 367.0
71.6518 349.0
71.6616 375.0
71.6715 349.0
71.6813 343.0
71.6912 387.0
71.701 338.0
71.7108 380.0
71.7207 369.0
71.7305 355.0
71.7404 380.0
71.7502 363.0
71.7601 346.0
71.7699 323.0
71.7798 338.0
71.7896 353.0
71.7995 352.0
71.8093 393.0
71.8192 362.0
71.829 352.0
71.8389 345.0
71.8487 345.0
71.8586 328.0
71.8684 310.0
71.8783 382.0
71.8881 388.0
71.898 355.0
71.9078 346.0
71.9176 313.0
71.9275 335.0
71.9373 361.0
71.9472 345.0
71.957 363.0
71.9669 334.0
71.9767 367.0
71.9866 356.0
71.9964 358.0
71.9989 327.0