File: data/W6907a/XRD_2ThetaOmega/scan_2th-om_a_Cr2O3_30-40deg_PIXscan_4min_8.xy
30.0025 86.0
30.0123 88.0
30.0222 72.0
30.032 73.0
30.0419 97.0
30.0517 69.0
30.0615 76.0
30.0714 103.0
30.0812 95.0
30.0911 99.0
30.1009 96.0
30.1108 80.0
30.1206 81.0
30.1305 81.0
30.1403 99.0
30.1502 98.0
30.16 90.0
30.1699 102.0
30.1797 93.0
30.1896 95.0
30.1994 79.0
30.2093 79.0
30.2191 96.0
30.229 82.0
30.2388 97.0
30.2487 84.0
30.2585 94.0
30.2684 82.0
30.2782 91.0
30.288 92.0
30.2979 95.0
30.3077 87.0
30.3176 80.0
30.3274 80.0
30.3373 89.0
30.3471 96.0
30.357 74.0
30.3668 85.0
30.3767 70.0
30.3865 80.0
30.3964 97.0
30.4062 107.0
30.4161 81.0
30.4259 102.0
30.4358 72.0
30.4456 70.0
30.4555 90.0
30.4653 92.0
30.4752 88.0
30.485 96.0
30.4948 93.0
30.5047 87.0
30.5145 88.0
30.5244 91.0
30.5342 94.0
30.5441 93.0
30.5539 90.0
30.5638 82.0
30.5736 84.0
30.5835 99.0
30.5933 82.0
30.6032 97.0
30.613 83.0
30.6229 81.0
30.6327 97.0
30.6426 98.0
30.6524 80.0
30.6623 95.0
30.6721 82.0
30.682 113.0
30.6918 102.0
30.7016 63.0
30.7115 90.0
30.7213 73.0
30.7312 78.0
30.741 95.0
30.7509 94.0
30.7607 76.0
30.7706 92.0
30.7804 89.0
30.7903 76.0
30.8001 86.0
30.81 91.0
30.8198 83.0
30.8297 78.0
30.8395 82.0
30.8494 93.0
30.8592 91.0
30.8691 78.0
30.8789 88.0
30.8888 94.0
30.8986 79.0
30.9085 78.0
30.9183 96.0
30.9281 76.0
30.938 87.0
30.9478 94.0
30.9577 81.0
30.9675 86.0
30.9774 79.0
30.9872 84.0
30.9971 105.0
31.0069 98.0
31.0168 85.0
31.0266 78.0
31.0365 76.0
31.0463 87.0
31.0562 89.0
31.066 75.0
31.0759 106.0
31.0857 86.0
31.0956 82.0
31.1054 79.0
31.1153 93.0
31.1251 98.0
31.1349 92.0
31.1448 91.0
31.1546 84.0
31.1645 91.0
31.1743 109.0
31.1842 74.0
31.194 75.0
31.2039 80.0
31.2137 93.0
31.2236 83.0
31.2334 89.0
31.2433 83.0
31.2531 104.0
31.263 100.0
31.2728 91.0
31.2827 94.0
31.2925 90.0
31.3024 95.0
31.3122 81.0
31.3221 84.0
31.3319 84.0
31.3418 101.0
31.3516 91.0
31.3614 77.0
31.3713 96.0
31.3811 64.0
31.391 95.0
31.4008 79.0
31.4107 85.0
31.4205 99.0
31.4304 73.0
31.4402 82.0
31.4501 92.0
31.4599 88.0
31.4698 106.0
31.4796 98.0
31.4895 90.0
31.4993 105.0
31.5092 93.0
31.519 101.0
31.5289 83.0
31.5387 94.0
31.5486 89.0
31.5584 84.0
31.5682 91.0
31.5781 99.0
31.5879 102.0
31.5978 102.0
31.6076 90.0
31.6175 80.0
31.6273 95.0
31.6372 93.0
31.647 100.0
31.6569 90.0
31.6667 98.0
31.6766 99.0
31.6864 112.0
31.6963 88.0
31.7061 102.0
31.716 81.0
31.7258 103.0
31.7357 84.0
31.7455 86.0
31.7554 105.0
31.7652 83.0
31.7751 98.0
31.7849 85.0
31.7947 78.0
31.8046 84.0
31.8144 67.0
31.8243 92.0
31.8341 93.0
31.844 92.0
31.8538 85.0
31.8637 79.0
31.8735 96.0
31.8834 86.0
31.8932 96.0
31.9031 85.0
31.9129 107.0
31.9228 87.0
31.9326 83.0
31.9425 90.0
31.9523 93.0
31.9622 105.0
31.972 92.0
31.9819 100.0
31.9917 88.0
32.0015 106.0
32.0114 107.0
32.0212 91.0
32.0311 85.0
32.0409 82.0
32.0508 88.0
32.0606 90.0
32.0705 107.0
32.0803 83.0
32.0902 90.0
32.1 100.0
32.1099 111.0
32.1197 81.0
32.1296 85.0
32.1394 102.0
32.1493 115.0
32.1591 75.0
32.169 108.0
32.1788 84.0
32.1887 94.0
32.1985 84.0
32.2083 83.0
32.2182 87.0
32.228 79.0
32.2379 84.0
32.2477 98.0
32.2576 84.0
32.2674 96.0
32.2773 91.0
32.2871 91.0
32.297 107.0
32.3068 96.0
32.3167 92.0
32.3265 65.0
32.3364 72.0
32.3462 89.0
32.3561 96.0
32.3659 107.0
32.3758 96.0
32.3856 88.0
32.3955 98.0
32.4053 117.0
32.4152 101.0
32.425 113.0
32.4348 108.0
32.4447 115.0
32.4545 115.0
32.4644 110.0
32.4742 103.0
32.4841 128.0
32.4939 113.0
32.5038 107.0
32.5136 139.0
32.5235 116.0
32.5333 107.0
32.5432 110.0
32.553 136.0
32.5629 116.0
32.5727 118.0
32.5826 100.0
32.5924 97.0
32.6023 118.0
32.6121 109.0
32.622 99.0
32.6318 112.0
32.6416 88.0
32.6515 115.0
32.6613 84.0
32.6712 92.0
32.681 111.0
32.6909 113.0
32.7007 77.0
32.7106 103.0
32.7204 87.0
32.7303 101.0
32.7401 101.0
32.75 82.0
32.7598 80.0
32.7697 82.0
32.7795 89.0
32.7894 102.0
32.7992 84.0
32.8091 64.0
32.8189 85.0
32.8288 92.0
32.8386 88.0
32.8485 90.0
32.8583 96.0
32.8681 76.0
32.878 94.0
32.8878 79.0
32.8977 101.0
32.9075 80.0
32.9174 82.0
32.9272 93.0
32.9371 90.0
32.9469 97.0
32.9568 96.0
32.9666 90.0
32.9765 84.0
32.9863 85.0
32.9962 90.0
33.006 108.0
33.0159 79.0
33.0257 84.0
33.0356 92.0
33.0454 95.0
33.0553 106.0
33.0651 88.0
33.0749 116.0
33.0848 94.0
33.0946 78.0
33.1045 100.0
33.1143 81.0
33.1242 90.0
33.134 92.0
33.1439 101.0
33.1537 98.0
33.1636 87.0
33.1734 109.0
33.1833 89.0
33.1931 99.0
33.203 75.0
33.2128 91.0
33.2227 100.0
33.2325 99.0
33.2424 95.0
33.2522 96.0
33.2621 95.0
33.2719 95.0
33.2818 99.0
33.2916 87.0
33.3014 91.0
33.3113 89.0
33.3211 87.0
33.331 104.0
33.3408 89.0
33.3507 86.0
33.3605 93.0
33.3704 101.0
33.3802 98.0
33.3901 90.0
33.3999 76.0
33.4098 86.0
33.4196 91.0
33.4295 89.0
33.4393 96.0
33.4492 95.0
33.459 92.0
33.4689 94.0
33.4787 99.0
33.4886 114.0
33.4984 93.0
33.5082 89.0
33.5181 97.0
33.5279 86.0
33.5378 93.0
33.5476 107.0
33.5575 90.0
33.5673 82.0
33.5772 118.0
33.587 90.0
33.5969 96.0
33.6067 101.0
33.6166 123.0
33.6264 100.0
33.6363 109.0
33.6461 118.0
33.656 100.0
33.6658 113.0
33.6757 99.0
33.6855 104.0
33.6954 89.0
33.7052 102.0
33.715 88.0
33.7249 109.0
33.7347 100.0
33.7446 94.0
33.7544 126.0
33.7643 115.0
33.7741 94.0
33.784 87.0
33.7938 109.0
33.8037 116.0
33.8135 106.0
33.8234 98.0
33.8332 145.0
33.8431 145.0
33.8529 194.0
33.8628 315.0
33.8726 512.0
33.8825 800.0
33.8923 1185.0
33.9022 1416.0
33.912 1348.0
33.9219 1247.0
33.9317 971.0
33.9415 655.0
33.9514 434.0
33.9612 326.0
33.9711 226.0
33.9809 178.0
33.9908 153.0
34.0006 140.0
34.0105 142.0
34.0203 132.0
34.0302 139.0
34.04 123.0
34.0499 122.0
34.0597 107.0
34.0696 140.0
34.0794 119.0
34.0893 114.0
34.0991 97.0
34.109 103.0
34.1188 86.0
34.1287 100.0
34.1385 127.0
34.1483 134.0
34.1582 101.0
34.168 104.0
34.1779 116.0
34.1877 108.0
34.1976 106.0
34.2074 103.0
34.2173 107.0
34.2271 111.0
34.237 109.0
34.2468 115.0
34.2567 87.0
34.2665 96.0
34.2764 94.0
34.2862 119.0
34.2961 100.0
34.3059 106.0
34.3158 113.0
34.3256 112.0
34.3355 111.0
34.3453 100.0
34.3552 105.0
34.365 102.0
34.3748 119.0
34.3847 124.0
34.3945 111.0
34.4044 123.0
34.4142 131.0
34.4241 114.0
34.4339 114.0
34.4438 106.0
34.4536 113.0
34.4635 95.0
34.4733 115.0
34.4832 98.0
34.493 121.0
34.5029 111.0
34.5127 120.0
34.5226 116.0
34.5324 123.0
34.5423 119.0
34.5521 105.0
34.562 119.0
34.5718 104.0
34.5816 101.0
34.5915 103.0
34.6013 119.0
34.6112 118.0
34.621 116.0
34.6309 115.0
34.6407 103.0
34.6506 114.0
34.6604 92.0
34.6703 113.0
34.6801 118.0
34.69 113.0
34.6998 94.0
34.7097 124.0
34.7195 124.0
34.7294 98.0
34.7392 122.0
34.7491 94.0
34.7589 106.0
34.7688 112.0
34.7786 111.0
34.7884 119.0
34.7983 128.0
34.8081 122.0
34.818 134.0
34.8278 124.0
34.8377 133.0
34.8475 117.0
34.8574 128.0
34.8672 123.0
34.8771 120.0
34.8869 119.0
34.8968 108.0
34.9066 121.0
34.9165 118.0
34.9263 133.0
34.9362 143.0
34.946 107.0
34.9559 104.0
34.9657 113.0
34.9756 137.0
34.9854 122.0
34.9953 100.0
35.0051 126.0
35.0149 125.0
35.0248 101.0
35.0346 147.0
35.0445 125.0
35.0543 117.0
35.0642 129.0
35.074 133.0
35.0839 134.0
35.0937 123.0
35.1036 123.0
35.1134 135.0
35.1233 134.0
35.1331 145.0
35.143 132.0
35.1528 129.0
35.1627 123.0
35.1725 136.0
35.1824 119.0
35.1922 123.0
35.2021 127.0
35.2119 148.0
35.2217 123.0
35.2316 140.0
35.2414 132.0
35.2513 156.0
35.2611 121.0
35.271 130.0
35.2808 138.0
35.2907 152.0
35.3005 143.0
35.3104 149.0
35.3202 140.0
35.3301 139.0
35.3399 162.0
35.3498 143.0
35.3596 143.0
35.3695 148.0
35.3793 158.0
35.3892 148.0
35.399 159.0
35.4089 148.0
35.4187 174.0
35.4286 179.0
35.4384 165.0
35.4482 147.0
35.4581 186.0
35.4679 181.0
35.4778 191.0
35.4876 174.0
35.4975 170.0
35.5073 187.0
35.5172 187.0
35.527 190.0
35.5369 165.0
35.5467 197.0
35.5566 193.0
35.5664 183.0
35.5763 213.0
35.5861 229.0
35.596 221.0
35.6058 220.0
35.6157 238.0
35.6255 202.0
35.6354 237.0
35.6452 214.0
35.655 240.0
35.6649 264.0
35.6747 233.0
35.6846 268.0
35.6944 289.0
35.7043 268.0
35.7141 278.0
35.724 283.0
35.7338 302.0
35.7437 320.0
35.7535 350.0
35.7634 337.0
35.7732 413.0
35.7831 377.0
35.7929 460.0
35.8028 452.0
35.8126 513.0
35.8225 526.0
35.8323 537.0
35.8422 538.0
35.852 609.0
35.8619 658.0
35.8717 629.0
35.8815 704.0
35.8914 686.0
35.9012 810.0
35.9111 861.0
35.9209 999.0
35.9308 1147.0
35.9406 1312.0
35.9505 1498.0
35.9603 1774.0
35.9702 2203.0
35.98 2502.0
35.9899 2829.0
35.9997 3238.0
36.0096 3549.0
36.0194 3990.0
36.0293 4665.0
36.0391 5040.0
36.049 5692.0
36.0588 5846.0
36.0687 6444.0
36.0785 6763.0
36.0883 7076.0
36.0982 7328.0
36.108 7348.0
36.1179 7586.0
36.1277 7654.0
36.1376 7519.0
36.1474 7373.0
36.1573 7152.0
36.1671 6977.0
36.177 6703.0
36.1868 6226.0
36.1967 5976.0
36.2065 5521.0
36.2164 4975.0
36.2262 4545.0
36.2361 4167.0
36.2459 3715.0
36.2558 3418.0
36.2656 3011.0
36.2755 2639.0
36.2853 2398.0
36.2951 2026.0
36.305 1927.0
36.3148 1633.0
36.3247 1469.0
36.3345 1224.0
36.3444 1185.0
36.3542 1060.0
36.3641 996.0
36.3739 875.0
36.3838 806.0
36.3936 801.0
36.4035 721.0
36.4133 657.0
36.4232 642.0
36.433 558.0
36.4429 560.0
36.4527 558.0
36.4626 566.0
36.4724 475.0
36.4823 488.0
36.4921 462.0
36.502 460.0
36.5118 516.0
36.5216 468.0
36.5315 449.0
36.5413 418.0
36.5512 444.0
36.561 394.0
36.5709 398.0
36.5807 359.0
36.5906 402.0
36.6004 398.0
36.6103 373.0
36.6201 405.0
36.63 370.0
36.6398 388.0
36.6497 378.0
36.6595 388.0
36.6694 369.0
36.6792 383.0
36.6891 390.0
36.6989 376.0
36.7088 332.0
36.7186 370.0
36.7284 357.0
36.7383 390.0
36.7481 385.0
36.758 398.0
36.7678 386.0
36.7777 426.0
36.7875 370.0
36.7974 371.0
36.8072 403.0
36.8171 351.0
36.8269 392.0
36.8368 412.0
36.8466 417.0
36.8565 397.0
36.8663 459.0
36.8762 426.0
36.886 402.0
36.8959 404.0
36.9057 407.0
36.9156 429.0
36.9254 427.0
36.9353 433.0
36.9451 442.0
36.9549 443.0
36.9648 457.0
36.9746 417.0
36.9845 459.0
36.9943 439.0
37.0042 442.0
37.014 456.0
37.0239 442.0
37.0337 487.0
37.0436 510.0
37.0534 497.0
37.0633 475.0
37.0731 494.0
37.083 511.0
37.0928 528.0
37.1027 513.0
37.1125 514.0
37.1224 532.0
37.1322 522.0
37.1421 557.0
37.1519 566.0
37.1617 565.0
37.1716 608.0
37.1814 580.0
37.1913 609.0
37.2011 641.0
37.211 665.0
37.2208 618.0
37.2307 642.0
37.2405 663.0
37.2504 739.0
37.2602 773.0
37.2701 791.0
37.2799 772.0
37.2898 756.0
37.2996 795.0
37.3095 821.0
37.3193 823.0
37.3292 889.0
37.339 975.0
37.3489 975.0
37.3587 1025.0
37.3686 1091.0
37.3784 1130.0
37.3882 1127.0
37.3981 1212.0
37.4079 1330.0
37.4178 1344.0
37.4276 1513.0
37.4375 1667.0
37.4473 2031.0
37.4572 2430.0
37.467 2646.0
37.4769 3176.0
37.4867 3521.0
37.4966 3737.0
37.5064 4160.0
37.5163 4050.0
37.5261 3925.0
37.536 4024.0
37.5458 4220.0
37.5557 4557.0
37.5655 5132.0
37.5754 6090.0
37.5852 7529.0
37.595 9908.0
37.6049 14148.0
37.6147 21965.0
37.6246 43244.0
37.6344 117334.0
37.6443 229942.0
37.6541 279924.0
37.664 296344.0
37.6738 290591.0
37.6837 244911.0
37.6935 124140.0
37.7034 55020.0
37.7132 35554.0
37.7231 40532.0
37.7329 72005.0
37.7428 119383.0
37.7526 144545.0
37.7625 151487.0
37.7723 145842.0
37.7822 119467.0
37.792 68745.0
37.8018 31165.0
37.8117 16178.0
37.8215 10218.0
37.8314 7520.0
37.8412 6017.0
37.8511 4908.0
37.8609 4226.0
37.8708 3669.0
37.8806 3369.0
37.8905 2987.0
37.9003 2642.0
37.9102 2329.0
37.92 2296.0
37.9299 2093.0
37.9397 1884.0
37.9496 1725.0
37.9594 1736.0
37.9693 1504.0
37.9791 1544.0
37.989 1422.0
37.9988 1418.0
38.0087 1320.0
38.0185 1262.0
38.0283 1153.0
38.0382 1166.0
38.048 1133.0
38.0579 1079.0
38.0677 1064.0
38.0776 1020.0
38.0874 942.0
38.0973 903.0
38.1071 969.0
38.117 916.0
38.1268 901.0
38.1367 839.0
38.1465 873.0
38.1564 818.0
38.1662 838.0
38.1761 762.0
38.1859 751.0
38.1958 711.0
38.2056 696.0
38.2155 693.0
38.2253 618.0
38.2351 665.0
38.245 606.0
38.2548 572.0
38.2647 576.0
38.2745 589.0
38.2844 561.0
38.2942 553.0
38.3041 528.0
38.3139 502.0
38.3238 494.0
38.3336 485.0
38.3435 448.0
38.3533 417.0
38.3632 432.0
38.373 438.0
38.3829 419.0
38.3927 388.0
38.4026 370.0
38.4124 401.0
38.4223 394.0
38.4321 401.0
38.442 378.0
38.4518 364.0
38.4616 382.0
38.4715 347.0
38.4813 328.0
38.4912 345.0
38.501 318.0
38.5109 306.0
38.5207 323.0
38.5306 302.0
38.5404 283.0
38.5503 283.0
38.5601 289.0
38.57 262.0
38.5798 219.0
38.5897 272.0
38.5995 215.0
38.6094 225.0
38.6192 211.0
38.6291 196.0
38.6389 215.0
38.6488 200.0
38.6586 211.0
38.6684 197.0
38.6783 187.0
38.6881 204.0
38.698 177.0
38.7078 194.0
38.7177 188.0
38.7275 160.0
38.7374 182.0
38.7472 171.0
38.7571 188.0
38.7669 149.0
38.7768 166.0
38.7866 182.0
38.7965 164.0
38.8063 143.0
38.8162 166.0
38.826 162.0
38.8359 134.0
38.8457 148.0
38.8556 147.0
38.8654 140.0
38.8753 152.0
38.8851 140.0
38.8949 151.0
38.9048 149.0
38.9146 134.0
38.9245 142.0
38.9343 131.0
38.9442 138.0
38.954 138.0
38.9639 136.0
38.9737 155.0
38.9836 138.0
38.9934 134.0
39.0033 132.0
39.0131 136.0
39.023 123.0
39.0328 110.0
39.0427 114.0
39.0525 134.0
39.0624 144.0
39.0722 139.0
39.0821 145.0
39.0919 125.0
39.1017 127.0
39.1116 113.0
39.1214 108.0
39.1313 117.0
39.1411 113.0
39.151 139.0
39.1608 117.0
39.1707 130.0
39.1805 122.0
39.1904 128.0
39.2002 132.0
39.2101 127.0
39.2199 125.0
39.2298 112.0
39.2396 131.0
39.2495 117.0
39.2593 110.0
39.2692 107.0
39.279 113.0
39.2889 120.0
39.2987 119.0
39.3085 125.0
39.3184 118.0
39.3282 125.0
39.3381 109.0
39.3479 113.0
39.3578 114.0
39.3676 116.0
39.3775 128.0
39.3873 108.0
39.3972 115.0
39.407 110.0
39.4169 131.0
39.4267 99.0
39.4366 136.0
39.4464 108.0
39.4563 100.0
39.4661 104.0
39.476 116.0
39.4858 117.0
39.4957 102.0
39.5055 122.0
39.5154 112.0
39.5252 97.0
39.535 122.0
39.5449 105.0
39.5547 122.0
39.5646 121.0
39.5744 108.0
39.5843 121.0
39.5941 116.0
39.604 108.0
39.6138 108.0
39.6237 101.0
39.6335 120.0
39.6434 116.0
39.6532 114.0
39.6631 107.0
39.6729 110.0
39.6828 94.0
39.6926 120.0
39.7025 101.0
39.7123 104.0
39.7222 115.0
39.732 118.0
39.7418 107.0
39.7517 99.0
39.7615 114.0
39.7714 113.0
39.7812 105.0
39.7911 110.0
39.8009 94.0
39.8108 108.0
39.8206 115.0
39.8305 110.0
39.8403 120.0
39.8502 93.0
39.86 114.0
39.8699 114.0
39.8797 95.0
39.8896 99.0
39.8994 110.0
39.9093 104.0
39.9191 93.0
39.929 93.0
39.9388 101.0
39.9487 105.0
39.9585 97.0
39.9683 110.0
39.9782 106.0
39.988 89.0
39.9979 117.0