File: data/W6853m/XRD_Omega/W6853m_Cr2O3_scan_omega_2deg_step_0.002deg0_1.xy
31.62040 584.0
31.62240 600.0
31.62440 597.0
31.62640 634.0
31.62840 588.0
31.63040 580.0
31.63240 588.0
31.63440 593.0
31.63640 597.0
31.63840 580.0
31.64040 603.0
31.64240 664.0
31.64440 588.0
31.64640 626.0
31.64840 650.0
31.65040 640.0
31.65240 637.0
31.65440 626.0
31.65640 636.0
31.65840 655.0
31.66040 626.0
31.66240 659.0
31.66440 613.0
31.66640 644.0
31.66840 695.0
31.67040 672.0
31.67240 654.0
31.67440 688.0
31.67640 643.0
31.67840 681.0
31.68040 699.0
31.68240 705.0
31.68440 726.0
31.68640 700.0
31.68840 696.0
31.69040 701.0
31.69240 696.0
31.69440 680.0
31.69640 691.0
31.69840 708.0
31.70040 716.0
31.70240 698.0
31.70440 756.0
31.70640 762.0
31.70840 704.0
31.71040 753.0
31.71240 718.0
31.71440 704.0
31.71640 776.0
31.71840 755.0
31.72040 739.0
31.72240 737.0
31.72440 773.0
31.72640 725.0
31.72840 796.0
31.73040 732.0
31.73240 796.0
31.73440 792.0
31.73640 779.0
31.73840 739.0
31.74040 818.0
31.74240 745.0
31.74440 812.0
31.74640 781.0
31.74840 825.0
31.75040 798.0
31.75240 854.0
31.75440 828.0
31.75640 735.0
31.75840 832.0
31.76040 842.0
31.76240 795.0
31.76440 810.0
31.76640 799.0
31.76840 823.0
31.77040 820.0
31.77240 818.0
31.77440 898.0
31.77640 857.0
31.77840 874.0
31.78040 891.0
31.78240 861.0
31.78440 858.0
31.78640 895.0
31.78840 866.0
31.79040 900.0
31.79240 906.0
31.79440 905.0
31.79640 921.0
31.79840 935.0
31.80040 883.0
31.80240 835.0
31.80440 862.0
31.80640 905.0
31.80840 891.0
31.81040 931.0
31.81240 924.0
31.81440 919.0
31.81640 951.0
31.81840 988.0
31.82040 903.0
31.82240 996.0
31.82440 947.0
31.82640 945.0
31.82840 945.0
31.83040 934.0
31.83240 925.0
31.83440 953.0
31.83640 1018.0
31.83840 973.0
31.84040 997.0
31.84240 1010.0
31.84440 959.0
31.84640 1017.0
31.84840 1000.0
31.85040 980.0
31.85240 1058.0
31.85440 1028.0
31.85640 999.0
31.85840 975.0
31.86040 1003.0
31.86240 1036.0
31.86440 1009.0
31.86640 1052.0
31.86840 1056.0
31.87040 1059.0
31.87240 1011.0
31.87440 1045.0
31.87640 1094.0
31.87840 1093.0
31.88040 1055.0
31.88240 1067.0
31.88440 1123.0
31.88640 1114.0
31.88840 1087.0
31.89040 1081.0
31.89240 1069.0
31.89440 1200.0
31.89640 1107.0
31.89840 1147.0
31.90040 1097.0
31.90240 1113.0
31.90440 1162.0
31.90640 1144.0
31.90840 1174.0
31.91040 1124.0
31.91240 1176.0
31.91440 1198.0
31.91640 1072.0
31.91840 1147.0
31.92040 1207.0
31.92240 1181.0
31.92440 1194.0
31.92640 1163.0
31.92840 1174.0
31.93040 1103.0
31.93240 1209.0
31.93440 1190.0
31.93640 1218.0
31.93840 1258.0
31.94040 1180.0
31.94240 1220.0
31.94440 1227.0
31.94640 1164.0
31.94840 1321.0
31.95040 1293.0
31.95240 1250.0
31.95440 1265.0
31.95640 1235.0
31.95840 1311.0
31.96040 1264.0
31.96240 1275.0
31.96440 1300.0
31.96640 1239.0
31.96840 1212.0
31.97040 1314.0
31.97240 1363.0
31.97440 1392.0
31.97640 1373.0
31.97840 1338.0
31.98040 1345.0
31.98240 1369.0
31.98440 1343.0
31.98640 1306.0
31.98840 1369.0
31.99040 1387.0
31.99240 1374.0
31.99440 1381.0
31.99640 1362.0
31.99840 1398.0
32.00040 1352.0
32.00240 1438.0
32.00440 1392.0
32.00640 1394.0
32.00840 1384.0
32.01040 1426.0
32.01240 1476.0
32.01440 1436.0
32.01640 1464.0
32.01840 1419.0
32.02040 1545.0
32.02240 1403.0
32.02440 1456.0
32.02640 1473.0
32.02840 1543.0
32.03040 1460.0
32.03240 1521.0
32.03440 1501.0
32.03640 1633.0
32.03840 1516.0
32.04040 1499.0
32.04240 1508.0
32.04440 1592.0
32.04640 1600.0
32.04840 1547.0
32.05040 1534.0
32.05240 1547.0
32.05440 1577.0
32.05640 1564.0
32.05840 1591.0
32.06040 1592.0
32.06240 1612.0
32.06440 1608.0
32.06640 1644.0
32.06840 1617.0
32.07040 1687.0
32.07240 1677.0
32.07440 1702.0
32.07640 1692.0
32.07840 1672.0
32.08040 1732.0
32.08240 1615.0
32.08440 1638.0
32.08640 1661.0
32.08840 1622.0
32.09040 1689.0
32.09240 1641.0
32.09440 1687.0
32.09640 1685.0
32.09840 1726.0
32.10040 1713.0
32.10240 1725.0
32.10440 1814.0
32.10640 1798.0
32.10840 1931.0
32.11040 1746.0
32.11240 1830.0
32.11440 1789.0
32.11640 1850.0
32.11840 1779.0
32.12040 1833.0
32.12240 1868.0
32.12440 1913.0
32.12640 1835.0
32.12840 1833.0
32.13040 1868.0
32.13240 1884.0
32.13440 1874.0
32.13640 1885.0
32.13840 1882.0
32.14040 1904.0
32.14240 1937.0
32.14440 1852.0
32.14640 1935.0
32.14840 1922.0
32.15040 1926.0
32.15240 1895.0
32.15440 1965.0
32.15640 1857.0
32.15840 1897.0
32.16040 1907.0
32.16240 1945.0
32.16440 2018.0
32.16640 1936.0
32.16840 1936.0
32.17040 1932.0
32.17240 2015.0
32.17440 2055.0
32.17640 2095.0
32.17840 1945.0
32.18040 2037.0
32.18240 2060.0
32.18440 2016.0
32.18640 2034.0
32.18840 2089.0
32.19040 2086.0
32.19240 2142.0
32.19440 2100.0
32.19640 2074.0
32.19840 2124.0
32.20040 2178.0
32.20240 2084.0
32.20440 2180.0
32.20640 2135.0
32.20840 2129.0
32.21040 2170.0
32.21240 2185.0
32.21440 2136.0
32.21640 2234.0
32.21840 2233.0
32.22040 2242.0
32.22240 2197.0
32.22440 2187.0
32.22640 2177.0
32.22840 2281.0
32.23040 2296.0
32.23240 2197.0
32.23440 2303.0
32.23640 2243.0
32.23840 2252.0
32.24040 2374.0
32.24240 2263.0
32.24440 2367.0
32.24640 2332.0
32.24840 2271.0
32.25040 2304.0
32.25240 2299.0
32.25440 2267.0
32.25640 2362.0
32.25840 2338.0
32.26040 2283.0
32.26240 2387.0
32.26440 2379.0
32.26640 2385.0
32.26840 2428.0
32.27040 2427.0
32.27240 2365.0
32.27440 2422.0
32.27640 2376.0
32.27840 2425.0
32.28040 2386.0
32.28240 2391.0
32.28440 2434.0
32.28640 2444.0
32.28840 2454.0
32.29040 2516.0
32.29240 2466.0
32.29440 2541.0
32.29640 2501.0
32.29840 2479.0
32.30040 2631.0
32.30240 2545.0
32.30440 2621.0
32.30640 2499.0
32.30840 2492.0
32.31040 2561.0
32.31240 2535.0
32.31440 2607.0
32.31640 2566.0
32.31840 2535.0
32.32040 2675.0
32.32240 2724.0
32.32440 2703.0
32.32640 2526.0
32.32840 2669.0
32.33040 2667.0
32.33240 2634.0
32.33440 2673.0
32.33640 2754.0
32.33840 2715.0
32.34040 2753.0
32.34240 2808.0
32.34440 2790.0
32.34640 2779.0
32.34840 2682.0
32.35040 2729.0
32.35240 2770.0
32.35440 2785.0
32.35640 2790.0
32.35840 2731.0
32.36040 2809.0
32.36240 2867.0
32.36440 2837.0
32.36640 2836.0
32.36840 2863.0
32.37040 2832.0
32.37240 2891.0
32.37440 2809.0
32.37640 2835.0
32.37840 2832.0
32.38040 2886.0
32.38240 2826.0
32.38440 2848.0
32.38640 2836.0
32.38840 2801.0
32.39040 2899.0
32.39240 2899.0
32.39440 2868.0
32.39640 2973.0
32.39840 3031.0
32.40040 2996.0
32.40240 2896.0
32.40440 2918.0
32.40640 2999.0
32.40840 2959.0
32.41040 3008.0
32.41240 2951.0
32.41440 3017.0
32.41640 3056.0
32.41840 3034.0
32.42040 3005.0
32.42240 3106.0
32.42440 3084.0
32.42640 3014.0
32.42840 3019.0
32.43040 3097.0
32.43240 3156.0
32.43440 3114.0
32.43640 3007.0
32.43840 2981.0
32.44040 3077.0
32.44240 2985.0
32.44440 3142.0
32.44640 3125.0
32.44840 3061.0
32.45040 3131.0
32.45240 3140.0
32.45440 3199.0
32.45640 3103.0
32.45840 3177.0
32.46040 3020.0
32.46240 3077.0
32.46440 3078.0
32.46640 3104.0
32.46840 3169.0
32.47040 3203.0
32.47240 3179.0
32.47440 3183.0
32.47640 3208.0
32.47840 3228.0
32.48040 3217.0
32.48240 3128.0
32.48440 3116.0
32.48640 3355.0
32.48840 3281.0
32.49040 3274.0
32.49240 3238.0
32.49440 3275.0
32.49640 3249.0
32.49840 3197.0
32.50040 3255.0
32.50240 3271.0
32.50440 3259.0
32.50640 3333.0
32.50840 3255.0
32.51040 3261.0
32.51240 3374.0
32.51440 3224.0
32.51640 3332.0
32.51840 3238.0
32.52040 3256.0
32.52240 3301.0
32.52440 3270.0
32.52640 3218.0
32.52840 3246.0
32.53040 3346.0
32.53240 3314.0
32.53440 3303.0
32.53640 3276.0
32.53840 3350.0
32.54040 3349.0
32.54240 3313.0
32.54440 3309.0
32.54640 3310.0
32.54840 3255.0
32.55040 3272.0
32.55240 3300.0
32.55440 3370.0
32.55640 3249.0
32.55840 3272.0
32.56040 3329.0
32.56240 3367.0
32.56440 3330.0
32.56640 3366.0
32.56840 3354.0
32.57040 3293.0
32.57240 3342.0
32.57440 3275.0
32.57640 3237.0
32.57840 3391.0
32.58040 3317.0
32.58240 3453.0
32.58440 3339.0
32.58640 3319.0
32.58840 3304.0
32.59040 3194.0
32.59240 3361.0
32.59440 3349.0
32.59640 3399.0
32.59840 3443.0
32.60040 3363.0
32.60240 3398.0
32.60440 3379.0
32.60640 3468.0
32.60840 3363.0
32.61040 3327.0
32.61240 3252.0
32.61440 3373.0
32.61640 3470.0
32.61840 3264.0
32.62040 3386.0
32.62240 3316.0
32.62440 3384.0
32.62640 3386.0
32.62840 3397.0
32.63040 3418.0
32.63240 3484.0
32.63440 3372.0
32.63640 3365.0
32.63840 3401.0
32.64040 3352.0
32.64240 3412.0
32.64440 3284.0
32.64640 3484.0
32.64840 3401.0
32.65040 3327.0
32.65240 3308.0
32.65440 3475.0
32.65640 3293.0
32.65840 3270.0
32.66040 3349.0
32.66240 3448.0
32.66440 3231.0
32.66640 3421.0
32.66840 3346.0
32.67040 3283.0
32.67240 3385.0
32.67440 3372.0
32.67640 3299.0
32.67840 3265.0
32.68040 3298.0
32.68240 3360.0
32.68440 3316.0
32.68640 3269.0
32.68840 3264.0
32.69040 3406.0
32.69240 3295.0
32.69440 3370.0
32.69640 3194.0
32.69840 3266.0
32.70040 3283.0
32.70240 3361.0
32.70440 3351.0
32.70640 3250.0
32.70840 3278.0
32.71040 3206.0
32.71240 3289.0
32.71440 3241.0
32.71640 3162.0
32.71840 3258.0
32.72040 3178.0
32.72240 3230.0
32.72440 3196.0
32.72640 3188.0
32.72840 3174.0
32.73040 3268.0
32.73240 3256.0
32.73440 3184.0
32.73640 3216.0
32.73840 3071.0
32.74040 3251.0
32.74240 3163.0
32.74440 3111.0
32.74640 3074.0
32.74840 3265.0
32.75040 3148.0
32.75240 3230.0
32.75440 3162.0
32.75640 3069.0
32.75840 3065.0
32.76040 3093.0
32.76240 3096.0
32.76440 3170.0
32.76640 3018.0
32.76840 3086.0
32.77040 3007.0
32.77240 3076.0
32.77440 3166.0
32.77640 3094.0
32.77840 3005.0
32.78040 3071.0
32.78240 3048.0
32.78440 3034.0
32.78640 2976.0
32.78840 3051.0
32.79040 3076.0
32.79240 2972.0
32.79440 2914.0
32.79640 3020.0
32.79840 3001.0
32.80040 2908.0
32.80240 2977.0
32.80440 2951.0
32.80640 2877.0
32.80840 3008.0
32.81040 2965.0
32.81240 2866.0
32.81440 2934.0
32.81640 3007.0
32.81840 2831.0
32.82040 2936.0
32.82240 2894.0
32.82440 2940.0
32.82640 2901.0
32.82840 2815.0
32.83040 2839.0
32.83240 2897.0
32.83440 3017.0
32.83640 2922.0
32.83840 2859.0
32.84040 2870.0
32.84240 2769.0
32.84440 2790.0
32.84640 2890.0
32.84840 2963.0
32.85040 2911.0
32.85240 2808.0
32.85440 2841.0
32.85640 2851.0
32.85840 2920.0
32.86040 2998.0
32.86240 2840.0
32.86440 2797.0
32.86640 2757.0
32.86840 2798.0
32.87040 2818.0
32.87240 2696.0
32.87440 2753.0
32.87640 2720.0
32.87840 2802.0
32.88040 2774.0
32.88240 2828.0
32.88440 2848.0
32.88640 2783.0
32.88840 2862.0
32.89040 2755.0
32.89240 2729.0
32.89440 2822.0
32.89640 2862.0
32.89840 2954.0
32.90040 2883.0
32.90240 2916.0
32.90440 2866.0
32.90640 2792.0
32.90840 2892.0
32.91040 2958.0
32.91240 3027.0
32.91440 2938.0
32.91640 3163.0
32.91840 3267.0
32.92040 3195.0
32.92240 3318.0
32.92440 3367.0
32.92640 3454.0
32.92840 3477.0
32.93040 3613.0
32.93240 3613.0
32.93440 3687.0
32.93640 3769.0
32.93840 3715.0
32.94040 3691.0
32.94240 3774.0
32.94440 3695.0
32.94640 3765.0
32.94840 3535.0
32.95040 3646.0
32.95240 3658.0
32.95440 3563.0
32.95640 3343.0
32.95840 3288.0
32.96040 3314.0
32.96240 3283.0
32.96440 3262.0
32.96640 3081.0
32.96840 2967.0
32.97040 2968.0
32.97240 2945.0
32.97440 2947.0
32.97640 2844.0
32.97840 2892.0
32.98040 2772.0
32.98240 2751.0
32.98440 2862.0
32.98640 2734.0
32.98840 2820.0
32.99040 2773.0
32.99240 2650.0
32.99440 2744.0
32.99640 2682.0
32.99840 2735.0
33.00040 2711.0
33.00240 2660.0
33.00440 2711.0
33.00640 2682.0
33.00840 2701.0
33.01040 2660.0
33.01240 2669.0
33.01440 2668.0
33.01640 2539.0
33.01840 2581.0
33.02040 2559.0
33.02240 2533.0
33.02440 2532.0
33.02640 2428.0
33.02840 2484.0
33.03040 2431.0
33.03240 2349.0
33.03440 2405.0
33.03640 2430.0
33.03840 2332.0
33.04040 2357.0
33.04240 2327.0
33.04440 2184.0
33.04640 2106.0
33.04840 2209.0
33.05040 2323.0
33.05240 2209.0
33.05440 2181.0
33.05640 2143.0
33.05840 2157.0
33.06040 2206.0
33.06240 2144.0
33.06440 2181.0
33.06640 2153.0
33.06840 2159.0
33.07040 2091.0
33.07240 2144.0
33.07440 2155.0
33.07640 2131.0
33.07840 2121.0
33.08040 2084.0
33.08240 2100.0
33.08440 2029.0
33.08640 2073.0
33.08840 2005.0
33.09040 1946.0
33.09240 1997.0
33.09440 2014.0
33.09640 1908.0
33.09840 1941.0
33.10040 1912.0
33.10240 1921.0
33.10440 1822.0
33.10640 1870.0
33.10840 1860.0
33.11040 1801.0
33.11240 1781.0
33.11440 1786.0
33.11640 1769.0
33.11840 1789.0
33.12040 1746.0
33.12240 1719.0
33.12440 1730.0
33.12640 1715.0
33.12840 1711.0
33.13040 1630.0
33.13240 1682.0
33.13440 1659.0
33.13640 1641.0
33.13840 1602.0
33.14040 1629.0
33.14240 1576.0
33.14440 1615.0
33.14640 1586.0
33.14840 1557.0
33.15040 1639.0
33.15240 1627.0
33.15440 1619.0
33.15640 1576.0
33.15840 1597.0
33.16040 1555.0
33.16240 1559.0
33.16440 1617.0
33.16640 1601.0
33.16840 1580.0
33.17040 1541.0
33.17240 1613.0
33.17440 1543.0
33.17640 1544.0
33.17840 1584.0
33.18040 1527.0
33.18240 1590.0
33.18440 1523.0
33.18640 1540.0
33.18840 1594.0
33.19040 1529.0
33.19240 1513.0
33.19440 1548.0
33.19640 1599.0
33.19840 1521.0
33.20040 1559.0
33.20240 1600.0
33.20440 1545.0
33.20640 1562.0
33.20840 1655.0
33.21040 1506.0
33.21240 1577.0
33.21440 1596.0
33.21640 1619.0
33.21840 1606.0
33.22040 1501.0
33.22240 1509.0
33.22440 1537.0
33.22640 1500.0
33.22840 1442.0
33.23040 1432.0
33.23240 1482.0
33.23440 1490.0
33.23640 1464.0
33.23840 1447.0
33.24040 1383.0
33.24240 1347.0
33.24440 1380.0
33.24640 1376.0
33.24840 1301.0
33.25040 1293.0
33.25240 1253.0
33.25440 1251.0
33.25640 1286.0
33.25840 1251.0
33.26040 1251.0
33.26240 1230.0
33.26440 1231.0
33.26640 1248.0
33.26840 1122.0
33.27040 1168.0
33.27240 1209.0
33.27440 1213.0
33.27640 1168.0
33.27840 1137.0
33.28040 1126.0
33.28240 1226.0
33.28440 1131.0
33.28640 1127.0
33.28840 1111.0
33.29040 1120.0
33.29240 1191.0
33.29440 1117.0
33.29640 1133.0
33.29840 1084.0
33.30040 1094.0
33.30240 1076.0
33.30440 1058.0
33.30640 999.0
33.30840 1063.0
33.31040 1040.0
33.31240 1032.0
33.31440 1011.0
33.31640 1061.0
33.31840 1027.0
33.32040 1059.0
33.32240 1003.0
33.32440 1068.0
33.32640 1029.0
33.32840 1063.0
33.33040 1020.0
33.33240 991.0
33.33440 999.0
33.33640 1013.0
33.33840 1021.0
33.34040 965.0
33.34240 974.0
33.34440 963.0
33.34640 974.0
33.34840 978.0
33.35040 969.0
33.35240 990.0
33.35440 894.0
33.35640 897.0
33.35840 879.0
33.36040 890.0
33.36240 922.0
33.36440 850.0
33.36640 933.0
33.36840 910.0
33.37040 878.0
33.37240 873.0
33.37440 915.0
33.37640 957.0
33.37840 840.0
33.38040 861.0
33.38240 917.0
33.38440 845.0
33.38640 830.0
33.38840 886.0
33.39040 821.0
33.39240 824.0
33.39440 865.0
33.39640 841.0
33.39840 874.0
33.40040 922.0
33.40240 780.0
33.40440 851.0
33.40640 874.0
33.40840 816.0
33.41040 831.0
33.41240 870.0
33.41440 844.0
33.41640 772.0
33.41840 805.0
33.42040 859.0
33.42240 775.0
33.42440 810.0
33.42640 779.0
33.42840 771.0
33.43040 789.0
33.43240 782.0
33.43440 786.0
33.43640 755.0
33.43840 757.0
33.44040 791.0
33.44240 764.0
33.44440 769.0
33.44640 743.0
33.44840 754.0
33.45040 743.0
33.45240 724.0
33.45440 700.0
33.45640 731.0
33.45840 743.0
33.46040 686.0
33.46240 735.0
33.46440 739.0
33.46640 717.0
33.46840 709.0
33.47040 736.0
33.47240 743.0
33.47440 709.0
33.47640 746.0
33.47840 689.0
33.48040 740.0
33.48240 698.0
33.48440 700.0
33.48640 655.0
33.48840 708.0
33.49040 656.0
33.49240 669.0
33.49440 700.0
33.49640 692.0
33.49840 713.0
33.50040 597.0
33.50240 701.0
33.50440 708.0
33.50640 667.0
33.50840 687.0
33.51040 623.0
33.51240 661.0
33.51440 649.0
33.51640 627.0
33.51840 652.0
33.52040 617.0
33.52240 586.0
33.52440 607.0
33.52640 684.0
33.52840 664.0
33.53040 680.0
33.53240 664.0
33.53440 624.0
33.53640 628.0
33.53840 617.0
33.54040 651.0
33.54240 582.0
33.54440 615.0
33.54640 640.0
33.54840 649.0
33.55040 575.0
33.55240 600.0
33.55440 628.0
33.55640 577.0
33.55840 627.0
33.56040 557.0
33.56240 605.0
33.56440 602.0
33.56640 648.0
33.56840 599.0
33.57040 581.0
33.57240 540.0
33.57440 553.0
33.57640 549.0
33.57840 587.0
33.58040 580.0
33.58240 548.0
33.58440 529.0
33.58640 545.0
33.58840 545.0
33.59040 545.0
33.59240 544.0
33.59440 556.0
33.59640 574.0
33.59840 536.0
33.60040 552.0
33.60240 536.0
33.60440 625.0