File: data/W6933m/XRD_Omega/film_m_can_omega_4deg_step_0.005deg0.xy
30.00400 66.0
30.00900 79.0
30.01400 72.0
30.01900 68.0
30.02400 77.0
30.02900 68.0
30.03400 92.0
30.03900 79.0
30.04400 73.0
30.04900 71.0
30.05400 83.0
30.05900 68.0
30.06400 69.0
30.06900 70.0
30.07400 71.0
30.07900 70.0
30.08400 56.0
30.08900 69.0
30.09400 69.0
30.09900 84.0
30.10400 91.0
30.10900 91.0
30.11400 74.0
30.11900 84.0
30.12400 61.0
30.12900 69.0
30.13400 77.0
30.13900 79.0
30.14400 64.0
30.14900 65.0
30.15400 90.0
30.15900 59.0
30.16400 86.0
30.16900 71.0
30.17400 65.0
30.17900 82.0
30.18400 89.0
30.18900 77.0
30.19400 74.0
30.19900 80.0
30.20400 60.0
30.20900 67.0
30.21400 69.0
30.21900 84.0
30.22400 87.0
30.22900 63.0
30.23400 72.0
30.23900 78.0
30.24400 80.0
30.24900 72.0
30.25400 79.0
30.25900 82.0
30.26400 55.0
30.26900 89.0
30.27400 64.0
30.27900 87.0
30.28400 80.0
30.28900 74.0
30.29400 70.0
30.29900 92.0
30.30400 88.0
30.30900 88.0
30.31400 83.0
30.31900 91.0
30.32400 89.0
30.32900 68.0
30.33400 70.0
30.33900 72.0
30.34400 74.0
30.34900 63.0
30.35400 76.0
30.35900 63.0
30.36400 96.0
30.36900 81.0
30.37400 68.0
30.37900 61.0
30.38400 104.0
30.38900 74.0
30.39400 91.0
30.39900 83.0
30.40400 63.0
30.40900 64.0
30.41400 71.0
30.41900 81.0
30.42400 71.0
30.42900 68.0
30.43400 66.0
30.43900 81.0
30.44400 77.0
30.44900 99.0
30.45400 95.0
30.45900 81.0
30.46400 89.0
30.46900 80.0
30.47400 69.0
30.47900 64.0
30.48400 77.0
30.48900 72.0
30.49400 90.0
30.49900 74.0
30.50400 74.0
30.50900 73.0
30.51400 68.0
30.51900 84.0
30.52400 74.0
30.52900 82.0
30.53400 94.0
30.53900 94.0
30.54400 78.0
30.54900 74.0
30.55400 81.0
30.55900 81.0
30.56400 71.0
30.56900 88.0
30.57400 83.0
30.57900 73.0
30.58400 68.0
30.58900 76.0
30.59400 75.0
30.59900 91.0
30.60400 84.0
30.60900 77.0
30.61400 106.0
30.61900 78.0
30.62400 81.0
30.62900 95.0
30.63400 84.0
30.63900 82.0
30.64400 83.0
30.64900 100.0
30.65400 92.0
30.65900 76.0
30.66400 87.0
30.66900 84.0
30.67400 102.0
30.67900 101.0
30.68400 97.0
30.68900 94.0
30.69400 77.0
30.69900 85.0
30.70400 70.0
30.70900 69.0
30.71400 99.0
30.71900 91.0
30.72400 87.0
30.72900 102.0
30.73400 88.0
30.73900 86.0
30.74400 96.0
30.74900 97.0
30.75400 77.0
30.75900 88.0
30.76400 84.0
30.76900 101.0
30.77400 97.0
30.77900 99.0
30.78400 82.0
30.78900 107.0
30.79400 91.0
30.79900 106.0
30.80400 91.0
30.80900 103.0
30.81400 92.0
30.81900 102.0
30.82400 98.0
30.82900 97.0
30.83400 109.0
30.83900 105.0
30.84400 117.0
30.84900 105.0
30.85400 92.0
30.85900 100.0
30.86400 115.0
30.86900 107.0
30.87400 94.0
30.87900 102.0
30.88400 105.0
30.88900 101.0
30.89400 110.0
30.89900 118.0
30.90400 98.0
30.90900 101.0
30.91400 113.0
30.91900 116.0
30.92400 111.0
30.92900 103.0
30.93400 115.0
30.93900 109.0
30.94400 117.0
30.94900 119.0
30.95400 116.0
30.95900 109.0
30.96400 119.0
30.96900 97.0
30.97400 120.0
30.97900 125.0
30.98400 125.0
30.98900 126.0
30.99400 141.0
30.99900 137.0
31.00400 140.0
31.00900 132.0
31.01400 145.0
31.01900 132.0
31.02400 164.0
31.02900 143.0
31.03400 121.0
31.03900 149.0
31.04400 120.0
31.04900 143.0
31.05400 159.0
31.05900 125.0
31.06400 161.0
31.06900 131.0
31.07400 155.0
31.07900 109.0
31.08400 159.0
31.08900 145.0
31.09400 164.0
31.09900 151.0
31.10400 153.0
31.10900 151.0
31.11400 187.0
31.11900 151.0
31.12400 165.0
31.12900 173.0
31.13400 167.0
31.13900 181.0
31.14400 165.0
31.14900 174.0
31.15400 182.0
31.15900 188.0
31.16400 190.0
31.16900 190.0
31.17400 171.0
31.17900 187.0
31.18400 194.0
31.18900 192.0
31.19400 202.0
31.19900 214.0
31.20400 218.0
31.20900 213.0
31.21400 205.0
31.21900 237.0
31.22400 243.0
31.22900 249.0
31.23400 237.0
31.23900 263.0
31.24400 252.0
31.24900 240.0
31.25400 249.0
31.25900 270.0
31.26400 249.0
31.26900 302.0
31.27400 245.0
31.27900 282.0
31.28400 288.0
31.28900 251.0
31.29400 305.0
31.29900 329.0
31.30400 338.0
31.30900 293.0
31.31400 338.0
31.31900 323.0
31.32400 323.0
31.32900 328.0
31.33400 368.0
31.33900 372.0
31.34400 376.0
31.34900 382.0
31.35400 410.0
31.35900 436.0
31.36400 425.0
31.36900 409.0
31.37400 429.0
31.37900 412.0
31.38400 444.0
31.38900 466.0
31.39400 426.0
31.39900 478.0
31.40400 465.0
31.40900 512.0
31.41400 504.0
31.41900 571.0
31.42400 541.0
31.42900 655.0
31.43400 609.0
31.43900 633.0
31.44400 587.0
31.44900 638.0
31.45400 653.0
31.45900 705.0
31.46400 703.0
31.46900 734.0
31.47400 724.0
31.47900 773.0
31.48400 761.0
31.48900 811.0
31.49400 826.0
31.49900 800.0
31.50400 890.0
31.50900 901.0
31.51400 923.0
31.51900 935.0
31.52400 1008.0
31.52900 915.0
31.53400 1055.0
31.53900 1048.0
31.54400 1094.0
31.54900 1133.0
31.55400 1159.0
31.55900 1211.0
31.56400 1300.0
31.56900 1322.0
31.57400 1286.0
31.57900 1357.0
31.58400 1391.0
31.58900 1449.0
31.59400 1458.0
31.59900 1458.0
31.60400 1494.0
31.60900 1586.0
31.61400 1585.0
31.61900 1703.0
31.62400 1746.0
31.62900 1726.0
31.63400 1870.0
31.63900 1873.0
31.64400 1853.0
31.64900 1997.0
31.65400 2061.0
31.65900 2113.0
31.66400 2069.0
31.66900 2206.0
31.67400 2325.0
31.67900 2370.0
31.68400 2358.0
31.68900 2428.0
31.69400 2522.0
31.69900 2597.0
31.70400 2564.0
31.70900 2707.0
31.71400 2756.0
31.71900 2916.0
31.72400 2894.0
31.72900 2961.0
31.73400 2951.0
31.73900 3071.0
31.74400 3241.0
31.74900 3238.0
31.75400 3191.0
31.75900 3326.0
31.76400 3363.0
31.76900 3523.0
31.77400 3580.0
31.77900 3595.0
31.78400 3680.0
31.78900 3750.0
31.79400 3788.0
31.79900 3811.0
31.80400 3693.0
31.80900 4048.0
31.81400 4055.0
31.81900 4053.0
31.82400 4089.0
31.82900 4150.0
31.83400 4327.0
31.83900 4248.0
31.84400 4359.0
31.84900 4386.0
31.85400 4466.0
31.85900 4510.0
31.86400 4611.0
31.86900 4558.0
31.87400 4640.0
31.87900 4622.0
31.88400 4603.0
31.88900 4733.0
31.89400 4725.0
31.89900 4938.0
31.90400 4739.0
31.90900 4858.0
31.91400 4834.0
31.91900 4870.0
31.92400 4940.0
31.92900 5025.0
31.93400 5014.0
31.93900 5051.0
31.94400 4936.0
31.94900 5037.0
31.95400 5060.0
31.95900 5117.0
31.96400 5184.0
31.96900 5007.0
31.97400 5124.0
31.97900 4956.0
31.98400 5158.0
31.98900 5054.0
31.99400 5121.0
31.99900 5131.0
32.00400 5166.0
32.00900 5298.0
32.01400 5160.0
32.01900 5112.0
32.02400 5009.0
32.02900 5135.0
32.03400 4991.0
32.03900 5250.0
32.04400 4972.0
32.04900 5038.0
32.05400 4903.0
32.05900 4891.0
32.06400 4913.0
32.06900 4845.0
32.07400 4907.0
32.07900 4837.0
32.08400 4984.0
32.08900 4796.0
32.09400 4743.0
32.09900 4828.0
32.10400 4700.0
32.10900 4659.0
32.11400 4616.0
32.11900 4681.0
32.12400 4620.0
32.12900 4661.0
32.13400 4470.0
32.13900 4383.0
32.14400 4482.0
32.14900 4378.0
32.15400 4332.0
32.15900 4315.0
32.16400 4306.0
32.16900 4262.0
32.17400 4073.0
32.17900 3998.0
32.18400 3994.0
32.18900 3864.0
32.19400 3820.0
32.19900 3999.0
32.20400 3853.0
32.20900 3772.0
32.21400 3598.0
32.21900 3590.0
32.22400 3596.0
32.22900 3520.0
32.23400 3418.0
32.23900 3337.0
32.24400 3415.0
32.24900 3230.0
32.25400 3243.0
32.25900 3119.0
32.26400 3146.0
32.26900 3078.0
32.27400 2998.0
32.27900 3014.0
32.28400 2949.0
32.28900 2959.0
32.29400 2886.0
32.29900 2818.0
32.30400 2862.0
32.30900 2626.0
32.31400 2497.0
32.31900 2662.0
32.32400 2613.0
32.32900 2569.0
32.33400 2471.0
32.33900 2463.0
32.34400 2417.0
32.34900 2296.0
32.35400 2320.0
32.35900 2295.0
32.36400 2204.0
32.36900 2239.0
32.37400 2073.0
32.37900 2109.0
32.38400 2154.0
32.38900 2075.0
32.39400 2048.0
32.39900 1974.0
32.40400 1895.0
32.40900 1987.0
32.41400 1870.0
32.41900 1847.0
32.42400 1820.0
32.42900 1747.0
32.43400 1703.0
32.43900 1741.0
32.44400 1610.0
32.44900 1589.0
32.45400 1538.0
32.45900 1526.0
32.46400 1492.0
32.46900 1467.0
32.47400 1388.0
32.47900 1343.0
32.48400 1345.0
32.48900 1342.0
32.49400 1329.0
32.49900 1245.0
32.50400 1228.0
32.50900 1160.0
32.51400 1154.0
32.51900 1144.0
32.52400 1114.0
32.52900 1068.0
32.53400 974.0
32.53900 954.0
32.54400 956.0
32.54900 858.0
32.55400 866.0
32.55900 930.0
32.56400 865.0
32.56900 861.0
32.57400 890.0
32.57900 852.0
32.58400 784.0
32.58900 738.0
32.59400 787.0
32.59900 755.0
32.60400 719.0
32.60900 680.0
32.61400 631.0
32.61900 716.0
32.62400 648.0
32.62900 649.0
32.63400 639.0
32.63900 595.0
32.64400 576.0
32.64900 588.0
32.65400 578.0
32.65900 557.0
32.66400 603.0
32.66900 544.0
32.67400 490.0
32.67900 552.0
32.68400 519.0
32.68900 512.0
32.69400 517.0
32.69900 465.0
32.70400 450.0
32.70900 450.0
32.71400 470.0
32.71900 458.0
32.72400 423.0
32.72900 370.0
32.73400 435.0
32.73900 424.0
32.74400 378.0
32.74900 351.0
32.75400 380.0
32.75900 387.0
32.76400 373.0
32.76900 326.0
32.77400 362.0
32.77900 338.0
32.78400 355.0
32.78900 308.0
32.79400 313.0
32.79900 307.0
32.80400 305.0
32.80900 324.0
32.81400 316.0
32.81900 288.0
32.82400 265.0
32.82900 313.0
32.83400 288.0
32.83900 247.0
32.84400 266.0
32.84900 270.0
32.85400 259.0
32.85900 231.0
32.86400 278.0
32.86900 226.0
32.87400 231.0
32.87900 253.0
32.88400 229.0
32.88900 218.0
32.89400 216.0
32.89900 238.0
32.90400 203.0
32.90900 206.0
32.91400 261.0
32.91900 218.0
32.92400 232.0
32.92900 188.0
32.93400 184.0
32.93900 194.0
32.94400 201.0
32.94900 190.0
32.95400 193.0
32.95900 190.0
32.96400 184.0
32.96900 192.0
32.97400 140.0
32.97900 171.0
32.98400 152.0
32.98900 173.0
32.99400 181.0
32.99900 165.0
33.00400 167.0
33.00900 157.0
33.01400 161.0
33.01900 159.0
33.02400 156.0
33.02900 149.0
33.03400 157.0
33.03900 142.0
33.04400 144.0
33.04900 171.0
33.05400 132.0
33.05900 135.0
33.06400 139.0
33.06900 151.0
33.07400 137.0
33.07900 157.0
33.08400 154.0
33.08900 113.0
33.09400 105.0
33.09900 126.0
33.10400 124.0
33.10900 141.0
33.11400 119.0
33.11900 140.0
33.12400 134.0
33.12900 140.0
33.13400 122.0
33.13900 110.0
33.14400 136.0
33.14900 111.0
33.15400 116.0
33.15900 104.0
33.16400 110.0
33.16900 100.0
33.17400 115.0
33.17900 125.0
33.18400 125.0
33.18900 112.0
33.19400 121.0
33.19900 119.0
33.20400 102.0
33.20900 103.0
33.21400 119.0
33.21900 107.0
33.22400 120.0
33.22900 90.0
33.23400 107.0
33.23900 102.0
33.24400 97.0
33.24900 112.0
33.25400 96.0
33.25900 124.0
33.26400 99.0
33.26900 119.0
33.27400 103.0
33.27900 109.0
33.28400 99.0
33.28900 100.0
33.29400 101.0
33.29900 101.0
33.30400 111.0
33.30900 89.0
33.31400 104.0
33.31900 101.0
33.32400 89.0
33.32900 93.0
33.33400 102.0
33.33900 90.0
33.34400 86.0
33.34900 85.0
33.35400 102.0
33.35900 104.0
33.36400 95.0
33.36900 94.0
33.37400 119.0
33.37900 104.0
33.38400 85.0
33.38900 94.0
33.39400 98.0
33.39900 100.0
33.40400 69.0
33.40900 89.0
33.41400 76.0
33.41900 85.0
33.42400 89.0
33.42900 83.0
33.43400 84.0
33.43900 85.0
33.44400 78.0
33.44900 90.0
33.45400 93.0
33.45900 113.0
33.46400 101.0
33.46900 90.0
33.47400 93.0
33.47900 101.0
33.48400 75.0
33.48900 77.0
33.49400 83.0
33.49900 89.0
33.50400 85.0
33.50900 86.0
33.51400 73.0
33.51900 81.0
33.52400 67.0
33.52900 70.0
33.53400 91.0
33.53900 74.0
33.54400 79.0
33.54900 96.0
33.55400 87.0
33.55900 74.0
33.56400 71.0
33.56900 62.0
33.57400 80.0
33.57900 87.0
33.58400 76.0
33.58900 80.0
33.59400 74.0
33.59900 79.0
33.60400 73.0
33.60900 87.0
33.61400 79.0
33.61900 65.0
33.62400 63.0
33.62900 77.0
33.63400 76.0
33.63900 85.0
33.64400 77.0
33.64900 81.0
33.65400 60.0
33.65900 84.0
33.66400 63.0
33.66900 93.0
33.67400 68.0
33.67900 82.0
33.68400 88.0
33.68900 69.0
33.69400 88.0
33.69900 87.0
33.70400 81.0
33.70900 78.0
33.71400 72.0
33.71900 71.0
33.72400 66.0
33.72900 59.0
33.73400 59.0
33.73900 65.0
33.74400 85.0
33.74900 55.0
33.75400 78.0
33.75900 66.0
33.76400 52.0
33.76900 95.0
33.77400 73.0
33.77900 82.0
33.78400 96.0
33.78900 75.0
33.79400 79.0
33.79900 78.0
33.80400 59.0
33.80900 68.0
33.81400 69.0
33.81900 72.0
33.82400 71.0
33.82900 88.0
33.83400 68.0
33.83900 77.0
33.84400 92.0
33.84900 84.0
33.85400 81.0
33.85900 79.0
33.86400 69.0
33.86900 68.0
33.87400 77.0
33.87900 68.0
33.88400 63.0
33.88900 74.0
33.89400 81.0
33.89900 69.0
33.90400 62.0
33.90900 65.0
33.91400 66.0
33.91900 69.0
33.92400 68.0
33.92900 84.0
33.93400 65.0
33.93900 82.0
33.94400 53.0
33.94900 63.0
33.95400 70.0
33.95900 66.0
33.96400 67.0