File: data/W6856r/XRD_2ThetaOmega/W6856r_absolute_2th-om_10-130deg_PIXscan_17min_8.xy
10.0035 17.0
10.0872 21.0
10.1709 19.0
10.2546 24.0
10.3383 14.0
10.422 23.0
10.5057 19.0
10.5894 20.0
10.6731 25.0
10.7568 21.0
10.8405 22.0
10.9242 20.0
11.0079 23.0
11.0916 21.0
11.1753 11.0
11.259 17.0
11.3428 25.0
11.4265 21.0
11.5102 16.0
11.5939 17.0
11.6776 14.0
11.7613 25.0
11.845 5.0
11.9287 15.0
12.0124 36.0
12.0961 18.0
12.1798 12.0
12.2635 16.0
12.3472 21.0
12.4309 24.0
12.5146 18.0
12.5983 25.0
12.682 17.0
12.7657 22.0
12.8495 18.0
12.9332 12.0
13.0169 18.0
13.1006 22.0
13.1843 18.0
13.268 18.0
13.3517 19.0
13.4354 21.0
13.5191 25.0
13.6028 16.0
13.6865 17.0
13.7702 16.0
13.8539 20.0
13.9376 17.0
14.0213 12.0
14.105 15.0
14.1887 13.0
14.2724 12.0
14.3562 20.0
14.4399 16.0
14.5236 11.0
14.6073 22.0
14.691 19.0
14.7747 15.0
14.8584 21.0
14.9421 14.0
15.0258 21.0
15.1095 15.0
15.1932 16.0
15.2769 12.0
15.3606 13.0
15.4443 16.0
15.528 21.0
15.6117 23.0
15.6954 16.0
15.7791 18.0
15.8629 14.0
15.9466 12.0
16.0303 13.0
16.114 17.0
16.1977 19.0
16.2814 23.0
16.3651 18.0
16.4488 14.0
16.5325 11.0
16.6162 8.0
16.6999 13.0
16.7836 13.0
16.8673 18.0
16.951 20.0
17.0347 16.0
17.1184 17.0
17.2021 16.0
17.2858 15.0
17.3696 22.0
17.4533 24.0
17.537 17.0
17.6207 20.0
17.7044 22.0
17.7881 19.0
17.8718 12.0
17.9555 17.0
18.0392 11.0
18.1229 20.0
18.2066 20.0
18.2903 19.0
18.374 16.0
18.4577 14.0
18.5414 10.0
18.6251 14.0
18.7088 19.0
18.7925 13.0
18.8763 8.0
18.96 10.0
19.0437 25.0
19.1274 16.0
19.2111 19.0
19.2948 13.0
19.3785 5.0
19.4622 23.0
19.5459 16.0
19.6296 14.0
19.7133 18.0
19.797 14.0
19.8807 16.0
19.9644 15.0
20.0481 10.0
20.1318 14.0
20.2155 17.0
20.2992 16.0
20.383 14.0
20.4667 13.0
20.5504 9.0
20.6341 9.0
20.7178 16.0
20.8015 15.0
20.8852 13.0
20.9689 8.0
21.0526 12.0
21.1363 19.0
21.22 14.0
21.3037 15.0
21.3874 16.0
21.4711 14.0
21.5548 18.0
21.6385 16.0
21.7222 16.0
21.8059 16.0
21.8897 10.0
21.9734 16.0
22.0571 13.0
22.1408 9.0
22.2245 14.0
22.3082 14.0
22.3919 19.0
22.4756 17.0
22.5593 8.0
22.643 22.0
22.7267 15.0
22.8104 11.0
22.8941 12.0
22.9778 48.0
23.0615 31.0
23.1452 23.0
23.2289 22.0
23.3126 20.0
23.3964 25.0
23.4801 17.0
23.5638 22.0
23.6475 31.0
23.7312 32.0
23.8149 43.0
23.8986 120.0
23.9823 198.0
24.066 365.0
24.1497 438.0
24.2334 270.0
24.3171 164.0
24.4008 297.0
24.4845 139.0
24.5682 85.0
24.6519 71.0
24.7356 51.0
24.8193 45.0
24.9031 58.0
24.9868 47.0
25.0705 62.0
25.1542 73.0
25.2379 107.0
25.3216 173.0
25.4053 722.0
25.489 32686.0
25.5727 20751.0
25.6564 646.0
25.7401 305.0
25.8238 196.0
25.9075 162.0
25.9912 171.0
26.0749 100.0
26.1586 101.0
26.2423 66.0
26.326 45.0
26.4098 49.0
26.4935 28.0
26.5772 34.0
26.6609 33.0
26.7446 21.0
26.8283 21.0
26.912 8.0
26.9957 24.0
27.0794 15.0
27.1631 22.0
27.2468 13.0
27.3305 20.0
27.4142 21.0
27.4979 22.0
27.5816 17.0
27.6653 14.0
27.749 24.0
27.8327 12.0
27.9165 17.0
28.0002 16.0
28.0839 13.0
28.1676 15.0
28.2513 15.0
28.335 13.0
28.4187 11.0
28.5024 14.0
28.5861 13.0
28.6698 5.0
28.7535 11.0
28.8372 10.0
28.9209 9.0
29.0046 7.0
29.0883 14.0
29.172 10.0
29.2557 10.0
29.3394 13.0
29.4232 12.0
29.5069 15.0
29.5906 11.0
29.6743 10.0
29.758 8.0
29.8417 21.0
29.9254 16.0
30.0091 15.0
30.0928 14.0
30.1765 6.0
30.2602 11.0
30.3439 12.0
30.4276 14.0
30.5113 8.0
30.595 11.0
30.6787 8.0
30.7624 12.0
30.8461 9.0
30.9298 8.0
31.0136 11.0
31.0973 13.0
31.181 11.0
31.2647 13.0
31.3484 12.0
31.4321 12.0
31.5158 14.0
31.5995 9.0
31.6832 9.0
31.7669 5.0
31.8506 11.0
31.9343 7.0
32.018 11.0
32.1017 16.0
32.1854 14.0
32.2691 15.0
32.3528 10.0
32.4365 4.0
32.5203 13.0
32.604 11.0
32.6877 13.0
32.7714 15.0
32.8551 12.0
32.9388 14.0
33.0225 11.0
33.1062 14.0
33.1899 13.0
33.2736 11.0
33.3573 9.0
33.441 12.0
33.5247 13.0
33.6084 10.0
33.6921 10.0
33.7758 14.0
33.8595 12.0
33.9432 8.0
34.027 13.0
34.1107 4.0
34.1944 12.0
34.2781 12.0
34.3618 10.0
34.4455 18.0
34.5292 9.0
34.6129 16.0
34.6966 12.0
34.7803 12.0
34.864 6.0
34.9477 5.0
35.0314 13.0
35.1151 7.0
35.1988 10.0
35.2825 9.0
35.3662 5.0
35.4499 9.0
35.5337 14.0
35.6174 19.0
35.7011 6.0
35.7848 17.0
35.8685 12.0
35.9522 14.0
36.0359 15.0
36.1196 9.0
36.2033 13.0
36.287 10.0
36.3707 10.0
36.4544 9.0
36.5381 10.0
36.6218 9.0
36.7055 11.0
36.7892 14.0
36.8729 12.0
36.9566 11.0
37.0404 10.0
37.1241 7.0
37.2078 8.0
37.2915 18.0
37.3752 13.0
37.4589 4.0
37.5426 6.0
37.6263 10.0
37.71 16.0
37.7937 11.0
37.8774 6.0
37.9611 18.0
38.0448 14.0
38.1285 9.0
38.2122 6.0
38.2959 11.0
38.3796 16.0
38.4633 7.0
38.5471 9.0
38.6308 6.0
38.7145 5.0
38.7982 15.0
38.8819 14.0
38.9656 11.0
39.0493 11.0
39.133 10.0
39.2167 13.0
39.3004 14.0
39.3841 4.0
39.4678 16.0
39.5515 15.0
39.6352 14.0
39.7189 6.0
39.8026 11.0
39.8863 12.0
39.97 11.0
40.0538 9.0
40.1375 5.0
40.2212 16.0
40.3049 11.0
40.3886 17.0
40.4723 11.0
40.556 10.0
40.6397 5.0
40.7234 5.0
40.8071 15.0
40.8908 12.0
40.9745 6.0
41.0582 10.0
41.1419 9.0
41.2256 3.0
41.3093 9.0
41.393 15.0
41.4767 18.0
41.5605 10.0
41.6442 7.0
41.7279 9.0
41.8116 7.0
41.8953 5.0
41.979 11.0
42.0627 14.0
42.1464 7.0
42.2301 7.0
42.3138 7.0
42.3975 10.0
42.4812 6.0
42.5649 9.0
42.6486 10.0
42.7323 11.0
42.816 8.0
42.8997 12.0
42.9834 11.0
43.0672 19.0
43.1509 15.0
43.2346 10.0
43.3183 15.0
43.402 10.0
43.4857 13.0
43.5694 9.0
43.6531 8.0
43.7368 6.0
43.8205 16.0
43.9042 13.0
43.9879 10.0
44.0716 15.0
44.1553 17.0
44.239 19.0
44.3227 24.0
44.4064 37.0
44.4901 19.0
44.5739 11.0
44.6576 12.0
44.7413 22.0
44.825 16.0
44.9087 11.0
44.9924 11.0
45.0761 15.0
45.1598 8.0
45.2435 8.0
45.3272 14.0
45.4109 23.0
45.4946 12.0
45.5783 10.0
45.662 8.0
45.7457 10.0
45.8294 11.0
45.9131 8.0
45.9968 7.0
46.0806 14.0
46.1643 11.0
46.248 6.0
46.3317 7.0
46.4154 17.0
46.4991 10.0
46.5828 7.0
46.6665 13.0
46.7502 8.0
46.8339 10.0
46.9176 13.0
47.0013 21.0
47.085 87.0
47.1687 19.0
47.2524 14.0
47.3361 14.0
47.4198 16.0
47.5035 16.0
47.5873 12.0
47.671 8.0
47.7547 12.0
47.8384 18.0
47.9221 6.0
48.0058 14.0
48.0895 12.0
48.1732 12.0
48.2569 20.0
48.3406 16.0
48.4243 15.0
48.508 15.0
48.5917 15.0
48.6754 12.0
48.7591 13.0
48.8428 26.0
48.9265 16.0
49.0102 19.0
49.094 10.0
49.1777 18.0
49.2614 30.0
49.3451 25.0
49.4288 27.0
49.5125 24.0
49.5962 25.0
49.6799 26.0
49.7636 25.0
49.8473 39.0
49.931 33.0
50.0147 42.0
50.0984 81.0
50.1821 141.0
50.2658 30.0
50.3495 30.0
50.4332 18.0
50.5169 39.0
50.6007 29.0
50.6844 20.0
50.7681 20.0
50.8518 14.0
50.9355 13.0
51.0192 22.0
51.1029 19.0
51.1866 23.0
51.2703 15.0
51.354 19.0
51.4377 28.0
51.5214 28.0
51.6051 31.0
51.6888 25.0
51.7725 43.0
51.8562 39.0
51.9399 63.0
52.0236 63.0
52.1074 84.0
52.1911 140.0
52.2748 365.0
52.3585 533.0
52.4422 6044.0
52.5259 9059.0
52.6096 15612.0
52.6933 1539.0
52.777 412.0
52.8607 221.0
52.9444 150.0
53.0281 134.0
53.1118 103.0
53.1955 113.0
53.2792 94.0
53.3629 88.0
53.4466 69.0
53.5303 72.0
53.6141 54.0
53.6978 50.0
53.7815 45.0
53.8652 53.0
53.9489 50.0
54.0326 36.0
54.1163 45.0
54.2 26.0
54.2837 21.0
54.3674 20.0
54.4511 17.0
54.5348 27.0
54.6185 19.0
54.7022 15.0
54.7859 27.0
54.8696 17.0
54.9533 25.0
55.037 22.0
55.1208 17.0
55.2045 16.0
55.2882 12.0
55.3719 15.0
55.4556 14.0
55.5393 15.0
55.623 10.0
55.7067 14.0
55.7904 14.0
55.8741 15.0
55.9578 15.0
56.0415 11.0
56.1252 13.0
56.2089 18.0
56.2926 21.0
56.3763 12.0
56.46 10.0
56.5437 17.0
56.6275 11.0
56.7112 12.0
56.7949 13.0
56.8786 18.0
56.9623 12.0
57.046 16.0
57.1297 16.0
57.2134 8.0
57.2971 11.0
57.3808 14.0
57.4645 18.0
57.5482 15.0
57.6319 13.0
57.7156 12.0
57.7993 10.0
57.883 7.0
57.9667 17.0
58.0504 12.0
58.1342 15.0
58.2179 14.0
58.3016 17.0
58.3853 14.0
58.469 14.0
58.5527 9.0
58.6364 8.0
58.7201 8.0
58.8038 9.0
58.8875 10.0
58.9712 11.0
59.0549 13.0
59.1386 9.0
59.2223 6.0
59.306 12.0
59.3897 10.0
59.4734 15.0
59.5571 17.0
59.6409 11.0
59.7246 11.0
59.8083 9.0
59.892 9.0
59.9757 14.0
60.0594 16.0
60.1431 11.0
60.2268 4.0
60.3105 12.0
60.3942 9.0
60.4779 10.0
60.5616 9.0
60.6453 9.0
60.729 12.0
60.8127 13.0
60.8964 7.0
60.9801 14.0
61.0638 11.0
61.1476 14.0
61.2313 10.0
61.315 13.0
61.3987 11.0
61.4824 18.0
61.5661 9.0
61.6498 12.0
61.7335 3.0
61.8172 11.0
61.9009 8.0
61.9846 8.0
62.0683 10.0
62.152 8.0
62.2357 16.0
62.3194 6.0
62.4031 7.0
62.4868 10.0
62.5705 10.0
62.6543 8.0
62.738 8.0
62.8217 12.0
62.9054 10.0
62.9891 7.0
63.0728 9.0
63.1565 13.0
63.2402 10.0
63.3239 9.0
63.4076 5.0
63.4913 10.0
63.575 9.0
63.6587 12.0
63.7424 9.0
63.8261 13.0
63.9098 7.0
63.9935 14.0
64.0772 16.0
64.161 12.0
64.2447 13.0
64.3284 11.0
64.4121 13.0
64.4958 13.0
64.5795 14.0
64.6632 12.0
64.7469 16.0
64.8306 16.0
64.9143 14.0
64.998 13.0
65.0817 12.0
65.1654 9.0
65.2491 12.0
65.3328 12.0
65.4165 10.0
65.5002 11.0
65.5839 16.0
65.6677 12.0
65.7514 9.0
65.8351 10.0
65.9188 16.0
66.0025 13.0
66.0862 11.0
66.1699 11.0
66.2536 8.0
66.3373 18.0
66.421 6.0
66.5047 11.0
66.5884 8.0
66.6721 16.0
66.7558 12.0
66.8395 14.0
66.9232 7.0
67.0069 10.0
67.0906 8.0
67.1744 11.0
67.2581 10.0
67.3418 12.0
67.4255 12.0
67.5092 5.0
67.5929 7.0
67.6766 17.0
67.7603 13.0
67.844 8.0
67.9277 13.0
68.0114 11.0
68.0951 13.0
68.1788 8.0
68.2625 19.0
68.3462 13.0
68.4299 10.0
68.5136 15.0
68.5973 7.0
68.6811 10.0
68.7648 9.0
68.8485 10.0
68.9322 12.0
69.0159 8.0
69.0996 17.0
69.1833 12.0
69.267 11.0
69.3507 10.0
69.4344 8.0
69.5181 12.0
69.6018 11.0
69.6855 17.0
69.7692 10.0
69.8529 5.0
69.9366 7.0
70.0203 7.0
70.104 10.0
70.1878 9.0
70.2715 7.0
70.3552 11.0
70.4389 13.0
70.5226 7.0
70.6063 8.0
70.69 7.0
70.7737 10.0
70.8574 10.0
70.9411 12.0
71.0248 16.0
71.1085 7.0
71.1922 10.0
71.2759 10.0
71.3596 11.0
71.4433 19.0
71.527 20.0
71.6107 17.0
71.6945 9.0
71.7782 14.0
71.8619 10.0
71.9456 14.0
72.0293 14.0
72.113 10.0
72.1967 11.0
72.2804 12.0
72.3641 14.0
72.4478 12.0
72.5315 8.0
72.6152 6.0
72.6989 10.0
72.7826 9.0
72.8663 12.0
72.95 10.0
73.0337 11.0
73.1174 10.0
73.2012 14.0
73.2849 8.0
73.3686 11.0
73.4523 12.0
73.536 6.0
73.6197 15.0
73.7034 15.0
73.7871 12.0
73.8708 19.0
73.9545 12.0
74.0382 10.0
74.1219 11.0
74.2056 12.0
74.2893 13.0
74.373 7.0
74.4567 10.0
74.5404 8.0
74.6241 21.0
74.7079 6.0
74.7916 14.0
74.8753 9.0
74.959 9.0
75.0427 15.0
75.1264 10.0
75.2101 7.0
75.2938 10.0
75.3775 16.0
75.4612 11.0
75.5449 10.0
75.6286 6.0
75.7123 16.0
75.796 15.0
75.8797 10.0
75.9634 9.0
76.0471 11.0
76.1308 9.0
76.2146 7.0
76.2983 9.0
76.382 13.0
76.4657 11.0
76.5494 9.0
76.6331 19.0
76.7168 9.0
76.8005 9.0
76.8842 9.0
76.9679 12.0
77.0516 12.0
77.1353 9.0
77.219 9.0
77.3027 12.0
77.3864 14.0
77.4701 11.0
77.5538 9.0
77.6375 14.0
77.7213 6.0
77.805 10.0
77.8887 11.0
77.9724 14.0
78.0561 8.0
78.1398 8.0
78.2235 8.0
78.3072 7.0
78.3909 6.0
78.4746 9.0
78.5583 21.0
78.642 17.0
78.7257 15.0
78.8094 10.0
78.8931 5.0
78.9768 17.0
79.0605 8.0
79.1442 11.0
79.228 10.0
79.3117 11.0
79.3954 10.0
79.4791 7.0
79.5628 17.0
79.6465 12.0
79.7302 7.0
79.8139 8.0
79.8976 10.0
79.9813 14.0
80.065 8.0
80.1487 14.0
80.2324 11.0
80.3161 6.0
80.3998 10.0
80.4835 9.0
80.5672 17.0
80.6509 12.0
80.7347 12.0
80.8184 10.0
80.9021 12.0
80.9858 10.0
81.0695 10.0
81.1532 17.0
81.2369 15.0
81.3206 11.0
81.4043 13.0
81.488 21.0
81.5717 7.0
81.6554 16.0
81.7391 14.0
81.8228 11.0
81.9065 12.0
81.9902 13.0
82.0739 12.0
82.1576 7.0
82.2414 12.0
82.3251 7.0
82.4088 23.0
82.4925 9.0
82.5762 12.0
82.6599 15.0
82.7436 15.0
82.8273 29.0
82.911 24.0
82.9947 34.0
83.0784 106.0
83.1621 1596.0
83.2458 117.0
83.3295 81.0
83.4132 874.0
83.4969 96.0
83.5806 41.0
83.6643 23.0
83.7481 21.0
83.8318 16.0
83.9155 16.0
83.9992 14.0
84.0829 9.0
84.1666 13.0
84.2503 14.0
84.334 14.0
84.4177 10.0
84.5014 14.0
84.5851 12.0
84.6688 19.0
84.7525 6.0
84.8362 20.0
84.9199 14.0
85.0036 18.0
85.0873 20.0
85.171 20.0
85.2548 14.0
85.3385 12.0
85.4222 16.0
85.5059 12.0
85.5896 16.0
85.6733 10.0
85.757 4.0
85.8407 14.0
85.9244 7.0
86.0081 7.0
86.0918 11.0
86.1755 10.0
86.2592 11.0
86.3429 9.0
86.4266 13.0
86.5103 14.0
86.594 9.0
86.6777 11.0
86.7615 13.0
86.8452 7.0
86.9289 8.0
87.0126 10.0
87.0963 16.0
87.18 11.0
87.2637 10.0
87.3474 12.0
87.4311 2.0
87.5148 19.0
87.5985 7.0
87.6822 8.0
87.7659 9.0
87.8496 14.0
87.9333 13.0
88.017 15.0
88.1007 8.0
88.1844 11.0
88.2682 11.0
88.3519 10.0
88.4356 12.0
88.5193 11.0
88.603 9.0
88.6867 7.0
88.7704 9.0
88.8541 9.0
88.9378 9.0
89.0215 7.0
89.1052 8.0
89.1889 8.0
89.2726 12.0
89.3563 12.0
89.44 8.0
89.5237 14.0
89.6074 20.0
89.6911 10.0
89.7749 16.0
89.8586 14.0
89.9423 10.0
90.026 13.0
90.1097 12.0
90.1934 16.0
90.2771 12.0
90.3608 8.0
90.4445 12.0
90.5282 17.0
90.6119 14.0
90.6956 14.0
90.7793 12.0
90.863 17.0
90.9467 14.0
91.0304 12.0
91.1141 10.0
91.1978 10.0
91.2816 5.0
91.3653 10.0
91.449 16.0
91.5327 13.0
91.6164 7.0
91.7001 15.0
91.7838 7.0
91.8675 7.0
91.9512 17.0
92.0349 14.0
92.1186 10.0
92.2023 11.0
92.286 9.0
92.3697 5.0
92.4534 9.0
92.5371 9.0
92.6208 21.0
92.7045 10.0
92.7883 11.0
92.872 8.0
92.9557 17.0
93.0394 14.0
93.1231 10.0
93.2068 14.0
93.2905 9.0
93.3742 11.0
93.4579 5.0
93.5416 9.0
93.6253 14.0
93.709 13.0
93.7927 15.0
93.8764 14.0
93.9601 13.0
94.0438 15.0
94.1275 17.0
94.2112 12.0
94.295 14.0
94.3787 18.0
94.4624 13.0
94.5461 10.0
94.6298 13.0
94.7135 8.0
94.7972 18.0
94.8809 16.0
94.9646 13.0
95.0483 9.0
95.132 10.0
95.2157 10.0
95.2994 8.0
95.3831 12.0
95.4668 9.0
95.5505 12.0
95.6342 7.0
95.7179 13.0
95.8017 8.0
95.8854 4.0
95.9691 9.0
96.0528 11.0
96.1365 12.0
96.2202 11.0
96.3039 14.0
96.3876 8.0
96.4713 10.0
96.555 11.0
96.6387 11.0
96.7224 11.0
96.8061 13.0
96.8898 14.0
96.9735 9.0
97.0572 10.0
97.1409 10.0
97.2246 13.0
97.3084 12.0
97.3921 13.0
97.4758 13.0
97.5595 7.0
97.6432 14.0
97.7269 11.0
97.8106 11.0
97.8943 7.0
97.978 11.0
98.0617 14.0
98.1454 19.0
98.2291 8.0
98.3128 9.0
98.3965 12.0
98.4802 11.0
98.5639 12.0
98.6476 4.0
98.7313 9.0
98.8151 13.0
98.8988 8.0
98.9825 13.0
99.0662 21.0
99.1499 17.0
99.2336 9.0
99.3173 6.0
99.401 11.0
99.4847 9.0
99.5684 12.0
99.6521 12.0
99.7358 9.0
99.8195 10.0
99.9032 8.0
99.9869 8.0
100.071 13.0
100.154 10.0
100.238 16.0
100.322 8.0
100.405 10.0
100.489 13.0
100.573 8.0
100.657 11.0
100.74 8.0
100.824 9.0
100.908 10.0
100.991 13.0
101.075 8.0
101.159 18.0
101.243 8.0
101.326 9.0
101.41 11.0
101.494 7.0
101.577 7.0
101.661 17.0
101.745 22.0
101.828 14.0
101.912 12.0
101.996 8.0
102.08 7.0
102.163 14.0
102.247 10.0
102.331 10.0
102.414 14.0
102.498 11.0
102.582 8.0
102.666 14.0
102.749 13.0
102.833 16.0
102.917 15.0
103 11.0
103.084 14.0
103.168 13.0
103.251 11.0
103.335 10.0
103.419 12.0
103.503 19.0
103.586 18.0
103.67 15.0
103.754 6.0
103.837 14.0
103.921 8.0
104.005 11.0
104.089 6.0
104.172 14.0
104.256 20.0
104.34 11.0
104.423 15.0
104.507 15.0
104.591 10.0
104.674 6.0
104.758 12.0
104.842 11.0
104.926 8.0
105.009 8.0
105.093 8.0
105.177 10.0
105.26 11.0
105.344 13.0
105.428 16.0
105.511 11.0
105.595 12.0
105.679 10.0
105.763 10.0
105.846 12.0
105.93 6.0
106.014 15.0
106.097 13.0
106.181 24.0
106.265 23.0
106.349 20.0
106.432 25.0
106.516 10.0
106.6 14.0
106.683 13.0
106.767 17.0
106.851 14.0
106.934 3.0
107.018 11.0
107.102 13.0
107.186 12.0
107.269 6.0
107.353 12.0
107.437 10.0
107.52 9.0
107.604 14.0
107.688 15.0
107.772 5.0
107.855 13.0
107.939 12.0
108.023 13.0
108.106 13.0
108.19 9.0
108.274 13.0
108.357 15.0
108.441 6.0
108.525 12.0
108.609 15.0
108.692 14.0
108.776 12.0
108.86 11.0
108.943 8.0
109.027 16.0
109.111 15.0
109.195 10.0
109.278 9.0
109.362 9.0
109.446 8.0
109.529 9.0
109.613 12.0
109.697 9.0
109.78 7.0
109.864 11.0
109.948 9.0
110.032 11.0
110.115 6.0
110.199 20.0
110.283 12.0
110.366 11.0
110.45 7.0
110.534 20.0
110.618 15.0
110.701 6.0
110.785 15.0
110.869 11.0
110.952 8.0
111.036 12.0
111.12 10.0
111.203 15.0
111.287 14.0
111.371 9.0
111.455 10.0
111.538 17.0
111.622 9.0
111.706 11.0
111.789 9.0
111.873 12.0
111.957 8.0
112.041 8.0
112.124 6.0
112.208 18.0
112.292 10.0
112.375 7.0
112.459 10.0
112.543 7.0
112.626 15.0
112.71 12.0
112.794 7.0
112.878 9.0
112.961 11.0
113.045 10.0
113.129 14.0
113.212 17.0
113.296 8.0
113.38 19.0
113.464 18.0
113.547 8.0
113.631 14.0
113.715 18.0
113.798 13.0
113.882 14.0
113.966 12.0
114.049 12.0
114.133 17.0
114.217 21.0
114.301 15.0
114.384 6.0
114.468 14.0
114.552 10.0
114.635 15.0
114.719 18.0
114.803 7.0
114.887 15.0
114.97 15.0
115.054 15.0
115.138 14.0
115.221 9.0
115.305 12.0
115.389 11.0
115.472 12.0
115.556 20.0
115.64 17.0
115.724 15.0
115.807 17.0
115.891 21.0
115.975 24.0
116.058 38.0
116.142 33.0
116.226 18.0
116.31 18.0
116.393 15.0
116.477 3.0
116.561 11.0
116.644 14.0
116.728 12.0
116.812 11.0
116.895 12.0
116.979 14.0
117.063 15.0
117.147 6.0
117.23 18.0
117.314 13.0
117.398 15.0
117.481 18.0
117.565 22.0
117.649 14.0
117.733 22.0
117.816 14.0
117.9 12.0
117.984 12.0
118.067 7.0
118.151 7.0
118.235 13.0
118.318 15.0
118.402 11.0
118.486 18.0
118.57 16.0
118.653 11.0
118.737 15.0
118.821 12.0
118.904 16.0
118.988 13.0
119.072 15.0
119.156 15.0
119.239 22.0
119.323 10.0
119.407 12.0
119.49 7.0
119.574 16.0
119.658 19.0
119.741 9.0
119.825 9.0
119.909 17.0
119.993 14.0
120.076 11.0
120.16 10.0
120.244 17.0
120.327 11.0
120.411 18.0
120.495 15.0
120.578 16.0
120.662 16.0
120.746 17.0
120.83 14.0
120.913 14.0
120.997 12.0
121.081 9.0
121.164 13.0
121.248 13.0
121.332 12.0
121.416 16.0
121.499 23.0
121.583 15.0
121.667 20.0
121.75 16.0
121.834 14.0
121.918 13.0
122.001 14.0
122.085 13.0
122.169 20.0
122.253 17.0
122.336 10.0
122.42 19.0
122.504 16.0
122.587 14.0
122.671 15.0
122.755 18.0
122.839 19.0
122.922 19.0
123.006 17.0
123.09 22.0
123.173 17.0
123.257 23.0
123.341 25.0
123.424 26.0
123.508 29.0
123.592 38.0
123.676 28.0
123.759 39.0
123.843 47.0
123.927 41.0
124.01 57.0
124.094 62.0
124.178 70.0
124.262 103.0
124.345 176.0
124.429 468.0
124.513 1923.0
124.596 5896.0
124.68 1280.0
124.764 398.0
124.847 172.0
124.931 256.0
125.015 595.0
125.099 2798.0
125.182 1631.0
125.266 428.0
125.35 147.0
125.433 102.0
125.517 80.0
125.601 49.0
125.685 36.0
125.768 57.0
125.852 32.0
125.936 46.0
126.019 38.0
126.103 33.0
126.187 28.0
126.27 33.0
126.354 29.0
126.438 25.0
126.522 22.0
126.605 25.0
126.689 27.0
126.773 29.0
126.856 27.0
126.94 21.0
127.024 20.0
127.108 19.0
127.191 28.0
127.275 29.0
127.359 17.0
127.442 24.0
127.526 20.0
127.61 22.0
127.693 17.0
127.777 21.0
127.861 13.0
127.945 29.0
128.028 16.0
128.112 13.0
128.196 25.0
128.279 21.0
128.363 18.0
128.447 16.0
128.531 12.0
128.614 22.0
128.698 21.0
128.782 16.0
128.865 22.0
128.949 18.0
129.033 26.0
129.116 12.0
129.2 27.0
129.284 14.0
129.368 15.0
129.451 15.0
129.535 18.0
129.619 25.0
129.702 24.0
129.786 18.0
129.87 17.0
129.954 12.0
129.998 12.0