File: data/W6853c/XRD_2ThetaOmega/W6853c_absolute_2th-om_10-130deg_PIXscan_17min_1.xy
10.0035 15.0
10.0872 17.0
10.1709 32.0
10.2546 14.0
10.3383 19.0
10.422 24.0
10.5057 23.0
10.5894 20.0
10.6731 31.0
10.7568 15.0
10.8405 26.0
10.9242 28.0
11.0079 22.0
11.0916 15.0
11.1753 21.0
11.259 12.0
11.3428 23.0
11.4265 17.0
11.5102 21.0
11.5939 23.0
11.6776 23.0
11.7613 26.0
11.845 14.0
11.9287 20.0
12.0124 19.0
12.0961 23.0
12.1798 31.0
12.2635 20.0
12.3472 18.0
12.4309 14.0
12.5146 16.0
12.5983 18.0
12.682 16.0
12.7657 13.0
12.8495 23.0
12.9332 22.0
13.0169 21.0
13.1006 8.0
13.1843 12.0
13.268 14.0
13.3517 23.0
13.4354 15.0
13.5191 16.0
13.6028 17.0
13.6865 15.0
13.7702 17.0
13.8539 23.0
13.9376 12.0
14.0213 24.0
14.105 21.0
14.1887 17.0
14.2724 12.0
14.3562 19.0
14.4399 26.0
14.5236 19.0
14.6073 18.0
14.691 11.0
14.7747 16.0
14.8584 21.0
14.9421 15.0
15.0258 18.0
15.1095 9.0
15.1932 13.0
15.2769 11.0
15.3606 18.0
15.4443 11.0
15.528 7.0
15.6117 14.0
15.6954 13.0
15.7791 17.0
15.8629 19.0
15.9466 16.0
16.0303 20.0
16.114 16.0
16.1977 13.0
16.2814 5.0
16.3651 20.0
16.4488 10.0
16.5325 19.0
16.6162 14.0
16.6999 12.0
16.7836 13.0
16.8673 13.0
16.951 12.0
17.0347 12.0
17.1184 17.0
17.2021 17.0
17.2858 14.0
17.3696 16.0
17.4533 11.0
17.537 23.0
17.6207 20.0
17.7044 12.0
17.7881 18.0
17.8718 11.0
17.9555 5.0
18.0392 10.0
18.1229 19.0
18.2066 11.0
18.2903 10.0
18.374 15.0
18.4577 11.0
18.5414 12.0
18.6251 19.0
18.7088 12.0
18.7925 20.0
18.8763 12.0
18.96 13.0
19.0437 17.0
19.1274 10.0
19.2111 10.0
19.2948 17.0
19.3785 12.0
19.4622 12.0
19.5459 18.0
19.6296 9.0
19.7133 14.0
19.797 9.0
19.8807 8.0
19.9644 8.0
20.0481 13.0
20.1318 14.0
20.2155 14.0
20.2992 12.0
20.383 16.0
20.4667 11.0
20.5504 21.0
20.6341 18.0
20.7178 15.0
20.8015 9.0
20.8852 15.0
20.9689 10.0
21.0526 15.0
21.1363 9.0
21.22 19.0
21.3037 12.0
21.3874 10.0
21.4711 9.0
21.5548 9.0
21.6385 18.0
21.7222 8.0
21.8059 12.0
21.8897 7.0
21.9734 11.0
22.0571 8.0
22.1408 17.0
22.2245 8.0
22.3082 7.0
22.3919 8.0
22.4756 8.0
22.5593 8.0
22.643 8.0
22.7267 15.0
22.8104 11.0
22.8941 5.0
22.9778 11.0
23.0615 15.0
23.1452 10.0
23.2289 8.0
23.3126 11.0
23.3964 22.0
23.4801 14.0
23.5638 11.0
23.6475 16.0
23.7312 7.0
23.8149 8.0
23.8986 10.0
23.9823 9.0
24.066 15.0
24.1497 4.0
24.2334 6.0
24.3171 12.0
24.4008 7.0
24.4845 8.0
24.5682 4.0
24.6519 7.0
24.7356 4.0
24.8193 10.0
24.9031 9.0
24.9868 10.0
25.0705 16.0
25.1542 10.0
25.2379 8.0
25.3216 6.0
25.4053 11.0
25.489 11.0
25.5727 9.0
25.6564 10.0
25.7401 9.0
25.8238 16.0
25.9075 7.0
25.9912 9.0
26.0749 2.0
26.1586 9.0
26.2423 9.0
26.326 0.0
26.4098 7.0
26.4935 7.0
26.5772 10.0
26.6609 9.0
26.7446 10.0
26.8283 9.0
26.912 9.0
26.9957 10.0
27.0794 11.0
27.1631 10.0
27.2468 9.0
27.3305 8.0
27.4142 11.0
27.4979 10.0
27.5816 8.0
27.6653 11.0
27.749 9.0
27.8327 12.0
27.9165 8.0
28.0002 7.0
28.0839 10.0
28.1676 13.0
28.2513 11.0
28.335 10.0
28.4187 3.0
28.5024 5.0
28.5861 10.0
28.6698 6.0
28.7535 13.0
28.8372 5.0
28.9209 2.0
29.0046 7.0
29.0883 6.0
29.172 14.0
29.2557 7.0
29.3394 9.0
29.4232 8.0
29.5069 10.0
29.5906 7.0
29.6743 1.0
29.758 17.0
29.8417 4.0
29.9254 15.0
30.0091 8.0
30.0928 10.0
30.1765 10.0
30.2602 6.0
30.3439 8.0
30.4276 8.0
30.5113 5.0
30.595 11.0
30.6787 6.0
30.7624 12.0
30.8461 3.0
30.9298 13.0
31.0136 5.0
31.0973 14.0
31.181 8.0
31.2647 8.0
31.3484 7.0
31.4321 10.0
31.5158 7.0
31.5995 8.0
31.6832 10.0
31.7669 11.0
31.8506 7.0
31.9343 7.0
32.018 6.0
32.1017 6.0
32.1854 6.0
32.2691 8.0
32.3528 11.0
32.4365 7.0
32.5203 6.0
32.604 7.0
32.6877 4.0
32.7714 6.0
32.8551 6.0
32.9388 8.0
33.0225 7.0
33.1062 0.0
33.1899 6.0
33.2736 4.0
33.3573 8.0
33.441 7.0
33.5247 8.0
33.6084 8.0
33.6921 9.0
33.7758 15.0
33.8595 14.0
33.9432 6.0
34.027 4.0
34.1107 9.0
34.1944 7.0
34.2781 4.0
34.3618 10.0
34.4455 3.0
34.5292 9.0
34.6129 11.0
34.6966 6.0
34.7803 8.0
34.864 4.0
34.9477 8.0
35.0314 7.0
35.1151 8.0
35.1988 5.0
35.2825 11.0
35.3662 9.0
35.4499 10.0
35.5337 4.0
35.6174 9.0
35.7011 9.0
35.7848 14.0
35.8685 9.0
35.9522 12.0
36.0359 8.0
36.1196 9.0
36.2033 6.0
36.287 9.0
36.3707 11.0
36.4544 7.0
36.5381 7.0
36.6218 4.0
36.7055 8.0
36.7892 8.0
36.8729 9.0
36.9566 3.0
37.0404 11.0
37.1241 7.0
37.2078 9.0
37.2915 11.0
37.3752 12.0
37.4589 25.0
37.5426 7.0
37.6263 11.0
37.71 11.0
37.7937 10.0
37.8774 16.0
37.9611 12.0
38.0448 10.0
38.1285 13.0
38.2122 8.0
38.2959 14.0
38.3796 9.0
38.4633 13.0
38.5471 11.0
38.6308 13.0
38.7145 10.0
38.7982 11.0
38.8819 18.0
38.9656 24.0
39.0493 46.0
39.133 42.0
39.2167 64.0
39.3004 98.0
39.3841 182.0
39.4678 423.0
39.5515 712.0
39.6352 620.0
39.7189 387.0
39.8026 187.0
39.8863 69.0
39.97 53.0
40.0538 31.0
40.1375 26.0
40.2212 19.0
40.3049 15.0
40.3886 16.0
40.4723 14.0
40.556 18.0
40.6397 11.0
40.7234 13.0
40.8071 13.0
40.8908 16.0
40.9745 13.0
41.0582 16.0
41.1419 16.0
41.2256 18.0
41.3093 27.0
41.393 46.0
41.4767 65.0
41.5605 413.0
41.6442 2756.0
41.7279 3039.0
41.8116 109.0
41.8953 61.0
41.979 28.0
42.0627 34.0
42.1464 23.0
42.2301 25.0
42.3138 15.0
42.3975 17.0
42.4812 27.0
42.5649 15.0
42.6486 15.0
42.7323 16.0
42.816 10.0
42.8997 13.0
42.9834 20.0
43.0672 15.0
43.1509 13.0
43.2346 14.0
43.3183 10.0
43.402 4.0
43.4857 6.0
43.5694 7.0
43.6531 9.0
43.7368 9.0
43.8205 11.0
43.9042 15.0
43.9879 13.0
44.0716 18.0
44.1553 11.0
44.239 20.0
44.3227 12.0
44.4064 13.0
44.4901 22.0
44.5739 14.0
44.6576 13.0
44.7413 10.0
44.825 12.0
44.9087 12.0
44.9924 6.0
45.0761 8.0
45.1598 10.0
45.2435 7.0
45.3272 3.0
45.4109 11.0
45.4946 10.0
45.5783 9.0
45.662 6.0
45.7457 13.0
45.8294 14.0
45.9131 6.0
45.9968 15.0
46.0806 11.0
46.1643 9.0
46.248 7.0
46.3317 4.0
46.4154 10.0
46.4991 8.0
46.5828 13.0
46.6665 7.0
46.7502 7.0
46.8339 6.0
46.9176 5.0
47.0013 10.0
47.085 6.0
47.1687 9.0
47.2524 6.0
47.3361 5.0
47.4198 11.0
47.5035 8.0
47.5873 7.0
47.671 8.0
47.7547 10.0
47.8384 14.0
47.9221 7.0
48.0058 11.0
48.0895 10.0
48.1732 9.0
48.2569 9.0
48.3406 7.0
48.4243 7.0
48.508 5.0
48.5917 9.0
48.6754 12.0
48.7591 12.0
48.8428 9.0
48.9265 17.0
49.0102 11.0
49.094 12.0
49.1777 2.0
49.2614 10.0
49.3451 5.0
49.4288 7.0
49.5125 14.0
49.5962 4.0
49.6799 12.0
49.7636 12.0
49.8473 9.0
49.931 9.0
50.0147 6.0
50.0984 5.0
50.1821 5.0
50.2658 7.0
50.3495 9.0
50.4332 10.0
50.5169 18.0
50.6007 7.0
50.6844 8.0
50.7681 7.0
50.8518 7.0
50.9355 2.0
51.0192 16.0
51.1029 8.0
51.1866 2.0
51.2703 4.0
51.354 8.0
51.4377 5.0
51.5214 9.0
51.6051 11.0
51.6888 14.0
51.7725 10.0
51.8562 13.0
51.9399 7.0
52.0236 9.0
52.1074 9.0
52.1911 6.0
52.2748 10.0
52.3585 12.0
52.4422 8.0
52.5259 12.0
52.6096 9.0
52.6933 6.0
52.777 10.0
52.8607 9.0
52.9444 7.0
53.0281 14.0
53.1118 6.0
53.1955 5.0
53.2792 3.0
53.3629 11.0
53.4466 7.0
53.5303 6.0
53.6141 3.0
53.6978 7.0
53.7815 7.0
53.8652 8.0
53.9489 9.0
54.0326 9.0
54.1163 12.0
54.2 13.0
54.2837 4.0
54.3674 3.0
54.4511 10.0
54.5348 6.0
54.6185 5.0
54.7022 5.0
54.7859 9.0
54.8696 10.0
54.9533 4.0
55.037 15.0
55.1208 14.0
55.2045 13.0
55.2882 8.0
55.3719 10.0
55.4556 13.0
55.5393 12.0
55.623 8.0
55.7067 8.0
55.7904 11.0
55.8741 10.0
55.9578 10.0
56.0415 7.0
56.1252 9.0
56.2089 7.0
56.2926 16.0
56.3763 8.0
56.46 6.0
56.5437 11.0
56.6275 7.0
56.7112 6.0
56.7949 10.0
56.8786 14.0
56.9623 9.0
57.046 7.0
57.1297 5.0
57.2134 5.0
57.2971 8.0
57.3808 5.0
57.4645 7.0
57.5482 11.0
57.6319 5.0
57.7156 6.0
57.7993 12.0
57.883 13.0
57.9667 7.0
58.0504 8.0
58.1342 7.0
58.2179 6.0
58.3016 10.0
58.3853 7.0
58.469 10.0
58.5527 13.0
58.6364 6.0
58.7201 10.0
58.8038 9.0
58.8875 11.0
58.9712 9.0
59.0549 11.0
59.1386 13.0
59.2223 11.0
59.306 12.0
59.3897 13.0
59.4734 13.0
59.5571 9.0
59.6409 6.0
59.7246 9.0
59.8083 9.0
59.892 8.0
59.9757 5.0
60.0594 8.0
60.1431 10.0
60.2268 8.0
60.3105 8.0
60.3942 10.0
60.4779 14.0
60.5616 16.0
60.6453 11.0
60.729 15.0
60.8127 8.0
60.8964 13.0
60.9801 10.0
61.0638 14.0
61.1476 12.0
61.2313 8.0
61.315 8.0
61.3987 7.0
61.4824 11.0
61.5661 7.0
61.6498 12.0
61.7335 10.0
61.8172 9.0
61.9009 5.0
61.9846 11.0
62.0683 9.0
62.152 8.0
62.2357 6.0
62.3194 10.0
62.4031 8.0
62.4868 6.0
62.5705 6.0
62.6543 8.0
62.738 7.0
62.8217 4.0
62.9054 14.0
62.9891 6.0
63.0728 11.0
63.1565 18.0
63.2402 8.0
63.3239 3.0
63.4076 10.0
63.4913 13.0
63.575 13.0
63.6587 14.0
63.7424 6.0
63.8261 16.0
63.9098 11.0
63.9935 5.0
64.0772 11.0
64.161 15.0
64.2447 9.0
64.3284 17.0
64.4121 14.0
64.4958 6.0
64.5795 13.0
64.6632 9.0
64.7469 6.0
64.8306 7.0
64.9143 10.0
64.998 13.0
65.0817 12.0
65.1654 4.0
65.2491 7.0
65.3328 9.0
65.4165 5.0
65.5002 12.0
65.5839 14.0
65.6677 6.0
65.7514 12.0
65.8351 10.0
65.9188 15.0
66.0025 11.0
66.0862 9.0
66.1699 9.0
66.2536 12.0
66.3373 6.0
66.421 15.0
66.5047 8.0
66.5884 9.0
66.6721 6.0
66.7558 3.0
66.8395 8.0
66.9232 13.0
67.0069 14.0
67.0906 8.0
67.1744 7.0
67.2581 10.0
67.3418 10.0
67.4255 9.0
67.5092 6.0
67.5929 12.0
67.6766 12.0
67.7603 10.0
67.844 7.0
67.9277 10.0
68.0114 9.0
68.0951 12.0
68.1788 8.0
68.2625 11.0
68.3462 8.0
68.4299 15.0
68.5136 12.0
68.5973 9.0
68.6811 6.0
68.7648 15.0
68.8485 12.0
68.9322 7.0
69.0159 12.0
69.0996 14.0
69.1833 10.0
69.267 10.0
69.3507 9.0
69.4344 7.0
69.5181 11.0
69.6018 6.0
69.6855 12.0
69.7692 12.0
69.8529 16.0
69.9366 9.0
70.0203 12.0
70.104 10.0
70.1878 13.0
70.2715 11.0
70.3552 9.0
70.4389 13.0
70.5226 10.0
70.6063 10.0
70.69 7.0
70.7737 14.0
70.8574 6.0
70.9411 10.0
71.0248 9.0
71.1085 15.0
71.1922 16.0
71.2759 8.0
71.3596 13.0
71.4433 11.0
71.527 9.0
71.6107 10.0
71.6945 8.0
71.7782 13.0
71.8619 5.0
71.9456 18.0
72.0293 11.0
72.113 10.0
72.1967 10.0
72.2804 10.0
72.3641 8.0
72.4478 13.0
72.5315 18.0
72.6152 12.0
72.6989 11.0
72.7826 8.0
72.8663 10.0
72.95 13.0
73.0337 11.0
73.1174 17.0
73.2012 8.0
73.2849 12.0
73.3686 5.0
73.4523 11.0
73.536 13.0
73.6197 15.0
73.7034 9.0
73.7871 12.0
73.8708 8.0
73.9545 8.0
74.0382 7.0
74.1219 11.0
74.2056 13.0
74.2893 11.0
74.373 6.0
74.4567 6.0
74.5404 14.0
74.6241 17.0
74.7079 11.0
74.7916 11.0
74.8753 5.0
74.959 10.0
75.0427 15.0
75.1264 7.0
75.2101 8.0
75.2938 4.0
75.3775 10.0
75.4612 11.0
75.5449 10.0
75.6286 16.0
75.7123 8.0
75.796 12.0
75.8797 12.0
75.9634 9.0
76.0471 8.0
76.1308 23.0
76.2146 10.0
76.2983 8.0
76.382 12.0
76.4657 9.0
76.5494 10.0
76.6331 12.0
76.7168 19.0
76.8005 13.0
76.8842 15.0
76.9679 8.0
77.0516 16.0
77.1353 13.0
77.219 11.0
77.3027 12.0
77.3864 8.0
77.4701 11.0
77.5538 8.0
77.6375 8.0
77.7213 8.0
77.805 9.0
77.8887 11.0
77.9724 9.0
78.0561 16.0
78.1398 15.0
78.2235 7.0
78.3072 9.0
78.3909 7.0
78.4746 10.0
78.5583 12.0
78.642 12.0
78.7257 12.0
78.8094 14.0
78.8931 10.0
78.9768 7.0
79.0605 7.0
79.1442 15.0
79.228 9.0
79.3117 14.0
79.3954 17.0
79.4791 13.0
79.5628 13.0
79.6465 13.0
79.7302 13.0
79.8139 18.0
79.8976 10.0
79.9813 27.0
80.065 17.0
80.1487 4.0
80.2324 10.0
80.3161 8.0
80.3998 11.0
80.4835 4.0
80.5672 13.0
80.6509 14.0
80.7347 12.0
80.8184 17.0
80.9021 9.0
80.9858 14.0
81.0695 8.0
81.1532 12.0
81.2369 13.0
81.3206 5.0
81.4043 17.0
81.488 12.0
81.5717 10.0
81.6554 12.0
81.7391 6.0
81.8228 12.0
81.9065 12.0
81.9902 10.0
82.0739 12.0
82.1576 16.0
82.2414 14.0
82.3251 7.0
82.4088 12.0
82.4925 18.0
82.5762 10.0
82.6599 11.0
82.7436 6.0
82.8273 12.0
82.911 7.0
82.9947 14.0
83.0784 7.0
83.1621 12.0
83.2458 18.0
83.3295 15.0
83.4132 16.0
83.4969 11.0
83.5806 13.0
83.6643 8.0
83.7481 22.0
83.8318 10.0
83.9155 17.0
83.9992 18.0
84.0829 12.0
84.1666 21.0
84.2503 28.0
84.334 12.0
84.4177 16.0
84.5014 19.0
84.5851 34.0
84.6688 23.0
84.7525 36.0
84.8362 33.0
84.9199 43.0
85.0036 66.0
85.0873 64.0
85.171 87.0
85.2548 103.0
85.3385 121.0
85.4222 110.0
85.5059 134.0
85.5896 98.0
85.6733 79.0
85.757 64.0
85.8407 64.0
85.9244 75.0
86.0081 45.0
86.0918 25.0
86.1755 23.0
86.2592 19.0
86.3429 22.0
86.4266 13.0
86.5103 15.0
86.594 19.0
86.6777 14.0
86.7615 14.0
86.8452 15.0
86.9289 20.0
87.0126 11.0
87.0963 6.0
87.18 13.0
87.2637 23.0
87.3474 12.0
87.4311 23.0
87.5148 27.0
87.5985 15.0
87.6822 10.0
87.7659 16.0
87.8496 20.0
87.9333 11.0
88.017 11.0
88.1007 13.0
88.1844 16.0
88.2682 13.0
88.3519 16.0
88.4356 21.0
88.5193 11.0
88.603 14.0
88.6867 8.0
88.7704 8.0
88.8541 13.0
88.9378 16.0
89.0215 14.0
89.1052 14.0
89.1889 12.0
89.2726 12.0
89.3563 16.0
89.44 15.0
89.5237 11.0
89.6074 19.0
89.6911 14.0
89.7749 22.0
89.8586 31.0
89.9423 27.0
90.026 32.0
90.1097 42.0
90.1934 59.0
90.2771 55.0
90.3608 58.0
90.4445 76.0
90.5282 178.0
90.6119 1068.0
90.6956 5952.0
90.7793 525.0
90.863 368.0
90.9467 3340.0
91.0304 816.0
91.1141 133.0
91.1978 77.0
91.2816 51.0
91.3653 43.0
91.449 36.0
91.5327 27.0
91.6164 27.0
91.7001 26.0
91.7838 28.0
91.8675 33.0
91.9512 25.0
92.0349 29.0
92.1186 31.0
92.2023 32.0
92.286 28.0
92.3697 23.0
92.4534 30.0
92.5371 19.0
92.6208 21.0
92.7045 25.0
92.7883 17.0
92.872 19.0
92.9557 20.0
93.0394 12.0
93.1231 23.0
93.2068 24.0
93.2905 13.0
93.3742 16.0
93.4579 15.0
93.5416 20.0
93.6253 16.0
93.709 13.0
93.7927 9.0
93.8764 12.0
93.9601 18.0
94.0438 17.0
94.1275 19.0
94.2112 16.0
94.295 14.0
94.3787 9.0
94.4624 11.0
94.5461 11.0
94.6298 10.0
94.7135 9.0
94.7972 12.0
94.8809 9.0
94.9646 9.0
95.0483 7.0
95.132 13.0
95.2157 14.0
95.2994 13.0
95.3831 9.0
95.4668 11.0
95.5505 11.0
95.6342 15.0
95.7179 11.0
95.8017 12.0
95.8854 12.0
95.9691 19.0
96.0528 10.0
96.1365 11.0
96.2202 15.0
96.3039 15.0
96.3876 17.0
96.4713 8.0
96.555 19.0
96.6387 12.0
96.7224 14.0
96.8061 14.0
96.8898 9.0
96.9735 14.0
97.0572 10.0
97.1409 6.0
97.2246 15.0
97.3084 19.0
97.3921 10.0
97.4758 16.0
97.5595 15.0
97.6432 13.0
97.7269 15.0
97.8106 7.0
97.8943 14.0
97.978 12.0
98.0617 8.0
98.1454 11.0
98.2291 13.0
98.3128 18.0
98.3965 13.0
98.4802 13.0
98.5639 18.0
98.6476 12.0
98.7313 15.0
98.8151 21.0
98.8988 9.0
98.9825 13.0
99.0662 8.0
99.1499 15.0
99.2336 18.0
99.3173 10.0
99.401 13.0
99.4847 12.0
99.5684 16.0
99.6521 7.0
99.7358 15.0
99.8195 9.0
99.9032 12.0
99.9869 6.0
100.071 15.0
100.154 9.0
100.238 14.0
100.322 8.0
100.405 8.0
100.489 20.0
100.573 24.0
100.657 12.0
100.74 14.0
100.824 13.0
100.908 8.0
100.991 11.0
101.075 13.0
101.159 13.0
101.243 12.0
101.326 18.0
101.41 12.0
101.494 10.0
101.577 17.0
101.661 6.0
101.745 18.0
101.828 11.0
101.912 14.0
101.996 15.0
102.08 12.0
102.163 11.0
102.247 12.0
102.331 11.0
102.414 10.0
102.498 15.0
102.582 9.0
102.666 15.0
102.749 14.0
102.833 9.0
102.917 18.0
103 15.0
103.084 12.0
103.168 9.0
103.251 13.0
103.335 15.0
103.419 10.0
103.503 6.0
103.586 14.0
103.67 10.0
103.754 16.0
103.837 9.0
103.921 15.0
104.005 8.0
104.089 10.0
104.172 12.0
104.256 15.0
104.34 13.0
104.423 12.0
104.507 13.0
104.591 13.0
104.674 13.0
104.758 9.0
104.842 15.0
104.926 8.0
105.009 12.0
105.093 8.0
105.177 8.0
105.26 13.0
105.344 7.0
105.428 13.0
105.511 21.0
105.595 7.0
105.679 9.0
105.763 17.0
105.846 10.0
105.93 9.0
106.014 9.0
106.097 9.0
106.181 14.0
106.265 7.0
106.349 13.0
106.432 13.0
106.516 9.0
106.6 11.0
106.683 9.0
106.767 18.0
106.851 11.0
106.934 8.0
107.018 9.0
107.102 12.0
107.186 11.0
107.269 4.0
107.353 7.0
107.437 16.0
107.52 14.0
107.604 12.0
107.688 16.0
107.772 13.0
107.855 11.0
107.939 11.0
108.023 13.0
108.106 7.0
108.19 13.0
108.274 15.0
108.357 17.0
108.441 5.0
108.525 10.0
108.609 2.0
108.692 9.0
108.776 14.0
108.86 11.0
108.943 6.0
109.027 17.0
109.111 11.0
109.195 12.0
109.278 11.0
109.362 7.0
109.446 10.0
109.529 11.0
109.613 14.0
109.697 17.0
109.78 16.0
109.864 14.0
109.948 11.0
110.032 13.0
110.115 12.0
110.199 10.0
110.283 14.0
110.366 9.0
110.45 8.0
110.534 14.0
110.618 12.0
110.701 9.0
110.785 6.0
110.869 18.0
110.952 8.0
111.036 21.0
111.12 7.0
111.203 11.0
111.287 11.0
111.371 6.0
111.455 7.0
111.538 12.0
111.622 11.0
111.706 8.0
111.789 14.0
111.873 11.0
111.957 12.0
112.041 14.0
112.124 12.0
112.208 8.0
112.292 6.0
112.375 7.0
112.459 10.0
112.543 12.0
112.626 17.0
112.71 6.0
112.794 16.0
112.878 18.0
112.961 5.0
113.045 9.0
113.129 11.0
113.212 12.0
113.296 11.0
113.38 12.0
113.464 15.0
113.547 9.0
113.631 10.0
113.715 6.0
113.798 16.0
113.882 8.0
113.966 13.0
114.049 8.0
114.133 10.0
114.217 11.0
114.301 7.0
114.384 10.0
114.468 12.0
114.552 11.0
114.635 10.0
114.719 10.0
114.803 16.0
114.887 7.0
114.97 8.0
115.054 11.0
115.138 5.0
115.221 12.0
115.305 15.0
115.389 16.0
115.472 16.0
115.556 16.0
115.64 11.0
115.724 11.0
115.807 17.0
115.891 14.0
115.975 12.0
116.058 16.0
116.142 25.0
116.226 13.0
116.31 16.0
116.393 11.0
116.477 12.0
116.561 14.0
116.644 9.0
116.728 21.0
116.812 12.0
116.895 11.0
116.979 9.0
117.063 8.0
117.147 9.0
117.23 17.0
117.314 15.0
117.398 13.0
117.481 18.0
117.565 13.0
117.649 11.0
117.733 15.0
117.816 14.0
117.9 12.0
117.984 13.0
118.067 9.0
118.151 10.0
118.235 22.0
118.318 18.0
118.402 19.0
118.486 18.0
118.57 2.0
118.653 15.0
118.737 14.0
118.821 15.0
118.904 8.0
118.988 16.0
119.072 13.0
119.156 13.0
119.239 9.0
119.323 12.0
119.407 11.0
119.49 12.0
119.574 14.0
119.658 14.0
119.741 8.0
119.825 16.0
119.909 14.0
119.993 13.0
120.076 14.0
120.16 7.0
120.244 11.0
120.327 13.0
120.411 12.0
120.495 9.0
120.578 20.0
120.662 11.0
120.746 11.0
120.83 12.0
120.913 8.0
120.997 13.0
121.081 6.0
121.164 16.0
121.248 11.0
121.332 9.0
121.416 12.0
121.499 9.0
121.583 12.0
121.667 11.0
121.75 15.0
121.834 10.0
121.918 8.0
122.001 13.0
122.085 9.0
122.169 14.0
122.253 14.0
122.336 13.0
122.42 9.0
122.504 13.0
122.587 14.0
122.671 17.0
122.755 16.0
122.839 11.0
122.922 17.0
123.006 14.0
123.09 10.0
123.173 11.0
123.257 7.0
123.341 12.0
123.424 12.0
123.508 15.0
123.592 14.0
123.676 16.0
123.759 7.0
123.843 14.0
123.927 11.0
124.01 19.0
124.094 12.0
124.178 13.0
124.262 11.0
124.345 12.0
124.429 12.0
124.513 10.0
124.596 9.0
124.68 13.0
124.764 13.0
124.847 14.0
124.931 10.0
125.015 14.0
125.099 12.0
125.182 19.0
125.266 12.0
125.35 16.0
125.433 8.0
125.517 19.0
125.601 16.0
125.685 12.0
125.768 11.0
125.852 10.0
125.936 15.0
126.019 11.0
126.103 16.0
126.187 12.0
126.27 10.0
126.354 15.0
126.438 8.0
126.522 9.0
126.605 8.0
126.689 14.0
126.773 14.0
126.856 10.0
126.94 13.0
127.024 12.0
127.108 14.0
127.191 15.0
127.275 11.0
127.359 11.0
127.442 12.0
127.526 13.0
127.61 11.0
127.693 18.0
127.777 11.0
127.861 12.0
127.945 11.0
128.028 10.0
128.112 10.0
128.196 12.0
128.279 15.0
128.363 13.0
128.447 22.0
128.531 11.0
128.614 14.0
128.698 12.0
128.782 9.0
128.865 15.0
128.949 15.0
129.033 16.0
129.116 10.0
129.2 14.0
129.284 15.0
129.368 10.0
129.451 15.0
129.535 9.0
129.619 7.0
129.702 17.0
129.786 14.0
129.87 7.0
129.954 10.0
129.998 7.0