File: data/w6929r/XRD_2ThetaOmega/scan_2th-om_r2_Cr2O3_45-55deg_PIXscan_5min_C2.xy
45.0025 67.0
45.0123 60.0
45.0222 45.0
45.032 47.0
45.0419 42.0
45.0517 81.0
45.0615 63.0
45.0714 62.0
45.0812 55.0
45.0911 51.0
45.1009 55.0
45.1108 60.0
45.1206 43.0
45.1305 51.0
45.1403 49.0
45.1502 51.0
45.16 70.0
45.1699 54.0
45.1797 49.0
45.1896 66.0
45.1994 42.0
45.2093 62.0
45.2191 49.0
45.229 44.0
45.2388 52.0
45.2487 52.0
45.2585 51.0
45.2684 66.0
45.2782 55.0
45.288 53.0
45.2979 43.0
45.3077 66.0
45.3176 59.0
45.3274 46.0
45.3373 38.0
45.3471 52.0
45.357 54.0
45.3668 54.0
45.3767 54.0
45.3865 50.0
45.3964 63.0
45.4062 50.0
45.4161 50.0
45.4259 53.0
45.4358 55.0
45.4456 57.0
45.4555 60.0
45.4653 57.0
45.4752 47.0
45.485 52.0
45.4948 51.0
45.5047 55.0
45.5145 42.0
45.5244 51.0
45.5342 55.0
45.5441 52.0
45.5539 31.0
45.5638 49.0
45.5736 60.0
45.5835 60.0
45.5933 49.0
45.6032 49.0
45.613 46.0
45.6229 54.0
45.6327 51.0
45.6426 55.0
45.6524 45.0
45.6623 49.0
45.6721 46.0
45.682 50.0
45.6918 54.0
45.7016 59.0
45.7115 52.0
45.7213 53.0
45.7312 56.0
45.741 45.0
45.7509 42.0
45.7607 43.0
45.7706 64.0
45.7804 42.0
45.7903 54.0
45.8001 46.0
45.81 37.0
45.8198 56.0
45.8297 44.0
45.8395 55.0
45.8494 38.0
45.8592 37.0
45.8691 51.0
45.8789 69.0
45.8888 62.0
45.8986 45.0
45.9085 57.0
45.9183 53.0
45.9281 52.0
45.938 45.0
45.9478 53.0
45.9577 44.0
45.9675 61.0
45.9774 48.0
45.9872 44.0
45.9971 51.0
46.0069 52.0
46.0168 42.0
46.0266 55.0
46.0365 48.0
46.0463 54.0
46.0562 60.0
46.066 59.0
46.0759 51.0
46.0857 49.0
46.0956 48.0
46.1054 59.0
46.1153 67.0
46.1251 51.0
46.1349 36.0
46.1448 46.0
46.1546 53.0
46.1645 51.0
46.1743 54.0
46.1842 54.0
46.194 47.0
46.2039 53.0
46.2137 51.0
46.2236 47.0
46.2334 56.0
46.2433 52.0
46.2531 58.0
46.263 48.0
46.2728 59.0
46.2827 43.0
46.2925 49.0
46.3024 53.0
46.3122 48.0
46.3221 43.0
46.3319 55.0
46.3418 47.0
46.3516 44.0
46.3614 47.0
46.3713 40.0
46.3811 64.0
46.391 64.0
46.4008 43.0
46.4107 53.0
46.4205 60.0
46.4304 55.0
46.4402 57.0
46.4501 58.0
46.4599 46.0
46.4698 45.0
46.4796 52.0
46.4895 48.0
46.4993 42.0
46.5092 60.0
46.519 50.0
46.5289 50.0
46.5387 52.0
46.5486 56.0
46.5584 68.0
46.5682 42.0
46.5781 60.0
46.5879 66.0
46.5978 59.0
46.6076 57.0
46.6175 43.0
46.6273 51.0
46.6372 60.0
46.647 58.0
46.6569 69.0
46.6667 55.0
46.6766 65.0
46.6864 50.0
46.6963 53.0
46.7061 68.0
46.716 66.0
46.7258 65.0
46.7357 64.0
46.7455 52.0
46.7554 80.0
46.7652 62.0
46.7751 56.0
46.7849 63.0
46.7947 50.0
46.8046 63.0
46.8144 69.0
46.8243 71.0
46.8341 49.0
46.844 49.0
46.8538 59.0
46.8637 42.0
46.8735 48.0
46.8834 57.0
46.8932 61.0
46.9031 62.0
46.9129 60.0
46.9228 62.0
46.9326 48.0
46.9425 64.0
46.9523 71.0
46.9622 53.0
46.972 61.0
46.9819 69.0
46.9917 69.0
47.0015 80.0
47.0114 74.0
47.0212 72.0
47.0311 83.0
47.0409 104.0
47.0508 112.0
47.0606 130.0
47.0705 170.0
47.0803 296.0
47.0902 465.0
47.1 674.0
47.1099 931.0
47.1197 1036.0
47.1296 822.0
47.1394 655.0
47.1493 411.0
47.1591 335.0
47.169 279.0
47.1788 215.0
47.1887 216.0
47.1985 196.0
47.2083 165.0
47.2182 121.0
47.228 100.0
47.2379 93.0
47.2477 86.0
47.2576 63.0
47.2674 70.0
47.2773 84.0
47.2871 84.0
47.297 82.0
47.3068 79.0
47.3167 84.0
47.3265 64.0
47.3364 72.0
47.3462 46.0
47.3561 66.0
47.3659 69.0
47.3758 75.0
47.3856 52.0
47.3955 77.0
47.4053 71.0
47.4152 61.0
47.425 65.0
47.4348 71.0
47.4447 51.0
47.4545 66.0
47.4644 61.0
47.4742 70.0
47.4841 53.0
47.4939 61.0
47.5038 67.0
47.5136 53.0
47.5235 70.0
47.5333 61.0
47.5432 74.0
47.553 69.0
47.5629 74.0
47.5727 68.0
47.5826 65.0
47.5924 58.0
47.6023 51.0
47.6121 54.0
47.622 66.0
47.6318 50.0
47.6416 67.0
47.6515 63.0
47.6613 70.0
47.6712 76.0
47.681 49.0
47.6909 68.0
47.7007 68.0
47.7106 55.0
47.7204 60.0
47.7303 78.0
47.7401 60.0
47.75 58.0
47.7598 70.0
47.7697 70.0
47.7795 64.0
47.7894 59.0
47.7992 66.0
47.8091 75.0
47.8189 53.0
47.8288 55.0
47.8386 56.0
47.8485 56.0
47.8583 68.0
47.8681 63.0
47.878 74.0
47.8878 41.0
47.8977 55.0
47.9075 62.0
47.9174 70.0
47.9272 72.0
47.9371 72.0
47.9469 53.0
47.9568 58.0
47.9666 54.0
47.9765 66.0
47.9863 59.0
47.9962 57.0
48.006 60.0
48.0159 56.0
48.0257 68.0
48.0356 64.0
48.0454 62.0
48.0553 53.0
48.0651 71.0
48.0749 66.0
48.0848 60.0
48.0946 59.0
48.1045 59.0
48.1143 58.0
48.1242 65.0
48.134 66.0
48.1439 62.0
48.1537 68.0
48.1636 67.0
48.1734 56.0
48.1833 68.0
48.1931 67.0
48.203 69.0
48.2128 51.0
48.2227 55.0
48.2325 74.0
48.2424 75.0
48.2522 79.0
48.2621 56.0
48.2719 55.0
48.2818 78.0
48.2916 55.0
48.3014 60.0
48.3113 69.0
48.3211 66.0
48.331 66.0
48.3408 59.0
48.3507 67.0
48.3605 57.0
48.3704 63.0
48.3802 67.0
48.3901 55.0
48.3999 64.0
48.4098 58.0
48.4196 47.0
48.4295 70.0
48.4393 66.0
48.4492 75.0
48.459 73.0
48.4689 56.0
48.4787 59.0
48.4886 64.0
48.4984 56.0
48.5082 58.0
48.5181 56.0
48.5279 64.0
48.5378 73.0
48.5476 63.0
48.5575 71.0
48.5673 50.0
48.5772 62.0
48.587 66.0
48.5969 53.0
48.6067 53.0
48.6166 69.0
48.6264 66.0
48.6363 66.0
48.6461 73.0
48.656 74.0
48.6658 68.0
48.6757 70.0
48.6855 63.0
48.6954 71.0
48.7052 58.0
48.715 56.0
48.7249 58.0
48.7347 57.0
48.7446 66.0
48.7544 64.0
48.7643 62.0
48.7741 80.0
48.784 67.0
48.7938 65.0
48.8037 60.0
48.8135 66.0
48.8234 70.0
48.8332 54.0
48.8431 68.0
48.8529 72.0
48.8628 70.0
48.8726 63.0
48.8825 68.0
48.8923 71.0
48.9022 66.0
48.912 76.0
48.9219 71.0
48.9317 60.0
48.9415 65.0
48.9514 73.0
48.9612 78.0
48.9711 94.0
48.9809 65.0
48.9908 84.0
49.0006 76.0
49.0105 73.0
49.0203 88.0
49.0302 79.0
49.04 74.0
49.0499 78.0
49.0597 65.0
49.0696 79.0
49.0794 79.0
49.0893 75.0
49.0991 86.0
49.109 70.0
49.1188 73.0
49.1287 83.0
49.1385 85.0
49.1483 81.0
49.1582 67.0
49.168 82.0
49.1779 90.0
49.1877 75.0
49.1976 92.0
49.2074 94.0
49.2173 81.0
49.2271 87.0
49.237 87.0
49.2468 99.0
49.2567 101.0
49.2665 89.0
49.2764 88.0
49.2862 84.0
49.2961 86.0
49.3059 94.0
49.3158 107.0
49.3256 113.0
49.3355 104.0
49.3453 109.0
49.3552 103.0
49.365 111.0
49.3748 116.0
49.3847 116.0
49.3945 104.0
49.4044 102.0
49.4142 93.0
49.4241 103.0
49.4339 131.0
49.4438 123.0
49.4536 122.0
49.4635 126.0
49.4733 122.0
49.4832 152.0
49.493 150.0
49.5029 135.0
49.5127 162.0
49.5226 130.0
49.5324 166.0
49.5423 161.0
49.5521 147.0
49.562 169.0
49.5718 178.0
49.5816 189.0
49.5915 169.0
49.6013 161.0
49.6112 187.0
49.621 195.0
49.6309 186.0
49.6407 249.0
49.6506 235.0
49.6604 255.0
49.6703 235.0
49.6801 292.0
49.69 241.0
49.6998 279.0
49.7097 280.0
49.7195 313.0
49.7294 340.0
49.7392 329.0
49.7491 395.0
49.7589 368.0
49.7688 391.0
49.7786 416.0
49.7884 491.0
49.7983 455.0
49.8081 517.0
49.818 530.0
49.8278 557.0
49.8377 635.0
49.8475 641.0
49.8574 698.0
49.8672 696.0
49.8771 757.0
49.8869 795.0
49.8968 876.0
49.9066 1015.0
49.9165 1017.0
49.9263 1091.0
49.9362 1232.0
49.946 1300.0
49.9559 1398.0
49.9657 1542.0
49.9756 1499.0
49.9854 1662.0
49.9953 1773.0
50.0051 1827.0
50.0149 1795.0
50.0248 1904.0
50.0346 2047.0
50.0445 1924.0
50.0543 1958.0
50.0642 1995.0
50.074 2130.0
50.0839 2028.0
50.0937 1993.0
50.1036 2038.0
50.1134 1860.0
50.1233 1909.0
50.1331 1819.0
50.143 1858.0
50.1528 1810.0
50.1627 1716.0
50.1725 1665.0
50.1824 1575.0
50.1922 1520.0
50.2021 1477.0
50.2119 1355.0
50.2217 1351.0
50.2316 1261.0
50.2414 1113.0
50.2513 1090.0
50.2611 1078.0
50.271 911.0
50.2808 896.0
50.2907 807.0
50.3005 776.0
50.3104 682.0
50.3202 675.0
50.3301 681.0
50.3399 594.0
50.3498 537.0
50.3596 480.0
50.3695 494.0
50.3793 478.0
50.3892 424.0
50.399 400.0
50.4089 393.0
50.4187 339.0
50.4286 332.0
50.4384 318.0
50.4482 303.0
50.4581 315.0
50.4679 282.0
50.4778 287.0
50.4876 263.0
50.4975 242.0
50.5073 231.0
50.5172 266.0
50.527 199.0
50.5369 217.0
50.5467 228.0
50.5566 186.0
50.5664 200.0
50.5763 191.0
50.5861 204.0
50.596 169.0
50.6058 188.0
50.6157 165.0
50.6255 153.0
50.6354 157.0
50.6452 132.0
50.655 142.0
50.6649 147.0
50.6747 147.0
50.6846 157.0
50.6944 146.0
50.7043 149.0
50.7141 151.0
50.724 155.0
50.7338 150.0
50.7437 142.0
50.7535 116.0
50.7634 136.0
50.7732 140.0
50.7831 131.0
50.7929 120.0
50.8028 115.0
50.8126 117.0
50.8225 132.0
50.8323 129.0
50.8422 118.0
50.852 135.0
50.8619 123.0
50.8717 145.0
50.8815 120.0
50.8914 117.0
50.9012 129.0
50.9111 128.0
50.9209 128.0
50.9308 105.0
50.9406 118.0
50.9505 124.0
50.9603 136.0
50.9702 133.0
50.98 115.0
50.9899 119.0
50.9997 135.0
51.0096 115.0
51.0194 139.0
51.0293 111.0
51.0391 137.0
51.049 124.0
51.0588 127.0
51.0687 127.0
51.0785 137.0
51.0883 118.0
51.0982 124.0
51.108 136.0
51.1179 116.0
51.1277 143.0
51.1376 147.0
51.1474 129.0
51.1573 144.0
51.1671 129.0
51.177 134.0
51.1868 136.0
51.1967 128.0
51.2065 141.0
51.2164 158.0
51.2262 149.0
51.2361 127.0
51.2459 157.0
51.2558 148.0
51.2656 168.0
51.2755 160.0
51.2853 180.0
51.2951 142.0
51.305 164.0
51.3148 183.0
51.3247 149.0
51.3345 157.0
51.3444 161.0
51.3542 157.0
51.3641 172.0
51.3739 170.0
51.3838 141.0
51.3936 160.0
51.4035 190.0
51.4133 190.0
51.4232 155.0
51.433 190.0
51.4429 186.0
51.4527 187.0
51.4626 193.0
51.4724 184.0
51.4823 210.0
51.4921 186.0
51.502 185.0
51.5118 210.0
51.5216 205.0
51.5315 206.0
51.5413 189.0
51.5512 194.0
51.561 217.0
51.5709 201.0
51.5807 205.0
51.5906 282.0
51.6004 205.0
51.6103 266.0
51.6201 208.0
51.63 255.0
51.6398 267.0
51.6497 262.0
51.6595 285.0
51.6694 266.0
51.6792 282.0
51.6891 267.0
51.6989 282.0
51.7088 299.0
51.7186 318.0
51.7284 282.0
51.7383 312.0
51.7481 290.0
51.758 258.0
51.7678 302.0
51.7777 312.0
51.7875 316.0
51.7974 337.0
51.8072 302.0
51.8171 329.0
51.8269 344.0
51.8368 352.0
51.8466 352.0
51.8565 357.0
51.8663 337.0
51.8762 336.0
51.886 346.0
51.8959 351.0
51.9057 359.0
51.9156 378.0
51.9254 363.0
51.9353 392.0
51.9451 396.0
51.9549 407.0
51.9648 393.0
51.9746 407.0
51.9845 450.0
51.9943 439.0
52.0042 452.0
52.014 466.0
52.0239 499.0
52.0337 489.0
52.0436 511.0
52.0534 507.0
52.0633 558.0
52.0731 577.0
52.083 549.0
52.0928 576.0
52.1027 594.0
52.1125 605.0
52.1224 638.0
52.1322 695.0
52.1421 703.0
52.1519 784.0
52.1617 782.0
52.1716 816.0
52.1814 923.0
52.1913 934.0
52.2011 1116.0
52.211 1291.0
52.2208 1427.0
52.2307 1651.0
52.2405 1913.0
52.2504 2012.0
52.2602 2189.0
52.2701 2334.0
52.2799 2404.0
52.2898 2447.0
52.2996 2382.0
52.3095 2292.0
52.3193 2226.0
52.3292 2209.0
52.339 2301.0
52.3489 2360.0
52.3587 2520.0
52.3686 2731.0
52.3784 3070.0
52.3882 3581.0
52.3981 4030.0
52.4079 4844.0
52.4178 5995.0
52.4276 7560.0
52.4375 9612.0
52.4473 12841.0
52.4572 18550.0
52.467 29554.0
52.4769 54992.0
52.4867 121647.0
52.4966 233483.0
52.5064 285784.0
52.5163 256787.0
52.5261 159703.0
52.536 80491.0
52.5458 43806.0
52.5557 25744.0
52.5655 17669.0
52.5754 14196.0
52.5852 12979.0
52.595 14108.0
52.6049 18460.0
52.6147 28992.0
52.6246 55318.0
52.6344 102519.0
52.6443 137482.0
52.6541 134126.0
52.664 95708.0
52.6738 53540.0
52.6837 28361.0
52.6935 16511.0
52.7034 10658.0
52.7132 7608.0
52.7231 5683.0
52.7329 4570.0
52.7428 3818.0
52.7526 3387.0
52.7625 3047.0
52.7723 2545.0
52.7822 2332.0
52.792 2239.0
52.8018 1949.0
52.8117 1813.0
52.8215 1680.0
52.8314 1536.0
52.8412 1396.0
52.8511 1377.0
52.8609 1252.0
52.8708 1183.0
52.8806 1124.0
52.8905 1103.0
52.9003 993.0
52.9102 971.0
52.92 927.0
52.9299 916.0
52.9397 889.0
52.9496 830.0
52.9594 783.0
52.9693 761.0
52.9791 733.0
52.989 667.0
52.9988 671.0
53.0087 597.0
53.0185 575.0
53.0283 571.0
53.0382 568.0
53.048 562.0
53.0579 545.0
53.0677 544.0
53.0776 493.0
53.0874 457.0
53.0973 487.0
53.1071 449.0
53.117 430.0
53.1268 462.0
53.1367 410.0
53.1465 442.0
53.1564 413.0
53.1662 412.0
53.1761 385.0
53.1859 389.0
53.1958 370.0
53.2056 319.0
53.2155 352.0
53.2253 336.0
53.2351 311.0
53.245 356.0
53.2548 316.0
53.2647 324.0
53.2745 292.0
53.2844 296.0
53.2942 300.0
53.3041 297.0
53.3139 280.0
53.3238 291.0
53.3336 271.0
53.3435 274.0
53.3533 195.0
53.3632 256.0
53.373 257.0
53.3829 212.0
53.3927 275.0
53.4026 205.0
53.4124 180.0
53.4223 205.0
53.4321 203.0
53.442 194.0
53.4518 201.0
53.4616 201.0
53.4715 171.0
53.4813 178.0
53.4912 170.0
53.501 153.0
53.5109 167.0
53.5207 171.0
53.5306 179.0
53.5404 159.0
53.5503 173.0
53.5601 144.0
53.57 146.0
53.5798 165.0
53.5897 130.0
53.5995 153.0
53.6094 132.0
53.6192 121.0
53.6291 129.0
53.6389 139.0
53.6488 148.0
53.6586 141.0
53.6684 144.0
53.6783 130.0
53.6881 136.0
53.698 129.0
53.7078 133.0
53.7177 136.0
53.7275 120.0
53.7374 105.0
53.7472 87.0
53.7571 119.0
53.7669 104.0
53.7768 107.0
53.7866 117.0
53.7965 109.0
53.8063 118.0
53.8162 100.0
53.826 112.0
53.8359 92.0
53.8457 105.0
53.8556 100.0
53.8654 99.0
53.8753 97.0
53.8851 103.0
53.8949 106.0
53.9048 85.0
53.9146 102.0
53.9245 96.0
53.9343 77.0
53.9442 94.0
53.954 77.0
53.9639 94.0
53.9737 100.0
53.9836 86.0
53.9934 92.0
54.0033 91.0
54.0131 92.0
54.023 92.0
54.0328 89.0
54.0427 87.0
54.0525 93.0
54.0624 89.0
54.0722 101.0
54.0821 90.0
54.0919 75.0
54.1017 85.0
54.1116 84.0
54.1214 85.0
54.1313 92.0
54.1411 79.0
54.151 103.0
54.1608 86.0
54.1707 77.0
54.1805 79.0
54.1904 71.0
54.2002 85.0
54.2101 70.0
54.2199 81.0
54.2298 67.0
54.2396 87.0
54.2495 74.0
54.2593 69.0
54.2692 78.0
54.279 95.0
54.2889 66.0
54.2987 62.0
54.3085 83.0
54.3184 89.0
54.3282 91.0
54.3381 84.0
54.3479 82.0
54.3578 88.0
54.3676 62.0
54.3775 77.0
54.3873 76.0
54.3972 91.0
54.407 76.0
54.4169 61.0
54.4267 79.0
54.4366 77.0
54.4464 83.0
54.4563 85.0
54.4661 84.0
54.476 58.0
54.4858 71.0
54.4957 69.0
54.5055 71.0
54.5154 82.0
54.5252 77.0
54.535 80.0
54.5449 71.0
54.5547 70.0
54.5646 78.0
54.5744 72.0
54.5843 68.0
54.5941 73.0
54.604 75.0
54.6138 58.0
54.6237 69.0
54.6335 84.0
54.6434 57.0
54.6532 64.0
54.6631 71.0
54.6729 71.0
54.6828 70.0
54.6926 75.0
54.7025 87.0
54.7123 65.0
54.7222 76.0
54.732 88.0
54.7418 58.0
54.7517 74.0
54.7615 80.0
54.7714 74.0
54.7812 64.0
54.7911 68.0
54.8009 68.0
54.8108 73.0
54.8206 67.0
54.8305 55.0
54.8403 63.0
54.8502 76.0
54.86 63.0
54.8699 95.0
54.8797 86.0
54.8896 70.0
54.8994 72.0
54.9093 67.0
54.9191 74.0
54.929 52.0
54.9388 59.0
54.9487 60.0
54.9585 60.0
54.9683 71.0
54.9782 52.0
54.988 61.0
54.9979 57.0