File: data/W6775m/XRD_2ThetaOmega/W6775m_absolute_2th-om_10-130deg_PIXscan_17min_3.xy
10.0035 27.0
10.0872 16.0
10.1709 18.0
10.2546 19.0
10.3383 29.0
10.422 26.0
10.5057 22.0
10.5894 22.0
10.6731 27.0
10.7568 22.0
10.8405 23.0
10.9242 23.0
11.0079 28.0
11.0916 33.0
11.1753 22.0
11.259 21.0
11.3428 27.0
11.4265 25.0
11.5102 21.0
11.5939 16.0
11.6776 23.0
11.7613 34.0
11.845 23.0
11.9287 36.0
12.0124 15.0
12.0961 18.0
12.1798 22.0
12.2635 24.0
12.3472 26.0
12.4309 20.0
12.5146 30.0
12.5983 26.0
12.682 24.0
12.7657 29.0
12.8495 24.0
12.9332 19.0
13.0169 19.0
13.1006 26.0
13.1843 19.0
13.268 22.0
13.3517 23.0
13.4354 15.0
13.5191 18.0
13.6028 15.0
13.6865 26.0
13.7702 13.0
13.8539 19.0
13.9376 25.0
14.0213 28.0
14.105 20.0
14.1887 19.0
14.2724 19.0
14.3562 22.0
14.4399 24.0
14.5236 18.0
14.6073 28.0
14.691 16.0
14.7747 22.0
14.8584 22.0
14.9421 16.0
15.0258 24.0
15.1095 27.0
15.1932 23.0
15.2769 21.0
15.3606 18.0
15.4443 28.0
15.528 19.0
15.6117 25.0
15.6954 26.0
15.7791 21.0
15.8629 22.0
15.9466 24.0
16.0303 14.0
16.114 18.0
16.1977 20.0
16.2814 24.0
16.3651 29.0
16.4488 14.0
16.5325 27.0
16.6162 18.0
16.6999 23.0
16.7836 23.0
16.8673 15.0
16.951 30.0
17.0347 28.0
17.1184 12.0
17.2021 21.0
17.2858 24.0
17.3696 20.0
17.4533 23.0
17.537 25.0
17.6207 22.0
17.7044 22.0
17.7881 18.0
17.8718 18.0
17.9555 24.0
18.0392 20.0
18.1229 21.0
18.2066 20.0
18.2903 21.0
18.374 25.0
18.4577 23.0
18.5414 19.0
18.6251 33.0
18.7088 12.0
18.7925 25.0
18.8763 28.0
18.96 13.0
19.0437 24.0
19.1274 12.0
19.2111 22.0
19.2948 29.0
19.3785 16.0
19.4622 9.0
19.5459 18.0
19.6296 13.0
19.7133 13.0
19.797 18.0
19.8807 20.0
19.9644 16.0
20.0481 19.0
20.1318 13.0
20.2155 21.0
20.2992 26.0
20.383 17.0
20.4667 22.0
20.5504 22.0
20.6341 12.0
20.7178 20.0
20.8015 15.0
20.8852 14.0
20.9689 16.0
21.0526 14.0
21.1363 23.0
21.22 9.0
21.3037 16.0
21.3874 20.0
21.4711 14.0
21.5548 20.0
21.6385 23.0
21.7222 19.0
21.8059 13.0
21.8897 12.0
21.9734 19.0
22.0571 15.0
22.1408 18.0
22.2245 21.0
22.3082 8.0
22.3919 14.0
22.4756 10.0
22.5593 23.0
22.643 10.0
22.7267 24.0
22.8104 20.0
22.8941 15.0
22.9778 16.0
23.0615 14.0
23.1452 17.0
23.2289 12.0
23.3126 14.0
23.3964 20.0
23.4801 20.0
23.5638 13.0
23.6475 18.0
23.7312 15.0
23.8149 12.0
23.8986 14.0
23.9823 19.0
24.066 16.0
24.1497 11.0
24.2334 13.0
24.3171 21.0
24.4008 14.0
24.4845 18.0
24.5682 23.0
24.6519 13.0
24.7356 18.0
24.8193 19.0
24.9031 13.0
24.9868 14.0
25.0705 13.0
25.1542 12.0
25.2379 14.0
25.3216 19.0
25.4053 12.0
25.489 11.0
25.5727 18.0
25.6564 15.0
25.7401 14.0
25.8238 9.0
25.9075 10.0
25.9912 9.0
26.0749 13.0
26.1586 10.0
26.2423 9.0
26.326 17.0
26.4098 17.0
26.4935 13.0
26.5772 18.0
26.6609 15.0
26.7446 15.0
26.8283 23.0
26.912 12.0
26.9957 7.0
27.0794 17.0
27.1631 9.0
27.2468 20.0
27.3305 9.0
27.4142 7.0
27.4979 11.0
27.5816 12.0
27.6653 14.0
27.749 19.0
27.8327 8.0
27.9165 12.0
28.0002 17.0
28.0839 8.0
28.1676 21.0
28.2513 11.0
28.335 9.0
28.4187 15.0
28.5024 16.0
28.5861 7.0
28.6698 10.0
28.7535 10.0
28.8372 15.0
28.9209 11.0
29.0046 10.0
29.0883 18.0
29.172 9.0
29.2557 10.0
29.3394 10.0
29.4232 16.0
29.5069 14.0
29.5906 9.0
29.6743 15.0
29.758 14.0
29.8417 6.0
29.9254 12.0
30.0091 14.0
30.0928 15.0
30.1765 13.0
30.2602 14.0
30.3439 8.0
30.4276 7.0
30.5113 15.0
30.595 15.0
30.6787 13.0
30.7624 14.0
30.8461 14.0
30.9298 13.0
31.0136 20.0
31.0973 14.0
31.181 16.0
31.2647 15.0
31.3484 11.0
31.4321 17.0
31.5158 12.0
31.5995 10.0
31.6832 10.0
31.7669 13.0
31.8506 17.0
31.9343 11.0
32.018 18.0
32.1017 9.0
32.1854 20.0
32.2691 5.0
32.3528 13.0
32.4365 19.0
32.5203 20.0
32.604 13.0
32.6877 14.0
32.7714 11.0
32.8551 21.0
32.9388 21.0
33.0225 11.0
33.1062 20.0
33.1899 11.0
33.2736 11.0
33.3573 16.0
33.441 21.0
33.5247 14.0
33.6084 18.0
33.6921 10.0
33.7758 17.0
33.8595 15.0
33.9432 19.0
34.027 17.0
34.1107 13.0
34.1944 14.0
34.2781 16.0
34.3618 16.0
34.4455 16.0
34.5292 13.0
34.6129 11.0
34.6966 15.0
34.7803 18.0
34.864 13.0
34.9477 14.0
35.0314 17.0
35.1151 12.0
35.1988 21.0
35.2825 6.0
35.3662 27.0
35.4499 10.0
35.5337 8.0
35.6174 8.0
35.7011 5.0
35.7848 18.0
35.8685 12.0
35.9522 12.0
36.0359 12.0
36.1196 11.0
36.2033 12.0
36.287 14.0
36.3707 14.0
36.4544 12.0
36.5381 10.0
36.6218 20.0
36.7055 19.0
36.7892 11.0
36.8729 14.0
36.9566 15.0
37.0404 11.0
37.1241 17.0
37.2078 16.0
37.2915 11.0
37.3752 14.0
37.4589 15.0
37.5426 13.0
37.6263 21.0
37.71 20.0
37.7937 15.0
37.8774 11.0
37.9611 13.0
38.0448 22.0
38.1285 22.0
38.2122 18.0
38.2959 19.0
38.3796 14.0
38.4633 22.0
38.5471 10.0
38.6308 9.0
38.7145 14.0
38.7982 10.0
38.8819 23.0
38.9656 13.0
39.0493 11.0
39.133 13.0
39.2167 18.0
39.3004 9.0
39.3841 13.0
39.4678 10.0
39.5515 14.0
39.6352 13.0
39.7189 10.0
39.8026 9.0
39.8863 6.0
39.97 16.0
40.0538 12.0
40.1375 13.0
40.2212 9.0
40.3049 12.0
40.3886 13.0
40.4723 14.0
40.556 10.0
40.6397 13.0
40.7234 16.0
40.8071 9.0
40.8908 11.0
40.9745 12.0
41.0582 11.0
41.1419 13.0
41.2256 14.0
41.3093 8.0
41.393 9.0
41.4767 11.0
41.5605 10.0
41.6442 18.0
41.7279 16.0
41.8116 14.0
41.8953 9.0
41.979 10.0
42.0627 17.0
42.1464 12.0
42.2301 14.0
42.3138 9.0
42.3975 8.0
42.4812 28.0
42.5649 20.0
42.6486 12.0
42.7323 15.0
42.816 13.0
42.8997 15.0
42.9834 17.0
43.0672 13.0
43.1509 15.0
43.2346 11.0
43.3183 8.0
43.402 11.0
43.4857 15.0
43.5694 14.0
43.6531 11.0
43.7368 10.0
43.8205 13.0
43.9042 17.0
43.9879 16.0
44.0716 6.0
44.1553 15.0
44.239 27.0
44.3227 19.0
44.4064 26.0
44.4901 30.0
44.5739 17.0
44.6576 18.0
44.7413 22.0
44.825 16.0
44.9087 19.0
44.9924 18.0
45.0761 12.0
45.1598 15.0
45.2435 12.0
45.3272 13.0
45.4109 18.0
45.4946 16.0
45.5783 5.0
45.662 14.0
45.7457 14.0
45.8294 17.0
45.9131 12.0
45.9968 9.0
46.0806 9.0
46.1643 13.0
46.248 13.0
46.3317 16.0
46.4154 10.0
46.4991 18.0
46.5828 11.0
46.6665 13.0
46.7502 16.0
46.8339 15.0
46.9176 11.0
47.0013 12.0
47.085 11.0
47.1687 6.0
47.2524 13.0
47.3361 10.0
47.4198 14.0
47.5035 10.0
47.5873 12.0
47.671 15.0
47.7547 10.0
47.8384 11.0
47.9221 17.0
48.0058 13.0
48.0895 8.0
48.1732 9.0
48.2569 13.0
48.3406 8.0
48.4243 9.0
48.508 14.0
48.5917 13.0
48.6754 9.0
48.7591 10.0
48.8428 17.0
48.9265 9.0
49.0102 13.0
49.094 13.0
49.1777 11.0
49.2614 9.0
49.3451 14.0
49.4288 13.0
49.5125 12.0
49.5962 12.0
49.6799 9.0
49.7636 11.0
49.8473 18.0
49.931 15.0
50.0147 15.0
50.0984 15.0
50.1821 7.0
50.2658 18.0
50.3495 12.0
50.4332 8.0
50.5169 8.0
50.6007 9.0
50.6844 13.0
50.7681 15.0
50.8518 12.0
50.9355 5.0
51.0192 9.0
51.1029 12.0
51.1866 7.0
51.2703 18.0
51.354 17.0
51.4377 13.0
51.5214 7.0
51.6051 18.0
51.6888 13.0
51.7725 19.0
51.8562 10.0
51.9399 13.0
52.0236 10.0
52.1074 18.0
52.1911 11.0
52.2748 15.0
52.3585 10.0
52.4422 15.0
52.5259 18.0
52.6096 17.0
52.6933 10.0
52.777 9.0
52.8607 13.0
52.9444 10.0
53.0281 16.0
53.1118 14.0
53.1955 8.0
53.2792 12.0
53.3629 14.0
53.4466 15.0
53.5303 14.0
53.6141 6.0
53.6978 16.0
53.7815 15.0
53.8652 13.0
53.9489 12.0
54.0326 14.0
54.1163 19.0
54.2 15.0
54.2837 16.0
54.3674 3.0
54.4511 15.0
54.5348 10.0
54.6185 12.0
54.7022 13.0
54.7859 20.0
54.8696 14.0
54.9533 11.0
55.037 10.0
55.1208 13.0
55.2045 7.0
55.2882 10.0
55.3719 16.0
55.4556 12.0
55.5393 13.0
55.623 12.0
55.7067 13.0
55.7904 11.0
55.8741 17.0
55.9578 10.0
56.0415 21.0
56.1252 20.0
56.2089 15.0
56.2926 22.0
56.3763 13.0
56.46 16.0
56.5437 6.0
56.6275 19.0
56.7112 9.0
56.7949 8.0
56.8786 10.0
56.9623 16.0
57.046 8.0
57.1297 16.0
57.2134 13.0
57.2971 13.0
57.3808 10.0
57.4645 14.0
57.5482 12.0
57.6319 15.0
57.7156 12.0
57.7993 8.0
57.883 13.0
57.9667 9.0
58.0504 4.0
58.1342 10.0
58.2179 12.0
58.3016 10.0
58.3853 11.0
58.469 7.0
58.5527 17.0
58.6364 17.0
58.7201 8.0
58.8038 5.0
58.8875 10.0
58.9712 11.0
59.0549 15.0
59.1386 9.0
59.2223 13.0
59.306 9.0
59.3897 10.0
59.4734 20.0
59.5571 8.0
59.6409 12.0
59.7246 11.0
59.8083 9.0
59.892 24.0
59.9757 12.0
60.0594 9.0
60.1431 14.0
60.2268 13.0
60.3105 19.0
60.3942 15.0
60.4779 15.0
60.5616 8.0
60.6453 12.0
60.729 11.0
60.8127 13.0
60.8964 12.0
60.9801 12.0
61.0638 11.0
61.1476 17.0
61.2313 14.0
61.315 13.0
61.3987 7.0
61.4824 12.0
61.5661 10.0
61.6498 16.0
61.7335 15.0
61.8172 13.0
61.9009 12.0
61.9846 18.0
62.0683 19.0
62.152 15.0
62.2357 10.0
62.3194 14.0
62.4031 18.0
62.4868 14.0
62.5705 15.0
62.6543 16.0
62.738 16.0
62.8217 17.0
62.9054 15.0
62.9891 16.0
63.0728 13.0
63.1565 17.0
63.2402 11.0
63.3239 14.0
63.4076 13.0
63.4913 17.0
63.575 20.0
63.6587 14.0
63.7424 18.0
63.8261 11.0
63.9098 26.0
63.9935 12.0
64.0772 18.0
64.161 15.0
64.2447 22.0
64.3284 23.0
64.4121 24.0
64.4958 23.0
64.5795 25.0
64.6632 24.0
64.7469 37.0
64.8306 25.0
64.9143 22.0
64.998 24.0
65.0817 23.0
65.1654 22.0
65.2491 16.0
65.3328 13.0
65.4165 18.0
65.5002 21.0
65.5839 17.0
65.6677 19.0
65.7514 21.0
65.8351 19.0
65.9188 18.0
66.0025 15.0
66.0862 9.0
66.1699 19.0
66.2536 20.0
66.3373 13.0
66.421 18.0
66.5047 15.0
66.5884 16.0
66.6721 20.0
66.7558 18.0
66.8395 12.0
66.9232 10.0
67.0069 22.0
67.0906 12.0
67.1744 33.0
67.2581 13.0
67.3418 20.0
67.4255 22.0
67.5092 22.0
67.5929 10.0
67.6766 20.0
67.7603 27.0
67.844 32.0
67.9277 17.0
68.0114 29.0
68.0951 21.0
68.1788 26.0
68.2625 28.0
68.3462 24.0
68.4299 35.0
68.5136 24.0
68.5973 31.0
68.6811 18.0
68.7648 19.0
68.8485 24.0
68.9322 26.0
69.0159 14.0
69.0996 26.0
69.1833 18.0
69.267 15.0
69.3507 17.0
69.4344 18.0
69.5181 17.0
69.6018 18.0
69.6855 22.0
69.7692 17.0
69.8529 22.0
69.9366 16.0
70.0203 15.0
70.104 13.0
70.1878 18.0
70.2715 12.0
70.3552 8.0
70.4389 19.0
70.5226 15.0
70.6063 14.0
70.69 8.0
70.7737 13.0
70.8574 16.0
70.9411 16.0
71.0248 13.0
71.1085 16.0
71.1922 10.0
71.2759 14.0
71.3596 11.0
71.4433 12.0
71.527 12.0
71.6107 14.0
71.6945 11.0
71.7782 17.0
71.8619 14.0
71.9456 17.0
72.0293 17.0
72.113 10.0
72.1967 11.0
72.2804 10.0
72.3641 19.0
72.4478 8.0
72.5315 18.0
72.6152 20.0
72.6989 15.0
72.7826 12.0
72.8663 15.0
72.95 9.0
73.0337 15.0
73.1174 10.0
73.2012 4.0
73.2849 10.0
73.3686 13.0
73.4523 15.0
73.536 17.0
73.6197 12.0
73.7034 11.0
73.7871 13.0
73.8708 12.0
73.9545 9.0
74.0382 13.0
74.1219 14.0
74.2056 11.0
74.2893 21.0
74.373 17.0
74.4567 20.0
74.5404 12.0
74.6241 14.0
74.7079 9.0
74.7916 8.0
74.8753 9.0
74.959 10.0
75.0427 11.0
75.1264 16.0
75.2101 16.0
75.2938 12.0
75.3775 15.0
75.4612 7.0
75.5449 16.0
75.6286 12.0
75.7123 10.0
75.796 17.0
75.8797 12.0
75.9634 11.0
76.0471 11.0
76.1308 14.0
76.2146 14.0
76.2983 12.0
76.382 13.0
76.4657 13.0
76.5494 11.0
76.6331 13.0
76.7168 14.0
76.8005 11.0
76.8842 16.0
76.9679 15.0
77.0516 13.0
77.1353 13.0
77.219 13.0
77.3027 11.0
77.3864 15.0
77.4701 11.0
77.5538 14.0
77.6375 9.0
77.7213 14.0
77.805 15.0
77.8887 15.0
77.9724 10.0
78.0561 16.0
78.1398 15.0
78.2235 11.0
78.3072 12.0
78.3909 15.0
78.4746 10.0
78.5583 11.0
78.642 14.0
78.7257 12.0
78.8094 17.0
78.8931 14.0
78.9768 14.0
79.0605 8.0
79.1442 19.0
79.228 12.0
79.3117 15.0
79.3954 12.0
79.4791 10.0
79.5628 8.0
79.6465 16.0
79.7302 10.0
79.8139 11.0
79.8976 12.0
79.9813 17.0
80.065 9.0
80.1487 12.0
80.2324 13.0
80.3161 16.0
80.3998 12.0
80.4835 20.0
80.5672 12.0
80.6509 15.0
80.7347 12.0
80.8184 14.0
80.9021 11.0
80.9858 13.0
81.0695 13.0
81.1532 15.0
81.2369 14.0
81.3206 16.0
81.4043 21.0
81.488 18.0
81.5717 18.0
81.6554 14.0
81.7391 14.0
81.8228 16.0
81.9065 11.0
81.9902 31.0
82.0739 15.0
82.1576 15.0
82.2414 10.0
82.3251 12.0
82.4088 13.0
82.4925 12.0
82.5762 13.0
82.6599 17.0
82.7436 10.0
82.8273 11.0
82.911 11.0
82.9947 13.0
83.0784 16.0
83.1621 13.0
83.2458 10.0
83.3295 15.0
83.4132 16.0
83.4969 17.0
83.5806 10.0
83.6643 16.0
83.7481 18.0
83.8318 10.0
83.9155 19.0
83.9992 15.0
84.0829 21.0
84.1666 14.0
84.2503 11.0
84.334 9.0
84.4177 8.0
84.5014 14.0
84.5851 14.0
84.6688 14.0
84.7525 11.0
84.8362 17.0
84.9199 14.0
85.0036 17.0
85.0873 13.0
85.171 20.0
85.2548 11.0
85.3385 10.0
85.4222 16.0
85.5059 14.0
85.5896 12.0
85.6733 15.0
85.757 11.0
85.8407 18.0
85.9244 13.0
86.0081 8.0
86.0918 12.0
86.1755 14.0
86.2592 11.0
86.3429 16.0
86.4266 15.0
86.5103 16.0
86.594 12.0
86.6777 8.0
86.7615 14.0
86.8452 19.0
86.9289 11.0
87.0126 15.0
87.0963 9.0
87.18 14.0
87.2637 13.0
87.3474 14.0
87.4311 14.0
87.5148 14.0
87.5985 15.0
87.6822 15.0
87.7659 15.0
87.8496 16.0
87.9333 8.0
88.017 11.0
88.1007 9.0
88.1844 14.0
88.2682 13.0
88.3519 13.0
88.4356 4.0
88.5193 16.0
88.603 11.0
88.6867 15.0
88.7704 18.0
88.8541 8.0
88.9378 7.0
89.0215 14.0
89.1052 6.0
89.1889 15.0
89.2726 14.0
89.3563 15.0
89.44 11.0
89.5237 13.0
89.6074 8.0
89.6911 15.0
89.7749 11.0
89.8586 14.0
89.9423 9.0
90.026 18.0
90.1097 10.0
90.1934 14.0
90.2771 16.0
90.3608 16.0
90.4445 11.0
90.5282 9.0
90.6119 16.0
90.6956 14.0
90.7793 14.0
90.863 12.0
90.9467 14.0
91.0304 12.0
91.1141 13.0
91.1978 9.0
91.2816 13.0
91.3653 8.0
91.449 12.0
91.5327 18.0
91.6164 19.0
91.7001 13.0
91.7838 8.0
91.8675 11.0
91.9512 19.0
92.0349 12.0
92.1186 15.0
92.2023 12.0
92.286 18.0
92.3697 9.0
92.4534 15.0
92.5371 14.0
92.6208 15.0
92.7045 5.0
92.7883 9.0
92.872 7.0
92.9557 11.0
93.0394 8.0
93.1231 10.0
93.2068 12.0
93.2905 16.0
93.3742 11.0
93.4579 13.0
93.5416 14.0
93.6253 8.0
93.709 11.0
93.7927 23.0
93.8764 14.0
93.9601 19.0
94.0438 11.0
94.1275 15.0
94.2112 11.0
94.295 22.0
94.3787 11.0
94.4624 17.0
94.5461 11.0
94.6298 12.0
94.7135 21.0
94.7972 12.0
94.8809 4.0
94.9646 19.0
95.0483 16.0
95.132 18.0
95.2157 12.0
95.2994 12.0
95.3831 6.0
95.4668 5.0
95.5505 23.0
95.6342 12.0
95.7179 14.0
95.8017 12.0
95.8854 22.0
95.9691 16.0
96.0528 13.0
96.1365 8.0
96.2202 18.0
96.3039 10.0
96.3876 19.0
96.4713 19.0
96.555 11.0
96.6387 9.0
96.7224 15.0
96.8061 10.0
96.8898 18.0
96.9735 7.0
97.0572 3.0
97.1409 15.0
97.2246 9.0
97.3084 16.0
97.3921 12.0
97.4758 18.0
97.5595 13.0
97.6432 9.0
97.7269 21.0
97.8106 12.0
97.8943 13.0
97.978 18.0
98.0617 9.0
98.1454 21.0
98.2291 15.0
98.3128 19.0
98.3965 18.0
98.4802 11.0
98.5639 18.0
98.6476 18.0
98.7313 13.0
98.8151 11.0
98.8988 18.0
98.9825 15.0
99.0662 17.0
99.1499 15.0
99.2336 11.0
99.3173 16.0
99.401 16.0
99.4847 18.0
99.5684 20.0
99.6521 19.0
99.7358 15.0
99.8195 21.0
99.9032 13.0
99.9869 14.0
100.071 15.0
100.154 14.0
100.238 12.0
100.322 7.0
100.405 11.0
100.489 17.0
100.573 9.0
100.657 18.0
100.74 16.0
100.824 8.0
100.908 12.0
100.991 15.0
101.075 19.0
101.159 9.0
101.243 20.0
101.326 8.0
101.41 17.0
101.494 12.0
101.577 19.0
101.661 15.0
101.745 9.0
101.828 10.0
101.912 11.0
101.996 7.0
102.08 11.0
102.163 8.0
102.247 19.0
102.331 13.0
102.414 15.0
102.498 15.0
102.582 4.0
102.666 16.0
102.749 17.0
102.833 13.0
102.917 10.0
103 15.0
103.084 18.0
103.168 11.0
103.251 17.0
103.335 11.0
103.419 14.0
103.503 13.0
103.586 14.0
103.67 10.0
103.754 15.0
103.837 18.0
103.921 14.0
104.005 7.0
104.089 14.0
104.172 11.0
104.256 10.0
104.34 12.0
104.423 15.0
104.507 18.0
104.591 17.0
104.674 13.0
104.758 16.0
104.842 10.0
104.926 15.0
105.009 12.0
105.093 13.0
105.177 11.0
105.26 15.0
105.344 13.0
105.428 13.0
105.511 9.0
105.595 11.0
105.679 21.0
105.763 11.0
105.846 18.0
105.93 15.0
106.014 8.0
106.097 22.0
106.181 11.0
106.265 18.0
106.349 13.0
106.432 14.0
106.516 13.0
106.6 16.0
106.683 16.0
106.767 8.0
106.851 13.0
106.934 7.0
107.018 17.0
107.102 12.0
107.186 15.0
107.269 20.0
107.353 12.0
107.437 14.0
107.52 23.0
107.604 16.0
107.688 12.0
107.772 15.0
107.855 21.0
107.939 13.0
108.023 22.0
108.106 17.0
108.19 18.0
108.274 15.0
108.357 22.0
108.441 15.0
108.525 21.0
108.609 15.0
108.692 11.0
108.776 8.0
108.86 14.0
108.943 9.0
109.027 16.0
109.111 11.0
109.195 12.0
109.278 11.0
109.362 22.0
109.446 12.0
109.529 11.0
109.613 11.0
109.697 8.0
109.78 11.0
109.864 19.0
109.948 20.0
110.032 16.0
110.115 11.0
110.199 21.0
110.283 14.0
110.366 14.0
110.45 12.0
110.534 17.0
110.618 13.0
110.701 16.0
110.785 5.0
110.869 11.0
110.952 14.0
111.036 23.0
111.12 14.0
111.203 18.0
111.287 22.0
111.371 13.0
111.455 22.0
111.538 7.0
111.622 18.0
111.706 13.0
111.789 16.0
111.873 13.0
111.957 15.0
112.041 9.0
112.124 18.0
112.208 15.0
112.292 9.0
112.375 17.0
112.459 20.0
112.543 13.0
112.626 12.0
112.71 19.0
112.794 9.0
112.878 14.0
112.961 12.0
113.045 14.0
113.129 16.0
113.212 21.0
113.296 14.0
113.38 13.0
113.464 12.0
113.547 18.0
113.631 16.0
113.715 15.0
113.798 15.0
113.882 12.0
113.966 19.0
114.049 16.0
114.133 12.0
114.217 10.0
114.301 15.0
114.384 11.0
114.468 17.0
114.552 17.0
114.635 14.0
114.719 13.0
114.803 14.0
114.887 18.0
114.97 17.0
115.054 15.0
115.138 8.0
115.221 15.0
115.305 14.0
115.389 19.0
115.472 12.0
115.556 10.0
115.64 12.0
115.724 15.0
115.807 19.0
115.891 15.0
115.975 11.0
116.058 12.0
116.142 12.0
116.226 14.0
116.31 15.0
116.393 20.0
116.477 11.0
116.561 8.0
116.644 12.0
116.728 16.0
116.812 12.0
116.895 8.0
116.979 21.0
117.063 9.0
117.147 18.0
117.23 10.0
117.314 15.0
117.398 11.0
117.481 15.0
117.565 18.0
117.649 12.0
117.733 13.0
117.816 13.0
117.9 16.0
117.984 14.0
118.067 14.0
118.151 19.0
118.235 14.0
118.318 14.0
118.402 13.0
118.486 10.0
118.57 13.0
118.653 17.0
118.737 12.0
118.821 7.0
118.904 19.0
118.988 12.0
119.072 13.0
119.156 15.0
119.239 14.0
119.323 8.0
119.407 16.0
119.49 12.0
119.574 11.0
119.658 17.0
119.741 14.0
119.825 10.0
119.909 18.0
119.993 11.0
120.076 21.0
120.16 15.0
120.244 16.0
120.327 18.0
120.411 15.0
120.495 13.0
120.578 14.0
120.662 11.0
120.746 18.0
120.83 11.0
120.913 12.0
120.997 11.0
121.081 20.0
121.164 12.0
121.248 17.0
121.332 14.0
121.416 9.0
121.499 18.0
121.583 17.0
121.667 13.0
121.75 20.0
121.834 9.0
121.918 8.0
122.001 13.0
122.085 19.0
122.169 24.0
122.253 15.0
122.336 6.0
122.42 18.0
122.504 12.0
122.587 20.0
122.671 16.0
122.755 20.0
122.839 13.0
122.922 9.0
123.006 13.0
123.09 8.0
123.173 21.0
123.257 13.0
123.341 12.0
123.424 20.0
123.508 19.0
123.592 12.0
123.676 13.0
123.759 12.0
123.843 10.0
123.927 12.0
124.01 13.0
124.094 14.0
124.178 18.0
124.262 10.0
124.345 21.0
124.429 13.0
124.513 20.0
124.596 13.0
124.68 18.0
124.764 9.0
124.847 8.0
124.931 17.0
125.015 12.0
125.099 21.0
125.182 12.0
125.266 14.0
125.35 24.0
125.433 8.0
125.517 18.0
125.601 18.0
125.685 19.0
125.768 14.0
125.852 19.0
125.936 15.0
126.019 17.0
126.103 16.0
126.187 16.0
126.27 17.0
126.354 17.0
126.438 7.0
126.522 8.0
126.605 16.0
126.689 19.0
126.773 20.0
126.856 15.0
126.94 10.0
127.024 18.0
127.108 17.0
127.191 14.0
127.275 18.0
127.359 12.0
127.442 10.0
127.526 18.0
127.61 7.0
127.693 17.0
127.777 10.0
127.861 18.0
127.945 19.0
128.028 13.0
128.112 11.0
128.196 13.0
128.279 9.0
128.363 20.0
128.447 14.0
128.531 10.0
128.614 21.0
128.698 12.0
128.782 21.0
128.865 12.0
128.949 9.0
129.033 18.0
129.116 12.0
129.2 16.0
129.284 7.0
129.368 9.0
129.451 17.0
129.535 17.0
129.619 10.0
129.702 13.0
129.786 12.0
129.87 11.0
129.954 13.0
129.998 8.0