File: data/W6903a/XRD_2ThetaOmega/scan_2th-om_a_Cr2O3_30-40deg_PIXscan_4min_3.xy
30.0025 112.0
30.0123 93.0
30.0222 96.0
30.032 97.0
30.0419 107.0
30.0517 116.0
30.0615 110.0
30.0714 67.0
30.0812 91.0
30.0911 92.0
30.1009 112.0
30.1108 104.0
30.1206 98.0
30.1305 87.0
30.1403 99.0
30.1502 115.0
30.16 102.0
30.1699 113.0
30.1797 96.0
30.1896 96.0
30.1994 112.0
30.2093 103.0
30.2191 90.0
30.229 91.0
30.2388 117.0
30.2487 112.0
30.2585 105.0
30.2684 120.0
30.2782 119.0
30.288 106.0
30.2979 106.0
30.3077 109.0
30.3176 114.0
30.3274 111.0
30.3373 96.0
30.3471 106.0
30.357 103.0
30.3668 114.0
30.3767 113.0
30.3865 94.0
30.3964 108.0
30.4062 109.0
30.4161 111.0
30.4259 98.0
30.4358 100.0
30.4456 94.0
30.4555 114.0
30.4653 104.0
30.4752 106.0
30.485 80.0
30.4948 91.0
30.5047 94.0
30.5145 103.0
30.5244 100.0
30.5342 104.0
30.5441 107.0
30.5539 106.0
30.5638 102.0
30.5736 109.0
30.5835 96.0
30.5933 113.0
30.6032 81.0
30.613 104.0
30.6229 91.0
30.6327 99.0
30.6426 89.0
30.6524 95.0
30.6623 115.0
30.6721 99.0
30.682 113.0
30.6918 94.0
30.7016 103.0
30.7115 114.0
30.7213 103.0
30.7312 98.0
30.741 97.0
30.7509 103.0
30.7607 119.0
30.7706 109.0
30.7804 112.0
30.7903 87.0
30.8001 116.0
30.81 107.0
30.8198 112.0
30.8297 112.0
30.8395 116.0
30.8494 111.0
30.8592 111.0
30.8691 114.0
30.8789 107.0
30.8888 95.0
30.8986 96.0
30.9085 105.0
30.9183 111.0
30.9281 109.0
30.938 109.0
30.9478 126.0
30.9577 107.0
30.9675 102.0
30.9774 113.0
30.9872 92.0
30.9971 89.0
31.0069 100.0
31.0168 99.0
31.0266 91.0
31.0365 108.0
31.0463 105.0
31.0562 98.0
31.066 128.0
31.0759 115.0
31.0857 124.0
31.0956 92.0
31.1054 120.0
31.1153 126.0
31.1251 99.0
31.1349 114.0
31.1448 116.0
31.1546 113.0
31.1645 81.0
31.1743 105.0
31.1842 98.0
31.194 97.0
31.2039 107.0
31.2137 112.0
31.2236 87.0
31.2334 105.0
31.2433 107.0
31.2531 104.0
31.263 108.0
31.2728 79.0
31.2827 106.0
31.2925 108.0
31.3024 95.0
31.3122 93.0
31.3221 100.0
31.3319 94.0
31.3418 104.0
31.3516 111.0
31.3614 99.0
31.3713 117.0
31.3811 104.0
31.391 106.0
31.4008 104.0
31.4107 102.0
31.4205 121.0
31.4304 111.0
31.4402 102.0
31.4501 113.0
31.4599 114.0
31.4698 113.0
31.4796 120.0
31.4895 102.0
31.4993 112.0
31.5092 108.0
31.519 104.0
31.5289 111.0
31.5387 110.0
31.5486 121.0
31.5584 110.0
31.5682 84.0
31.5781 93.0
31.5879 93.0
31.5978 95.0
31.6076 118.0
31.6175 111.0
31.6273 108.0
31.6372 109.0
31.647 128.0
31.6569 98.0
31.6667 97.0
31.6766 96.0
31.6864 103.0
31.6963 123.0
31.7061 114.0
31.716 113.0
31.7258 104.0
31.7357 134.0
31.7455 98.0
31.7554 103.0
31.7652 97.0
31.7751 142.0
31.7849 120.0
31.7947 99.0
31.8046 121.0
31.8144 100.0
31.8243 148.0
31.8341 110.0
31.844 117.0
31.8538 120.0
31.8637 113.0
31.8735 117.0
31.8834 128.0
31.8932 124.0
31.9031 113.0
31.9129 120.0
31.9228 166.0
31.9326 188.0
31.9425 180.0
31.9523 172.0
31.9622 201.0
31.972 205.0
31.9819 176.0
31.9917 205.0
32.0015 179.0
32.0114 182.0
32.0212 181.0
32.0311 176.0
32.0409 186.0
32.0508 155.0
32.0606 143.0
32.0705 167.0
32.0803 145.0
32.0902 153.0
32.1 138.0
32.1099 133.0
32.1197 129.0
32.1296 134.0
32.1394 130.0
32.1493 116.0
32.1591 118.0
32.169 126.0
32.1788 101.0
32.1887 113.0
32.1985 102.0
32.2083 116.0
32.2182 112.0
32.228 111.0
32.2379 135.0
32.2477 123.0
32.2576 123.0
32.2674 115.0
32.2773 118.0
32.2871 131.0
32.297 124.0
32.3068 102.0
32.3167 104.0
32.3265 115.0
32.3364 109.0
32.3462 113.0
32.3561 131.0
32.3659 100.0
32.3758 115.0
32.3856 116.0
32.3955 146.0
32.4053 121.0
32.4152 104.0
32.425 110.0
32.4348 118.0
32.4447 101.0
32.4545 111.0
32.4644 100.0
32.4742 114.0
32.4841 94.0
32.4939 122.0
32.5038 116.0
32.5136 92.0
32.5235 128.0
32.5333 100.0
32.5432 101.0
32.553 114.0
32.5629 106.0
32.5727 108.0
32.5826 131.0
32.5924 111.0
32.6023 115.0
32.6121 119.0
32.622 117.0
32.6318 97.0
32.6416 118.0
32.6515 123.0
32.6613 109.0
32.6712 115.0
32.681 103.0
32.6909 125.0
32.7007 92.0
32.7106 108.0
32.7204 108.0
32.7303 118.0
32.7401 110.0
32.75 122.0
32.7598 114.0
32.7697 131.0
32.7795 106.0
32.7894 99.0
32.7992 108.0
32.8091 108.0
32.8189 113.0
32.8288 106.0
32.8386 113.0
32.8485 123.0
32.8583 102.0
32.8681 116.0
32.878 114.0
32.8878 120.0
32.8977 120.0
32.9075 135.0
32.9174 110.0
32.9272 110.0
32.9371 113.0
32.9469 117.0
32.9568 130.0
32.9666 94.0
32.9765 115.0
32.9863 127.0
32.9962 91.0
33.006 101.0
33.0159 116.0
33.0257 121.0
33.0356 115.0
33.0454 112.0
33.0553 98.0
33.0651 120.0
33.0749 112.0
33.0848 93.0
33.0946 97.0
33.1045 111.0
33.1143 118.0
33.1242 106.0
33.134 115.0
33.1439 117.0
33.1537 126.0
33.1636 105.0
33.1734 112.0
33.1833 113.0
33.1931 125.0
33.203 112.0
33.2128 118.0
33.2227 119.0
33.2325 109.0
33.2424 109.0
33.2522 97.0
33.2621 119.0
33.2719 111.0
33.2818 116.0
33.2916 116.0
33.3014 98.0
33.3113 95.0
33.3211 104.0
33.331 128.0
33.3408 123.0
33.3507 112.0
33.3605 118.0
33.3704 118.0
33.3802 108.0
33.3901 99.0
33.3999 93.0
33.4098 122.0
33.4196 93.0
33.4295 114.0
33.4393 114.0
33.4492 113.0
33.459 95.0
33.4689 111.0
33.4787 108.0
33.4886 120.0
33.4984 111.0
33.5082 117.0
33.5181 117.0
33.5279 108.0
33.5378 117.0
33.5476 127.0
33.5575 134.0
33.5673 116.0
33.5772 115.0
33.587 120.0
33.5969 105.0
33.6067 124.0
33.6166 124.0
33.6264 138.0
33.6363 122.0
33.6461 124.0
33.656 121.0
33.6658 110.0
33.6757 115.0
33.6855 125.0
33.6954 115.0
33.7052 129.0
33.715 122.0
33.7249 135.0
33.7347 130.0
33.7446 135.0
33.7544 147.0
33.7643 134.0
33.7741 127.0
33.784 143.0
33.7938 141.0
33.8037 120.0
33.8135 144.0
33.8234 134.0
33.8332 137.0
33.8431 185.0
33.8529 213.0
33.8628 216.0
33.8726 341.0
33.8825 537.0
33.8923 846.0
33.9022 1134.0
33.912 1272.0
33.9219 1241.0
33.9317 1119.0
33.9415 877.0
33.9514 542.0
33.9612 411.0
33.9711 290.0
33.9809 260.0
33.9908 215.0
34.0006 205.0
34.0105 211.0
34.0203 175.0
34.0302 160.0
34.04 175.0
34.0499 167.0
34.0597 155.0
34.0696 170.0
34.0794 148.0
34.0893 143.0
34.0991 160.0
34.109 152.0
34.1188 160.0
34.1287 162.0
34.1385 171.0
34.1483 150.0
34.1582 151.0
34.168 181.0
34.1779 187.0
34.1877 157.0
34.1976 160.0
34.2074 141.0
34.2173 147.0
34.2271 159.0
34.237 139.0
34.2468 182.0
34.2567 167.0
34.2665 162.0
34.2764 180.0
34.2862 158.0
34.2961 171.0
34.3059 154.0
34.3158 166.0
34.3256 147.0
34.3355 159.0
34.3453 141.0
34.3552 175.0
34.365 165.0
34.3748 181.0
34.3847 152.0
34.3945 145.0
34.4044 186.0
34.4142 180.0
34.4241 162.0
34.4339 143.0
34.4438 154.0
34.4536 174.0
34.4635 160.0
34.4733 197.0
34.4832 159.0
34.493 193.0
34.5029 194.0
34.5127 183.0
34.5226 183.0
34.5324 204.0
34.5423 200.0
34.5521 188.0
34.562 205.0
34.5718 212.0
34.5816 215.0
34.5915 204.0
34.6013 214.0
34.6112 227.0
34.621 219.0
34.6309 183.0
34.6407 221.0
34.6506 243.0
34.6604 221.0
34.6703 233.0
34.6801 247.0
34.69 203.0
34.6998 232.0
34.7097 228.0
34.7195 214.0
34.7294 229.0
34.7392 241.0
34.7491 243.0
34.7589 278.0
34.7688 282.0
34.7786 287.0
34.7884 280.0
34.7983 268.0
34.8081 270.0
34.818 329.0
34.8278 292.0
34.8377 287.0
34.8475 317.0
34.8574 298.0
34.8672 318.0
34.8771 298.0
34.8869 313.0
34.8968 312.0
34.9066 314.0
34.9165 342.0
34.9263 316.0
34.9362 339.0
34.946 350.0
34.9559 348.0
34.9657 399.0
34.9756 409.0
34.9854 406.0
34.9953 396.0
35.0051 431.0
35.0149 412.0
35.0248 408.0
35.0346 459.0
35.0445 452.0
35.0543 415.0
35.0642 463.0
35.074 464.0
35.0839 476.0
35.0937 516.0
35.1036 577.0
35.1134 511.0
35.1233 580.0
35.1331 584.0
35.143 639.0
35.1528 676.0
35.1627 651.0
35.1725 681.0
35.1824 727.0
35.1922 785.0
35.2021 753.0
35.2119 813.0
35.2217 920.0
35.2316 958.0
35.2414 1034.0
35.2513 988.0
35.2611 1150.0
35.271 1174.0
35.2808 1278.0
35.2907 1473.0
35.3005 1541.0
35.3104 1700.0
35.3202 1800.0
35.3301 2038.0
35.3399 2289.0
35.3498 2555.0
35.3596 2876.0
35.3695 3288.0
35.3793 3693.0
35.3892 4316.0
35.399 4863.0
35.4089 5662.0
35.4187 6699.0
35.4286 7951.0
35.4384 9183.0
35.4482 11237.0
35.4581 13071.0
35.4679 15419.0
35.4778 17705.0
35.4876 19800.0
35.4975 21785.0
35.5073 23291.0
35.5172 24444.0
35.527 24645.0
35.5369 24714.0
35.5467 24338.0
35.5566 23893.0
35.5664 23046.0
35.5763 22427.0
35.5861 21601.0
35.596 20833.0
35.6058 19685.0
35.6157 18409.0
35.6255 17389.0
35.6354 16154.0
35.6452 14711.0
35.655 13318.0
35.6649 11719.0
35.6747 10586.0
35.6846 9398.0
35.6944 8415.0
35.7043 7436.0
35.7141 6763.0
35.724 6152.0
35.7338 5473.0
35.7437 5131.0
35.7535 4707.0
35.7634 4181.0
35.7732 4028.0
35.7831 3697.0
35.7929 3564.0
35.8028 3298.0
35.8126 2999.0
35.8225 2963.0
35.8323 2639.0
35.8422 2619.0
35.852 2419.0
35.8619 2281.0
35.8717 2258.0
35.8815 2084.0
35.8914 1966.0
35.9012 2005.0
35.9111 1853.0
35.9209 1760.0
35.9308 1742.0
35.9406 1630.0
35.9505 1612.0
35.9603 1414.0
35.9702 1425.0
35.98 1409.0
35.9899 1359.0
35.9997 1207.0
36.0096 1263.0
36.0194 1276.0
36.0293 1205.0
36.0391 1129.0
36.049 1107.0
36.0588 1083.0
36.0687 1058.0
36.0785 1019.0
36.0883 931.0
36.0982 946.0
36.108 890.0
36.1179 885.0
36.1277 795.0
36.1376 830.0
36.1474 788.0
36.1573 719.0
36.1671 774.0
36.177 756.0
36.1868 695.0
36.1967 697.0
36.2065 596.0
36.2164 683.0
36.2262 652.0
36.2361 584.0
36.2459 564.0
36.2558 597.0
36.2656 552.0
36.2755 517.0
36.2853 512.0
36.2951 538.0
36.305 538.0
36.3148 494.0
36.3247 511.0
36.3345 461.0
36.3444 498.0
36.3542 465.0
36.3641 452.0
36.3739 440.0
36.3838 448.0
36.3936 412.0
36.4035 458.0
36.4133 399.0
36.4232 375.0
36.433 377.0
36.4429 427.0
36.4527 356.0
36.4626 421.0
36.4724 393.0
36.4823 417.0
36.4921 339.0
36.502 358.0
36.5118 347.0
36.5216 377.0
36.5315 355.0
36.5413 315.0
36.5512 342.0
36.561 371.0
36.5709 358.0
36.5807 318.0
36.5906 351.0
36.6004 319.0
36.6103 376.0
36.6201 365.0
36.63 371.0
36.6398 338.0
36.6497 384.0
36.6595 324.0
36.6694 358.0
36.6792 356.0
36.6891 348.0
36.6989 352.0
36.7088 353.0
36.7186 329.0
36.7284 359.0
36.7383 357.0
36.7481 334.0
36.758 358.0
36.7678 343.0
36.7777 355.0
36.7875 344.0
36.7974 385.0
36.8072 339.0
36.8171 387.0
36.8269 364.0
36.8368 382.0
36.8466 375.0
36.8565 386.0
36.8663 380.0
36.8762 373.0
36.886 420.0
36.8959 371.0
36.9057 390.0
36.9156 393.0
36.9254 398.0
36.9353 392.0
36.9451 431.0
36.9549 442.0
36.9648 457.0
36.9746 420.0
36.9845 425.0
36.9943 434.0
37.0042 454.0
37.014 455.0
37.0239 444.0
37.0337 470.0
37.0436 473.0
37.0534 481.0
37.0633 488.0
37.0731 495.0
37.083 458.0
37.0928 486.0
37.1027 533.0
37.1125 525.0
37.1224 522.0
37.1322 581.0
37.1421 572.0
37.1519 539.0
37.1617 515.0
37.1716 541.0
37.1814 567.0
37.1913 496.0
37.2011 597.0
37.211 612.0
37.2208 661.0
37.2307 628.0
37.2405 662.0
37.2504 688.0
37.2602 676.0
37.2701 695.0
37.2799 700.0
37.2898 771.0
37.2996 788.0
37.3095 819.0
37.3193 804.0
37.3292 898.0
37.339 917.0
37.3489 916.0
37.3587 919.0
37.3686 885.0
37.3784 994.0
37.3882 962.0
37.3981 1040.0
37.4079 1194.0
37.4178 1161.0
37.4276 1286.0
37.4375 1451.0
37.4473 1633.0
37.4572 1892.0
37.467 2206.0
37.4769 2723.0
37.4867 3194.0
37.4966 3602.0
37.5064 3977.0
37.5163 3943.0
37.5261 4044.0
37.536 3938.0
37.5458 3976.0
37.5557 4313.0
37.5655 4422.0
37.5754 5127.0
37.5852 6281.0
37.595 7950.0
37.6049 10575.0
37.6147 15550.0
37.6246 25439.0
37.6344 54116.0
37.6443 134499.0
37.6541 222962.0
37.664 263948.0
37.6738 272908.0
37.6837 264005.0
37.6935 204514.0
37.7034 106456.0
37.7132 51622.0
37.7231 35133.0
37.7329 43799.0
37.7428 84362.0
37.7526 124067.0
37.7625 141180.0
37.7723 144097.0
37.7822 135383.0
37.792 98754.0
37.8018 49928.0
37.8117 23736.0
37.8215 13518.0
37.8314 9148.0
37.8412 6793.0
37.8511 5473.0
37.8609 4635.0
37.8708 3927.0
37.8806 3468.0
37.8905 3191.0
37.9003 2817.0
37.9102 2498.0
37.92 2409.0
37.9299 2180.0
37.9397 1979.0
37.9496 1901.0
37.9594 1780.0
37.9693 1556.0
37.9791 1599.0
37.989 1430.0
37.9988 1419.0
38.0087 1353.0
38.0185 1291.0
38.0283 1244.0
38.0382 1160.0
38.048 1168.0
38.0579 1079.0
38.0677 1068.0
38.0776 1062.0
38.0874 1018.0
38.0973 984.0
38.1071 929.0
38.117 897.0
38.1268 810.0
38.1367 853.0
38.1465 834.0
38.1564 831.0
38.1662 790.0
38.1761 749.0
38.1859 730.0
38.1958 735.0
38.2056 719.0
38.2155 669.0
38.2253 623.0
38.2351 583.0
38.245 608.0
38.2548 586.0
38.2647 610.0
38.2745 571.0
38.2844 554.0
38.2942 508.0
38.3041 501.0
38.3139 477.0
38.3238 501.0
38.3336 497.0
38.3435 510.0
38.3533 472.0
38.3632 423.0
38.373 471.0
38.3829 458.0
38.3927 450.0
38.4026 425.0
38.4124 402.0
38.4223 420.0
38.4321 412.0
38.442 378.0
38.4518 348.0
38.4616 369.0
38.4715 390.0
38.4813 343.0
38.4912 365.0
38.501 346.0
38.5109 346.0
38.5207 312.0
38.5306 316.0
38.5404 315.0
38.5503 305.0
38.5601 304.0
38.57 297.0
38.5798 290.0
38.5897 287.0
38.5995 289.0
38.6094 293.0
38.6192 276.0
38.6291 255.0
38.6389 221.0
38.6488 220.0
38.6586 260.0
38.6684 210.0
38.6783 234.0
38.6881 208.0
38.698 233.0
38.7078 222.0
38.7177 204.0
38.7275 212.0
38.7374 207.0
38.7472 199.0
38.7571 183.0
38.7669 210.0
38.7768 176.0
38.7866 180.0
38.7965 172.0
38.8063 212.0
38.8162 161.0
38.826 162.0
38.8359 153.0
38.8457 193.0
38.8556 168.0
38.8654 200.0
38.8753 182.0
38.8851 148.0
38.8949 169.0
38.9048 152.0
38.9146 160.0
38.9245 177.0
38.9343 168.0
38.9442 189.0
38.954 163.0
38.9639 160.0
38.9737 161.0
38.9836 160.0
38.9934 154.0
39.0033 165.0
39.0131 160.0
39.023 157.0
39.0328 135.0
39.0427 161.0
39.0525 156.0
39.0624 108.0
39.0722 166.0
39.0821 151.0
39.0919 152.0
39.1017 149.0
39.1116 114.0
39.1214 139.0
39.1313 147.0
39.1411 122.0
39.151 152.0
39.1608 149.0
39.1707 150.0
39.1805 159.0
39.1904 145.0
39.2002 140.0
39.2101 146.0
39.2199 155.0
39.2298 139.0
39.2396 129.0
39.2495 135.0
39.2593 136.0
39.2692 125.0
39.279 135.0
39.2889 143.0
39.2987 119.0
39.3085 112.0
39.3184 108.0
39.3282 143.0
39.3381 136.0
39.3479 140.0
39.3578 114.0
39.3676 134.0
39.3775 129.0
39.3873 137.0
39.3972 121.0
39.407 134.0
39.4169 137.0
39.4267 135.0
39.4366 120.0
39.4464 118.0
39.4563 132.0
39.4661 136.0
39.476 133.0
39.4858 135.0
39.4957 147.0
39.5055 130.0
39.5154 120.0
39.5252 150.0
39.535 114.0
39.5449 129.0
39.5547 130.0
39.5646 117.0
39.5744 107.0
39.5843 122.0
39.5941 105.0
39.604 125.0
39.6138 122.0
39.6237 113.0
39.6335 124.0
39.6434 147.0
39.6532 111.0
39.6631 135.0
39.6729 122.0
39.6828 131.0
39.6926 140.0
39.7025 121.0
39.7123 135.0
39.7222 113.0
39.732 135.0
39.7418 118.0
39.7517 125.0
39.7615 136.0
39.7714 111.0
39.7812 119.0
39.7911 123.0
39.8009 144.0
39.8108 134.0
39.8206 110.0
39.8305 126.0
39.8403 105.0
39.8502 149.0
39.86 119.0
39.8699 134.0
39.8797 130.0
39.8896 125.0
39.8994 121.0
39.9093 142.0
39.9191 110.0
39.929 118.0
39.9388 144.0
39.9487 130.0
39.9585 104.0
39.9683 123.0
39.9782 120.0
39.988 132.0
39.9979 105.0