File: data/W6932m/XRD_Omega/film_m_can_omega_4deg_step_0.005deg0.xy
30.01130 46.0
30.01630 50.0
30.02130 22.0
30.02630 37.0
30.03130 47.0
30.03630 55.0
30.04130 44.0
30.04630 49.0
30.05130 36.0
30.05630 41.0
30.06130 46.0
30.06630 40.0
30.07130 52.0
30.07630 49.0
30.08130 37.0
30.08630 45.0
30.09130 35.0
30.09630 42.0
30.10130 34.0
30.10630 39.0
30.11130 37.0
30.11630 38.0
30.12130 42.0
30.12630 41.0
30.13130 49.0
30.13630 28.0
30.14130 41.0
30.14630 51.0
30.15130 46.0
30.15630 40.0
30.16130 38.0
30.16630 44.0
30.17130 54.0
30.17630 45.0
30.18130 46.0
30.18630 48.0
30.19130 46.0
30.19630 40.0
30.20130 37.0
30.20630 27.0
30.21130 53.0
30.21630 42.0
30.22130 43.0
30.22630 49.0
30.23130 44.0
30.23630 35.0
30.24130 44.0
30.24630 28.0
30.25130 38.0
30.25630 39.0
30.26130 49.0
30.26630 44.0
30.27130 45.0
30.27630 47.0
30.28130 58.0
30.28630 40.0
30.29130 53.0
30.29630 39.0
30.30130 52.0
30.30630 45.0
30.31130 39.0
30.31630 48.0
30.32130 44.0
30.32630 46.0
30.33130 57.0
30.33630 40.0
30.34130 41.0
30.34630 46.0
30.35130 45.0
30.35630 51.0
30.36130 44.0
30.36630 40.0
30.37130 45.0
30.37630 53.0
30.38130 45.0
30.38630 45.0
30.39130 53.0
30.39630 45.0
30.40130 45.0
30.40630 51.0
30.41130 44.0
30.41630 42.0
30.42130 44.0
30.42630 49.0
30.43130 51.0
30.43630 44.0
30.44130 48.0
30.44630 41.0
30.45130 51.0
30.45630 44.0
30.46130 54.0
30.46630 51.0
30.47130 39.0
30.47630 47.0
30.48130 52.0
30.48630 48.0
30.49130 55.0
30.49630 51.0
30.50130 37.0
30.50630 49.0
30.51130 45.0
30.51630 44.0
30.52130 33.0
30.52630 60.0
30.53130 49.0
30.53630 53.0
30.54130 45.0
30.54630 58.0
30.55130 45.0
30.55630 51.0
30.56130 58.0
30.56630 48.0
30.57130 50.0
30.57630 55.0
30.58130 54.0
30.58630 58.0
30.59130 54.0
30.59630 47.0
30.60130 49.0
30.60630 46.0
30.61130 45.0
30.61630 57.0
30.62130 60.0
30.62630 53.0
30.63130 65.0
30.63630 55.0
30.64130 43.0
30.64630 42.0
30.65130 49.0
30.65630 39.0
30.66130 35.0
30.66630 63.0
30.67130 63.0
30.67630 67.0
30.68130 55.0
30.68630 56.0
30.69130 60.0
30.69630 61.0
30.70130 57.0
30.70630 54.0
30.71130 57.0
30.71630 55.0
30.72130 55.0
30.72630 50.0
30.73130 60.0
30.73630 68.0
30.74130 52.0
30.74630 61.0
30.75130 56.0
30.75630 58.0
30.76130 40.0
30.76630 46.0
30.77130 65.0
30.77630 58.0
30.78130 55.0
30.78630 60.0
30.79130 69.0
30.79630 75.0
30.80130 66.0
30.80630 62.0
30.81130 65.0
30.81630 56.0
30.82130 75.0
30.82630 61.0
30.83130 74.0
30.83630 53.0
30.84130 69.0
30.84630 75.0
30.85130 55.0
30.85630 66.0
30.86130 67.0
30.86630 70.0
30.87130 71.0
30.87630 66.0
30.88130 71.0
30.88630 82.0
30.89130 79.0
30.89630 63.0
30.90130 73.0
30.90630 53.0
30.91130 57.0
30.91630 73.0
30.92130 88.0
30.92630 78.0
30.93130 61.0
30.93630 69.0
30.94130 74.0
30.94630 63.0
30.95130 82.0
30.95630 49.0
30.96130 76.0
30.96630 85.0
30.97130 70.0
30.97630 81.0
30.98130 85.0
30.98630 78.0
30.99130 85.0
30.99630 90.0
31.00130 81.0
31.00630 82.0
31.01130 105.0
31.01630 90.0
31.02130 89.0
31.02630 98.0
31.03130 99.0
31.03630 105.0
31.04130 111.0
31.04630 103.0
31.05130 94.0
31.05630 81.0
31.06130 96.0
31.06630 101.0
31.07130 106.0
31.07630 109.0
31.08130 97.0
31.08630 127.0
31.09130 125.0
31.09630 100.0
31.10130 110.0
31.10630 103.0
31.11130 108.0
31.11630 129.0
31.12130 117.0
31.12630 118.0
31.13130 119.0
31.13630 118.0
31.14130 133.0
31.14630 131.0
31.15130 127.0
31.15630 112.0
31.16130 130.0
31.16630 164.0
31.17130 144.0
31.17630 146.0
31.18130 135.0
31.18630 145.0
31.19130 153.0
31.19630 141.0
31.20130 174.0
31.20630 156.0
31.21130 148.0
31.21630 151.0
31.22130 170.0
31.22630 175.0
31.23130 147.0
31.23630 164.0
31.24130 167.0
31.24630 169.0
31.25130 187.0
31.25630 183.0
31.26130 190.0
31.26630 209.0
31.27130 204.0
31.27630 227.0
31.28130 208.0
31.28630 206.0
31.29130 220.0
31.29630 217.0
31.30130 240.0
31.30630 234.0
31.31130 247.0
31.31630 204.0
31.32130 262.0
31.32630 269.0
31.33130 265.0
31.33630 257.0
31.34130 267.0
31.34630 273.0
31.35130 291.0
31.35630 287.0
31.36130 299.0
31.36630 289.0
31.37130 300.0
31.37630 332.0
31.38130 360.0
31.38630 332.0
31.39130 365.0
31.39630 326.0
31.40130 385.0
31.40630 385.0
31.41130 398.0
31.41630 413.0
31.42130 420.0
31.42630 429.0
31.43130 416.0
31.43630 424.0
31.44130 464.0
31.44630 431.0
31.45130 473.0
31.45630 446.0
31.46130 513.0
31.46630 518.0
31.47130 512.0
31.47630 559.0
31.48130 552.0
31.48630 569.0
31.49130 636.0
31.49630 587.0
31.50130 644.0
31.50630 630.0
31.51130 636.0
31.51630 645.0
31.52130 675.0
31.52630 762.0
31.53130 729.0
31.53630 731.0
31.54130 772.0
31.54630 769.0
31.55130 780.0
31.55630 818.0
31.56130 872.0
31.56630 822.0
31.57130 860.0
31.57630 944.0
31.58130 957.0
31.58630 972.0
31.59130 970.0
31.59630 1025.0
31.60130 1046.0
31.60630 1064.0
31.61130 1065.0
31.61630 1180.0
31.62130 1171.0
31.62630 1192.0
31.63130 1203.0
31.63630 1229.0
31.64130 1314.0
31.64630 1307.0
31.65130 1358.0
31.65630 1385.0
31.66130 1382.0
31.66630 1438.0
31.67130 1464.0
31.67630 1436.0
31.68130 1515.0
31.68630 1610.0
31.69130 1546.0
31.69630 1641.0
31.70130 1609.0
31.70630 1698.0
31.71130 1699.0
31.71630 1750.0
31.72130 1756.0
31.72630 1833.0
31.73130 1911.0
31.73630 1832.0
31.74130 1979.0
31.74630 2041.0
31.75130 2002.0
31.75630 2030.0
31.76130 2055.0
31.76630 2158.0
31.77130 2184.0
31.77630 2226.0
31.78130 2266.0
31.78630 2313.0
31.79130 2207.0
31.79630 2383.0
31.80130 2358.0
31.80630 2339.0
31.81130 2405.0
31.81630 2463.0
31.82130 2575.0
31.82630 2457.0
31.83130 2545.0
31.83630 2478.0
31.84130 2593.0
31.84630 2638.0
31.85130 2610.0
31.85630 2608.0
31.86130 2609.0
31.86630 2625.0
31.87130 2638.0
31.87630 2828.0
31.88130 2725.0
31.88630 2757.0
31.89130 2879.0
31.89630 2834.0
31.90130 2872.0
31.90630 2952.0
31.91130 2862.0
31.91630 2872.0
31.92130 2845.0
31.92630 2948.0
31.93130 2821.0
31.93630 2943.0
31.94130 3035.0
31.94630 3051.0
31.95130 2986.0
31.95630 2963.0
31.96130 3038.0
31.96630 3064.0
31.97130 3075.0
31.97630 3088.0
31.98130 2945.0
31.98630 3014.0
31.99130 3091.0
31.99630 2982.0
32.00130 3007.0
32.00630 3129.0
32.01130 3101.0
32.01630 3045.0
32.02130 2963.0
32.02630 2973.0
32.03130 2887.0
32.03630 2935.0
32.04130 2945.0
32.04630 2919.0
32.05130 2976.0
32.05630 2874.0
32.06130 3011.0
32.06630 2996.0
32.07130 2955.0
32.07630 2914.0
32.08130 2932.0
32.08630 2878.0
32.09130 2912.0
32.09630 2819.0
32.10130 2852.0
32.10630 2825.0
32.11130 2766.0
32.11630 2803.0
32.12130 2847.0
32.12630 2738.0
32.13130 2780.0
32.13630 2622.0
32.14130 2685.0
32.14630 2602.0
32.15130 2631.0
32.15630 2636.0
32.16130 2472.0
32.16630 2597.0
32.17130 2516.0
32.17630 2622.0
32.18130 2485.0
32.18630 2354.0
32.19130 2463.0
32.19630 2427.0
32.20130 2397.0
32.20630 2319.0
32.21130 2241.0
32.21630 2352.0
32.22130 2236.0
32.22630 2344.0
32.23130 2221.0
32.23630 2138.0
32.24130 2085.0
32.24630 2065.0
32.25130 2048.0
32.25630 2005.0
32.26130 2004.0
32.26630 1952.0
32.27130 1950.0
32.27630 1892.0
32.28130 1841.0
32.28630 1818.0
32.29130 1773.0
32.29630 1769.0
32.30130 1740.0
32.30630 1682.0
32.31130 1764.0
32.31630 1630.0
32.32130 1717.0
32.32630 1587.0
32.33130 1627.0
32.33630 1553.0
32.34130 1452.0
32.34630 1528.0
32.35130 1532.0
32.35630 1399.0
32.36130 1409.0
32.36630 1422.0
32.37130 1364.0
32.37630 1264.0
32.38130 1356.0
32.38630 1264.0
32.39130 1266.0
32.39630 1230.0
32.40130 1205.0
32.40630 1189.0
32.41130 1087.0
32.41630 1083.0
32.42130 1087.0
32.42630 1035.0
32.43130 1009.0
32.43630 1054.0
32.44130 1027.0
32.44630 981.0
32.45130 920.0
32.45630 909.0
32.46130 943.0
32.46630 904.0
32.47130 883.0
32.47630 780.0
32.48130 836.0
32.48630 840.0
32.49130 818.0
32.49630 772.0
32.50130 711.0
32.50630 731.0
32.51130 724.0
32.51630 695.0
32.52130 691.0
32.52630 662.0
32.53130 667.0
32.53630 651.0
32.54130 642.0
32.54630 552.0
32.55130 601.0
32.55630 550.0
32.56130 570.0
32.56630 544.0
32.57130 551.0
32.57630 516.0
32.58130 515.0
32.58630 489.0
32.59130 492.0
32.59630 442.0
32.60130 491.0
32.60630 431.0
32.61130 471.0
32.61630 432.0
32.62130 427.0
32.62630 427.0
32.63130 404.0
32.63630 435.0
32.64130 425.0
32.64630 348.0
32.65130 373.0
32.65630 367.0
32.66130 338.0
32.66630 352.0
32.67130 329.0
32.67630 362.0
32.68130 321.0
32.68630 300.0
32.69130 298.0
32.69630 299.0
32.70130 314.0
32.70630 278.0
32.71130 280.0
32.71630 269.0
32.72130 277.0
32.72630 294.0
32.73130 237.0
32.73630 278.0
32.74130 231.0
32.74630 228.0
32.75130 259.0
32.75630 208.0
32.76130 233.0
32.76630 215.0
32.77130 228.0
32.77630 226.0
32.78130 192.0
32.78630 212.0
32.79130 197.0
32.79630 219.0
32.80130 214.0
32.80630 189.0
32.81130 160.0
32.81630 205.0
32.82130 175.0
32.82630 155.0
32.83130 148.0
32.83630 171.0
32.84130 169.0
32.84630 174.0
32.85130 166.0
32.85630 161.0
32.86130 164.0
32.86630 161.0
32.87130 177.0
32.87630 151.0
32.88130 155.0
32.88630 152.0
32.89130 160.0
32.89630 146.0
32.90130 164.0
32.90630 142.0
32.91130 132.0
32.91630 133.0
32.92130 125.0
32.92630 110.0
32.93130 126.0
32.93630 120.0
32.94130 117.0
32.94630 106.0
32.95130 117.0
32.95630 120.0
32.96130 132.0
32.96630 116.0
32.97130 131.0
32.97630 101.0
32.98130 123.0
32.98630 101.0
32.99130 113.0
32.99630 95.0
33.00130 105.0
33.00630 103.0
33.01130 98.0
33.01630 92.0
33.02130 111.0
33.02630 92.0
33.03130 90.0
33.03630 93.0
33.04130 96.0
33.04630 93.0
33.05130 103.0
33.05630 109.0
33.06130 80.0
33.06630 83.0
33.07130 95.0
33.07630 92.0
33.08130 90.0
33.08630 89.0
33.09130 81.0
33.09630 96.0
33.10130 82.0
33.10630 75.0
33.11130 84.0
33.11630 74.0
33.12130 79.0
33.12630 96.0
33.13130 69.0
33.13630 83.0
33.14130 75.0
33.14630 80.0
33.15130 82.0
33.15630 83.0
33.16130 78.0
33.16630 74.0
33.17130 74.0
33.17630 70.0
33.18130 68.0
33.18630 83.0
33.19130 73.0
33.19630 75.0
33.20130 63.0
33.20630 56.0
33.21130 74.0
33.21630 69.0
33.22130 71.0
33.22630 66.0
33.23130 61.0
33.23630 61.0
33.24130 61.0
33.24630 75.0
33.25130 72.0
33.25630 50.0
33.26130 55.0
33.26630 65.0
33.27130 68.0
33.27630 66.0
33.28130 62.0
33.28630 59.0
33.29130 67.0
33.29630 55.0
33.30130 53.0
33.30630 67.0
33.31130 52.0
33.31630 47.0
33.32130 54.0
33.32630 51.0
33.33130 56.0
33.33630 59.0
33.34130 65.0
33.34630 69.0
33.35130 48.0
33.35630 53.0
33.36130 58.0
33.36630 54.0
33.37130 46.0
33.37630 51.0
33.38130 47.0
33.38630 43.0
33.39130 56.0
33.39630 58.0
33.40130 64.0
33.40630 53.0
33.41130 53.0
33.41630 48.0
33.42130 46.0
33.42630 47.0
33.43130 52.0
33.43630 60.0
33.44130 57.0
33.44630 36.0
33.45130 46.0
33.45630 66.0
33.46130 47.0
33.46630 51.0
33.47130 50.0
33.47630 56.0
33.48130 53.0
33.48630 46.0
33.49130 53.0
33.49630 57.0
33.50130 55.0
33.50630 52.0
33.51130 49.0
33.51630 59.0
33.52130 53.0
33.52630 33.0
33.53130 46.0
33.53630 56.0
33.54130 51.0
33.54630 57.0
33.55130 46.0
33.55630 52.0
33.56130 44.0
33.56630 46.0
33.57130 42.0
33.57630 51.0
33.58130 60.0
33.58630 46.0
33.59130 56.0
33.59630 47.0
33.60130 50.0
33.60630 58.0
33.61130 37.0
33.61630 51.0
33.62130 45.0
33.62630 59.0
33.63130 50.0
33.63630 49.0
33.64130 53.0
33.64630 51.0
33.65130 50.0
33.65630 43.0
33.66130 49.0
33.66630 45.0
33.67130 54.0
33.67630 48.0
33.68130 41.0
33.68630 45.0
33.69130 48.0
33.69630 46.0
33.70130 39.0
33.70630 35.0
33.71130 35.0
33.71630 41.0
33.72130 47.0
33.72630 44.0
33.73130 44.0
33.73630 40.0
33.74130 45.0
33.74630 37.0
33.75130 45.0
33.75630 43.0
33.76130 60.0
33.76630 49.0
33.77130 44.0
33.77630 41.0
33.78130 41.0
33.78630 47.0
33.79130 32.0
33.79630 39.0
33.80130 45.0
33.80630 39.0
33.81130 44.0
33.81630 40.0
33.82130 42.0
33.82630 41.0
33.83130 46.0
33.83630 45.0
33.84130 44.0
33.84630 44.0
33.85130 32.0
33.85630 53.0
33.86130 32.0
33.86630 43.0
33.87130 35.0
33.87630 45.0
33.88130 37.0
33.88630 42.0
33.89130 56.0
33.89630 38.0
33.90130 51.0
33.90630 38.0
33.91130 33.0
33.91630 48.0
33.92130 47.0
33.92630 43.0
33.93130 38.0
33.93630 44.0
33.94130 35.0
33.94630 30.0
33.95130 40.0
33.95630 40.0
33.96130 46.0
33.96630 49.0
33.97130 32.0