File: data/W6858c/XRD_Omega/w6858c_scan_omega_4deg_step_0.005deg0_C6.xy
17.43590 31.0
17.44090 40.0
17.44590 26.0
17.45090 44.0
17.45590 32.0
17.46090 32.0
17.46590 25.0
17.47090 34.0
17.47590 33.0
17.48090 36.0
17.48590 33.0
17.49090 36.0
17.49590 37.0
17.50090 31.0
17.50590 33.0
17.51090 41.0
17.51590 33.0
17.52090 43.0
17.52590 32.0
17.53090 33.0
17.53590 32.0
17.54090 40.0
17.54590 40.0
17.55090 47.0
17.55590 39.0
17.56090 34.0
17.56590 36.0
17.57090 29.0
17.57590 40.0
17.58090 32.0
17.58590 26.0
17.59090 33.0
17.59590 31.0
17.60090 23.0
17.60590 31.0
17.61090 31.0
17.61590 39.0
17.62090 33.0
17.62590 38.0
17.63090 39.0
17.63590 41.0
17.64090 46.0
17.64590 37.0
17.65090 44.0
17.65590 35.0
17.66090 26.0
17.66590 35.0
17.67090 23.0
17.67590 29.0
17.68090 32.0
17.68590 33.0
17.69090 36.0
17.69590 34.0
17.70090 40.0
17.70590 29.0
17.71090 33.0
17.71590 44.0
17.72090 38.0
17.72590 23.0
17.73090 44.0
17.73590 44.0
17.74090 39.0
17.74590 30.0
17.75090 42.0
17.75590 40.0
17.76090 40.0
17.76590 28.0
17.77090 34.0
17.77590 36.0
17.78090 60.0
17.78590 35.0
17.79090 41.0
17.79590 47.0
17.80090 47.0
17.80590 28.0
17.81090 41.0
17.81590 38.0
17.82090 40.0
17.82590 42.0
17.83090 31.0
17.83590 39.0
17.84090 28.0
17.84590 41.0
17.85090 35.0
17.85590 37.0
17.86090 44.0
17.86590 34.0
17.87090 36.0
17.87590 25.0
17.88090 33.0
17.88590 24.0
17.89090 28.0
17.89590 31.0
17.90090 38.0
17.90590 38.0
17.91090 50.0
17.91590 30.0
17.92090 44.0
17.92590 33.0
17.93090 38.0
17.93590 35.0
17.94090 51.0
17.94590 38.0
17.95090 35.0
17.95590 33.0
17.96090 34.0
17.96590 42.0
17.97090 38.0
17.97590 36.0
17.98090 35.0
17.98590 35.0
17.99090 34.0
17.99590 47.0
18.00090 32.0
18.00590 29.0
18.01090 36.0
18.01590 34.0
18.02090 29.0
18.02590 39.0
18.03090 40.0
18.03590 44.0
18.04090 35.0
18.04590 40.0
18.05090 29.0
18.05590 38.0
18.06090 42.0
18.06590 47.0
18.07090 37.0
18.07590 32.0
18.08090 20.0
18.08590 46.0
18.09090 34.0
18.09590 35.0
18.10090 33.0
18.10590 31.0
18.11090 39.0
18.11590 42.0
18.12090 38.0
18.12590 40.0
18.13090 26.0
18.13590 26.0
18.14090 25.0
18.14590 34.0
18.15090 27.0
18.15590 37.0
18.16090 43.0
18.16590 41.0
18.17090 36.0
18.17590 42.0
18.18090 34.0
18.18590 47.0
18.19090 36.0
18.19590 36.0
18.20090 45.0
18.20590 32.0
18.21090 27.0
18.21590 28.0
18.22090 30.0
18.22590 51.0
18.23090 47.0
18.23590 47.0
18.24090 41.0
18.24590 52.0
18.25090 44.0
18.25590 35.0
18.26090 31.0
18.26590 49.0
18.27090 41.0
18.27590 47.0
18.28090 32.0
18.28590 41.0
18.29090 27.0
18.29590 34.0
18.30090 37.0
18.30590 39.0
18.31090 48.0
18.31590 32.0
18.32090 35.0
18.32590 37.0
18.33090 32.0
18.33590 37.0
18.34090 33.0
18.34590 43.0
18.35090 37.0
18.35590 42.0
18.36090 38.0
18.36590 48.0
18.37090 49.0
18.37590 40.0
18.38090 47.0
18.38590 43.0
18.39090 36.0
18.39590 36.0
18.40090 41.0
18.40590 39.0
18.41090 46.0
18.41590 33.0
18.42090 39.0
18.42590 46.0
18.43090 33.0
18.43590 33.0
18.44090 32.0
18.44590 42.0
18.45090 43.0
18.45590 29.0
18.46090 31.0
18.46590 48.0
18.47090 50.0
18.47590 41.0
18.48090 48.0
18.48590 44.0
18.49090 50.0
18.49590 49.0
18.50090 63.0
18.50590 46.0
18.51090 40.0
18.51590 40.0
18.52090 36.0
18.52590 38.0
18.53090 45.0
18.53590 44.0
18.54090 28.0
18.54590 37.0
18.55090 40.0
18.55590 40.0
18.56090 55.0
18.56590 35.0
18.57090 40.0
18.57590 44.0
18.58090 48.0
18.58590 36.0
18.59090 43.0
18.59590 46.0
18.60090 45.0
18.60590 46.0
18.61090 36.0
18.61590 59.0
18.62090 40.0
18.62590 52.0
18.63090 53.0
18.63590 46.0
18.64090 39.0
18.64590 53.0
18.65090 46.0
18.65590 43.0
18.66090 35.0
18.66590 42.0
18.67090 51.0
18.67590 41.0
18.68090 45.0
18.68590 42.0
18.69090 52.0
18.69590 38.0
18.70090 53.0
18.70590 57.0
18.71090 52.0
18.71590 33.0
18.72090 55.0
18.72590 37.0
18.73090 46.0
18.73590 45.0
18.74090 49.0
18.74590 47.0
18.75090 46.0
18.75590 46.0
18.76090 51.0
18.76590 48.0
18.77090 57.0
18.77590 38.0
18.78090 47.0
18.78590 41.0
18.79090 42.0
18.79590 49.0
18.80090 51.0
18.80590 46.0
18.81090 36.0
18.81590 62.0
18.82090 41.0
18.82590 62.0
18.83090 54.0
18.83590 44.0
18.84090 67.0
18.84590 71.0
18.85090 55.0
18.85590 48.0
18.86090 53.0
18.86590 52.0
18.87090 42.0
18.87590 52.0
18.88090 50.0
18.88590 70.0
18.89090 52.0
18.89590 57.0
18.90090 63.0
18.90590 46.0
18.91090 70.0
18.91590 78.0
18.92090 54.0
18.92590 71.0
18.93090 74.0
18.93590 51.0
18.94090 59.0
18.94590 65.0
18.95090 63.0
18.95590 64.0
18.96090 60.0
18.96590 56.0
18.97090 49.0
18.97590 53.0
18.98090 64.0
18.98590 64.0
18.99090 62.0
18.99590 88.0
19.00090 85.0
19.00590 74.0
19.01090 86.0
19.01590 70.0
19.02090 90.0
19.02590 72.0
19.03090 70.0
19.03590 66.0
19.04090 86.0
19.04590 70.0
19.05090 86.0
19.05590 62.0
19.06090 102.0
19.06590 89.0
19.07090 94.0
19.07590 91.0
19.08090 106.0
19.08590 90.0
19.09090 113.0
19.09590 101.0
19.10090 94.0
19.10590 113.0
19.11090 120.0
19.11590 127.0
19.12090 130.0
19.12590 130.0
19.13090 126.0
19.13590 116.0
19.14090 118.0
19.14590 153.0
19.15090 137.0
19.15590 129.0
19.16090 164.0
19.16590 157.0
19.17090 180.0
19.17590 162.0
19.18090 204.0
19.18590 178.0
19.19090 187.0
19.19590 215.0
19.20090 191.0
19.20590 235.0
19.21090 223.0
19.21590 236.0
19.22090 250.0
19.22590 288.0
19.23090 319.0
19.23590 286.0
19.24090 320.0
19.24590 353.0
19.25090 365.0
19.25590 352.0
19.26090 423.0
19.26590 459.0
19.27090 534.0
19.27590 570.0
19.28090 712.0
19.28590 813.0
19.29090 980.0
19.29590 1038.0
19.30090 1163.0
19.30590 1157.0
19.31090 1248.0
19.31590 1285.0
19.32090 1428.0
19.32590 1378.0
19.33090 1528.0
19.33590 1556.0
19.34090 1663.0
19.34590 1697.0
19.35090 1845.0
19.35590 1980.0
19.36090 1934.0
19.36590 2083.0
19.37090 2279.0
19.37590 2366.0
19.38090 2388.0
19.38590 2547.0
19.39090 2649.0
19.39590 2792.0
19.40090 2760.0
19.40590 2900.0
19.41090 2976.0
19.41590 2797.0
19.42090 2878.0
19.42590 2964.0
19.43090 2797.0
19.43590 2888.0
19.44090 2796.0
19.44590 2647.0
19.45090 2651.0
19.45590 2499.0
19.46090 2532.0
19.46590 2293.0
19.47090 2229.0
19.47590 2192.0
19.48090 2009.0
19.48590 1886.0
19.49090 1787.0
19.49590 1652.0
19.50090 1547.0
19.50590 1444.0
19.51090 1425.0
19.51590 1254.0
19.52090 1159.0
19.52590 1113.0
19.53090 998.0
19.53590 897.0
19.54090 882.0
19.54590 762.0
19.55090 723.0
19.55590 618.0
19.56090 569.0
19.56590 519.0
19.57090 505.0
19.57590 488.0
19.58090 385.0
19.58590 391.0
19.59090 386.0
19.59590 357.0
19.60090 347.0
19.60590 316.0
19.61090 265.0
19.61590 271.0
19.62090 267.0
19.62590 247.0
19.63090 226.0
19.63590 198.0
19.64090 208.0
19.64590 175.0
19.65090 166.0
19.65590 192.0
19.66090 179.0
19.66590 165.0
19.67090 145.0
19.67590 142.0
19.68090 136.0
19.68590 159.0
19.69090 154.0
19.69590 148.0
19.70090 114.0
19.70590 108.0
19.71090 101.0
19.71590 110.0
19.72090 102.0
19.72590 112.0
19.73090 106.0
19.73590 90.0
19.74090 85.0
19.74590 94.0
19.75090 89.0
19.75590 88.0
19.76090 86.0
19.76590 89.0
19.77090 77.0
19.77590 84.0
19.78090 94.0
19.78590 75.0
19.79090 75.0
19.79590 82.0
19.80090 76.0
19.80590 71.0
19.81090 70.0
19.81590 65.0
19.82090 70.0
19.82590 60.0
19.83090 76.0
19.83590 57.0
19.84090 71.0
19.84590 62.0
19.85090 55.0
19.85590 62.0
19.86090 66.0
19.86590 56.0
19.87090 54.0
19.87590 53.0
19.88090 71.0
19.88590 56.0
19.89090 61.0
19.89590 62.0
19.90090 52.0
19.90590 68.0
19.91090 57.0
19.91590 56.0
19.92090 60.0
19.92590 56.0
19.93090 49.0
19.93590 58.0
19.94090 43.0
19.94590 69.0
19.95090 61.0
19.95590 54.0
19.96090 46.0
19.96590 51.0
19.97090 54.0
19.97590 49.0
19.98090 51.0
19.98590 52.0
19.99090 36.0
19.99590 51.0
20.00090 39.0
20.00590 45.0
20.01090 38.0
20.01590 51.0
20.02090 36.0
20.02590 39.0
20.03090 45.0
20.03590 51.0
20.04090 55.0
20.04590 56.0
20.05090 53.0
20.05590 27.0
20.06090 41.0
20.06590 39.0
20.07090 49.0
20.07590 52.0
20.08090 41.0
20.08590 34.0
20.09090 38.0
20.09590 40.0
20.10090 47.0
20.10590 47.0
20.11090 37.0
20.11590 40.0
20.12090 38.0
20.12590 41.0
20.13090 37.0
20.13590 52.0
20.14090 58.0
20.14590 35.0
20.15090 37.0
20.15590 44.0
20.16090 41.0
20.16590 40.0
20.17090 36.0
20.17590 46.0
20.18090 40.0
20.18590 43.0
20.19090 47.0
20.19590 36.0
20.20090 38.0
20.20590 37.0
20.21090 41.0
20.21590 43.0
20.22090 40.0
20.22590 42.0
20.23090 34.0
20.23590 31.0
20.24090 42.0
20.24590 41.0
20.25090 34.0
20.25590 45.0
20.26090 43.0
20.26590 40.0
20.27090 39.0
20.27590 35.0
20.28090 43.0
20.28590 32.0
20.29090 62.0
20.29590 33.0
20.30090 41.0
20.30590 44.0
20.31090 28.0
20.31590 33.0
20.32090 41.0
20.32590 37.0
20.33090 43.0
20.33590 44.0
20.34090 34.0
20.34590 49.0
20.35090 33.0
20.35590 30.0
20.36090 43.0
20.36590 42.0
20.37090 40.0
20.37590 40.0
20.38090 39.0
20.38590 44.0
20.39090 37.0
20.39590 45.0
20.40090 31.0
20.40590 25.0
20.41090 36.0
20.41590 39.0
20.42090 42.0
20.42590 35.0
20.43090 37.0
20.43590 39.0
20.44090 30.0
20.44590 38.0
20.45090 38.0
20.45590 34.0
20.46090 36.0
20.46590 40.0
20.47090 36.0
20.47590 42.0
20.48090 32.0
20.48590 43.0
20.49090 35.0
20.49590 39.0
20.50090 29.0
20.50590 37.0
20.51090 35.0
20.51590 35.0
20.52090 30.0
20.52590 33.0
20.53090 47.0
20.53590 41.0
20.54090 22.0
20.54590 40.0
20.55090 40.0
20.55590 36.0
20.56090 45.0
20.56590 30.0
20.57090 31.0
20.57590 31.0
20.58090 33.0
20.58590 37.0
20.59090 23.0
20.59590 30.0
20.60090 27.0
20.60590 34.0
20.61090 31.0
20.61590 27.0
20.62090 29.0
20.62590 35.0
20.63090 38.0
20.63590 33.0
20.64090 44.0
20.64590 42.0
20.65090 31.0
20.65590 37.0
20.66090 47.0
20.66590 41.0
20.67090 27.0
20.67590 36.0
20.68090 41.0
20.68590 42.0
20.69090 38.0
20.69590 51.0
20.70090 28.0
20.70590 36.0
20.71090 27.0
20.71590 37.0
20.72090 37.0
20.72590 32.0
20.73090 29.0
20.73590 29.0
20.74090 32.0
20.74590 34.0
20.75090 42.0
20.75590 34.0
20.76090 35.0
20.76590 40.0
20.77090 35.0
20.77590 40.0
20.78090 49.0
20.78590 38.0
20.79090 29.0
20.79590 31.0
20.80090 34.0
20.80590 38.0
20.81090 22.0
20.81590 31.0
20.82090 26.0
20.82590 38.0
20.83090 44.0
20.83590 40.0
20.84090 21.0
20.84590 29.0
20.85090 35.0
20.85590 33.0
20.86090 37.0
20.86590 37.0
20.87090 34.0
20.87590 26.0
20.88090 44.0
20.88590 22.0
20.89090 37.0
20.89590 37.0
20.90090 28.0
20.90590 26.0
20.91090 29.0
20.91590 42.0
20.92090 36.0
20.92590 41.0
20.93090 34.0
20.93590 25.0
20.94090 35.0
20.94590 30.0
20.95090 29.0
20.95590 29.0
20.96090 35.0
20.96590 38.0
20.97090 33.0
20.97590 28.0
20.98090 30.0
20.98590 28.0
20.99090 38.0
20.99590 26.0
21.00090 31.0
21.00590 27.0
21.01090 28.0
21.01590 45.0
21.02090 34.0
21.02590 29.0
21.03090 41.0
21.03590 44.0
21.04090 35.0
21.04590 31.0
21.05090 25.0
21.05590 21.0
21.06090 25.0
21.06590 37.0
21.07090 29.0
21.07590 37.0
21.08090 35.0
21.08590 38.0
21.09090 34.0
21.09590 23.0
21.10090 39.0
21.10590 40.0
21.11090 30.0
21.11590 25.0
21.12090 34.0
21.12590 33.0
21.13090 27.0
21.13590 28.0
21.14090 35.0
21.14590 27.0
21.15090 33.0
21.15590 28.0
21.16090 38.0
21.16590 26.0
21.17090 32.0
21.17590 34.0
21.18090 35.0
21.18590 32.0
21.19090 36.0
21.19590 34.0
21.20090 24.0
21.20590 33.0
21.21090 28.0
21.21590 37.0
21.22090 38.0
21.22590 34.0
21.23090 35.0
21.23590 29.0
21.24090 29.0
21.24590 31.0
21.25090 37.0
21.25590 31.0
21.26090 28.0
21.26590 35.0
21.27090 31.0
21.27590 37.0
21.28090 23.0
21.28590 28.0
21.29090 30.0
21.29590 36.0
21.30090 32.0
21.30590 35.0
21.31090 31.0
21.31590 31.0
21.32090 32.0
21.32590 35.0
21.33090 33.0
21.33590 18.0
21.34090 33.0
21.34590 25.0
21.35090 43.0
21.35590 27.0
21.36090 35.0
21.36590 31.0
21.37090 23.0
21.37590 29.0
21.38090 28.0
21.38590 38.0
21.39090 26.0
21.39590 30.0