File: data/W6904r/XRD_Omega/scan_omega_4deg_step_0.005deg0_C5.xy
22.89700 85.0
22.90200 66.0
22.90700 68.0
22.91200 77.0
22.91700 84.0
22.92200 68.0
22.92700 82.0
22.93200 63.0
22.93700 55.0
22.94200 72.0
22.94700 90.0
22.95200 61.0
22.95700 80.0
22.96200 63.0
22.96700 61.0
22.97200 83.0
22.97700 68.0
22.98200 65.0
22.98700 68.0
22.99200 66.0
22.99700 63.0
23.00200 65.0
23.00700 76.0
23.01200 60.0
23.01700 78.0
23.02200 58.0
23.02700 84.0
23.03200 70.0
23.03700 75.0
23.04200 48.0
23.04700 85.0
23.05200 72.0
23.05700 62.0
23.06200 70.0
23.06700 75.0
23.07200 75.0
23.07700 64.0
23.08200 64.0
23.08700 73.0
23.09200 81.0
23.09700 75.0
23.10200 70.0
23.10700 74.0
23.11200 67.0
23.11700 87.0
23.12200 75.0
23.12700 91.0
23.13200 81.0
23.13700 66.0
23.14200 86.0
23.14700 72.0
23.15200 78.0
23.15700 81.0
23.16200 85.0
23.16700 82.0
23.17200 82.0
23.17700 72.0
23.18200 91.0
23.18700 75.0
23.19200 57.0
23.19700 71.0
23.20200 75.0
23.20700 85.0
23.21200 73.0
23.21700 74.0
23.22200 75.0
23.22700 75.0
23.23200 78.0
23.23700 74.0
23.24200 72.0
23.24700 87.0
23.25200 73.0
23.25700 82.0
23.26200 81.0
23.26700 58.0
23.27200 82.0
23.27700 87.0
23.28200 81.0
23.28700 71.0
23.29200 70.0
23.29700 66.0
23.30200 84.0
23.30700 76.0
23.31200 74.0
23.31700 69.0
23.32200 75.0
23.32700 79.0
23.33200 85.0
23.33700 79.0
23.34200 58.0
23.34700 76.0
23.35200 70.0
23.35700 83.0
23.36200 73.0
23.36700 85.0
23.37200 89.0
23.37700 83.0
23.38200 75.0
23.38700 61.0
23.39200 70.0
23.39700 83.0
23.40200 69.0
23.40700 96.0
23.41200 79.0
23.41700 79.0
23.42200 85.0
23.42700 80.0
23.43200 92.0
23.43700 99.0
23.44200 91.0
23.44700 83.0
23.45200 75.0
23.45700 78.0
23.46200 87.0
23.46700 79.0
23.47200 84.0
23.47700 95.0
23.48200 89.0
23.48700 106.0
23.49200 79.0
23.49700 98.0
23.50200 111.0
23.50700 81.0
23.51200 95.0
23.51700 96.0
23.52200 105.0
23.52700 105.0
23.53200 93.0
23.53700 85.0
23.54200 80.0
23.54700 90.0
23.55200 89.0
23.55700 85.0
23.56200 107.0
23.56700 73.0
23.57200 99.0
23.57700 104.0
23.58200 101.0
23.58700 90.0
23.59200 100.0
23.59700 93.0
23.60200 112.0
23.60700 98.0
23.61200 94.0
23.61700 98.0
23.62200 108.0
23.62700 94.0
23.63200 105.0
23.63700 109.0
23.64200 108.0
23.64700 95.0
23.65200 94.0
23.65700 116.0
23.66200 98.0
23.66700 96.0
23.67200 92.0
23.67700 108.0
23.68200 127.0
23.68700 111.0
23.69200 125.0
23.69700 97.0
23.70200 104.0
23.70700 104.0
23.71200 118.0
23.71700 132.0
23.72200 107.0
23.72700 112.0
23.73200 95.0
23.73700 117.0
23.74200 126.0
23.74700 99.0
23.75200 117.0
23.75700 129.0
23.76200 113.0
23.76700 96.0
23.77200 124.0
23.77700 123.0
23.78200 139.0
23.78700 128.0
23.79200 126.0
23.79700 129.0
23.80200 121.0
23.80700 122.0
23.81200 134.0
23.81700 129.0
23.82200 142.0
23.82700 149.0
23.83200 157.0
23.83700 146.0
23.84200 136.0
23.84700 141.0
23.85200 154.0
23.85700 131.0
23.86200 128.0
23.86700 158.0
23.87200 136.0
23.87700 126.0
23.88200 158.0
23.88700 147.0
23.89200 147.0
23.89700 152.0
23.90200 160.0
23.90700 147.0
23.91200 181.0
23.91700 163.0
23.92200 166.0
23.92700 161.0
23.93200 149.0
23.93700 174.0
23.94200 166.0
23.94700 176.0
23.95200 161.0
23.95700 158.0
23.96200 180.0
23.96700 180.0
23.97200 205.0
23.97700 173.0
23.98200 191.0
23.98700 181.0
23.99200 184.0
23.99700 168.0
24.00200 214.0
24.00700 201.0
24.01200 186.0
24.01700 204.0
24.02200 178.0
24.02700 172.0
24.03200 200.0
24.03700 183.0
24.04200 230.0
24.04700 211.0
24.05200 224.0
24.05700 212.0
24.06200 205.0
24.06700 234.0
24.07200 206.0
24.07700 233.0
24.08200 249.0
24.08700 217.0
24.09200 228.0
24.09700 205.0
24.10200 235.0
24.10700 255.0
24.11200 241.0
24.11700 275.0
24.12200 227.0
24.12700 251.0
24.13200 246.0
24.13700 227.0
24.14200 263.0
24.14700 255.0
24.15200 257.0
24.15700 260.0
24.16200 259.0
24.16700 284.0
24.17200 259.0
24.17700 271.0
24.18200 298.0
24.18700 280.0
24.19200 283.0
24.19700 306.0
24.20200 301.0
24.20700 295.0
24.21200 339.0
24.21700 317.0
24.22200 311.0
24.22700 279.0
24.23200 343.0
24.23700 279.0
24.24200 323.0
24.24700 341.0
24.25200 318.0
24.25700 324.0
24.26200 290.0
24.26700 328.0
24.27200 324.0
24.27700 341.0
24.28200 312.0
24.28700 342.0
24.29200 339.0
24.29700 368.0
24.30200 377.0
24.30700 364.0
24.31200 372.0
24.31700 344.0
24.32200 348.0
24.32700 358.0
24.33200 411.0
24.33700 386.0
24.34200 389.0
24.34700 383.0
24.35200 361.0
24.35700 379.0
24.36200 397.0
24.36700 416.0
24.37200 409.0
24.37700 396.0
24.38200 397.0
24.38700 420.0
24.39200 418.0
24.39700 434.0
24.40200 414.0
24.40700 404.0
24.41200 410.0
24.41700 413.0
24.42200 430.0
24.42700 371.0
24.43200 416.0
24.43700 458.0
24.44200 418.0
24.44700 446.0
24.45200 411.0
24.45700 443.0
24.46200 465.0
24.46700 453.0
24.47200 460.0
24.47700 483.0
24.48200 469.0
24.48700 448.0
24.49200 501.0
24.49700 485.0
24.50200 508.0
24.50700 503.0
24.51200 507.0
24.51700 479.0
24.52200 491.0
24.52700 526.0
24.53200 492.0
24.53700 498.0
24.54200 562.0
24.54700 524.0
24.55200 549.0
24.55700 493.0
24.56200 559.0
24.56700 531.0
24.57200 523.0
24.57700 579.0
24.58200 560.0
24.58700 573.0
24.59200 525.0
24.59700 557.0
24.60200 556.0
24.60700 515.0
24.61200 551.0
24.61700 576.0
24.62200 569.0
24.62700 548.0
24.63200 582.0
24.63700 591.0
24.64200 621.0
24.64700 576.0
24.65200 580.0
24.65700 597.0
24.66200 601.0
24.66700 604.0
24.67200 604.0
24.67700 599.0
24.68200 626.0
24.68700 675.0
24.69200 624.0
24.69700 600.0
24.70200 651.0
24.70700 621.0
24.71200 606.0
24.71700 599.0
24.72200 626.0
24.72700 647.0
24.73200 628.0
24.73700 567.0
24.74200 651.0
24.74700 626.0
24.75200 606.0
24.75700 648.0
24.76200 630.0
24.76700 604.0
24.77200 619.0
24.77700 628.0
24.78200 678.0
24.78700 619.0
24.79200 643.0
24.79700 660.0
24.80200 672.0
24.80700 661.0
24.81200 601.0
24.81700 659.0
24.82200 677.0
24.82700 654.0
24.83200 665.0
24.83700 637.0
24.84200 702.0
24.84700 702.0
24.85200 666.0
24.85700 721.0
24.86200 660.0
24.86700 709.0
24.87200 695.0
24.87700 731.0
24.88200 726.0
24.88700 697.0
24.89200 685.0
24.89700 693.0
24.90200 701.0
24.90700 684.0
24.91200 708.0
24.91700 714.0
24.92200 739.0
24.92700 649.0
24.93200 693.0
24.93700 690.0
24.94200 706.0
24.94700 705.0
24.95200 658.0
24.95700 623.0
24.96200 689.0
24.96700 623.0
24.97200 714.0
24.97700 633.0
24.98200 618.0
24.98700 634.0
24.99200 657.0
24.99700 641.0
25.00200 652.0
25.00700 639.0
25.01200 656.0
25.01700 641.0
25.02200 635.0
25.02700 609.0
25.03200 627.0
25.03700 588.0
25.04200 590.0
25.04700 574.0
25.05200 574.0
25.05700 554.0
25.06200 580.0
25.06700 577.0
25.07200 538.0
25.07700 537.0
25.08200 548.0
25.08700 529.0
25.09200 520.0
25.09700 546.0
25.10200 488.0
25.10700 454.0
25.11200 443.0
25.11700 418.0
25.12200 473.0
25.12700 456.0
25.13200 442.0
25.13700 453.0
25.14200 428.0
25.14700 432.0
25.15200 399.0
25.15700 437.0
25.16200 390.0
25.16700 436.0
25.17200 404.0
25.17700 404.0
25.18200 358.0
25.18700 357.0
25.19200 367.0
25.19700 362.0
25.20200 363.0
25.20700 380.0
25.21200 357.0
25.21700 365.0
25.22200 343.0
25.22700 319.0
25.23200 355.0
25.23700 341.0
25.24200 320.0
25.24700 276.0
25.25200 343.0
25.25700 300.0
25.26200 310.0
25.26700 322.0
25.27200 290.0
25.27700 302.0
25.28200 311.0
25.28700 308.0
25.29200 320.0
25.29700 300.0
25.30200 299.0
25.30700 265.0
25.31200 273.0
25.31700 266.0
25.32200 248.0
25.32700 252.0
25.33200 251.0
25.33700 248.0
25.34200 247.0
25.34700 256.0
25.35200 227.0
25.35700 207.0
25.36200 267.0
25.36700 226.0
25.37200 228.0
25.37700 232.0
25.38200 259.0
25.38700 217.0
25.39200 225.0
25.39700 224.0
25.40200 225.0
25.40700 224.0
25.41200 231.0
25.41700 214.0
25.42200 216.0
25.42700 226.0
25.43200 211.0
25.43700 213.0
25.44200 187.0
25.44700 206.0
25.45200 205.0
25.45700 196.0
25.46200 191.0
25.46700 194.0
25.47200 197.0
25.47700 176.0
25.48200 187.0
25.48700 177.0
25.49200 184.0
25.49700 225.0
25.50200 174.0
25.50700 168.0
25.51200 172.0
25.51700 184.0
25.52200 186.0
25.52700 162.0
25.53200 178.0
25.53700 175.0
25.54200 150.0
25.54700 173.0
25.55200 160.0
25.55700 190.0
25.56200 165.0
25.56700 159.0
25.57200 157.0
25.57700 151.0
25.58200 164.0
25.58700 146.0
25.59200 149.0
25.59700 152.0
25.60200 163.0
25.60700 145.0
25.61200 146.0
25.61700 138.0
25.62200 131.0
25.62700 172.0
25.63200 128.0
25.63700 160.0
25.64200 123.0
25.64700 115.0
25.65200 165.0
25.65700 137.0
25.66200 138.0
25.66700 132.0
25.67200 111.0
25.67700 118.0
25.68200 123.0
25.68700 130.0
25.69200 128.0
25.69700 135.0
25.70200 133.0
25.70700 100.0
25.71200 121.0
25.71700 127.0
25.72200 143.0
25.72700 111.0
25.73200 95.0
25.73700 111.0
25.74200 113.0
25.74700 105.0
25.75200 118.0
25.75700 98.0
25.76200 116.0
25.76700 132.0
25.77200 114.0
25.77700 106.0
25.78200 117.0
25.78700 109.0
25.79200 123.0
25.79700 128.0
25.80200 119.0
25.80700 106.0
25.81200 94.0
25.81700 85.0
25.82200 100.0
25.82700 107.0
25.83200 106.0
25.83700 100.0
25.84200 87.0
25.84700 84.0
25.85200 105.0
25.85700 109.0
25.86200 112.0
25.86700 108.0
25.87200 114.0
25.87700 89.0
25.88200 92.0
25.88700 94.0
25.89200 86.0
25.89700 95.0
25.90200 107.0
25.90700 87.0
25.91200 73.0
25.91700 88.0
25.92200 105.0
25.92700 87.0
25.93200 90.0
25.93700 94.0
25.94200 97.0
25.94700 88.0
25.95200 75.0
25.95700 96.0
25.96200 88.0
25.96700 79.0
25.97200 91.0
25.97700 87.0
25.98200 80.0
25.98700 102.0
25.99200 100.0
25.99700 96.0
26.00200 92.0
26.00700 93.0
26.01200 83.0
26.01700 96.0
26.02200 84.0
26.02700 91.0
26.03200 87.0
26.03700 83.0
26.04200 91.0
26.04700 87.0
26.05200 75.0
26.05700 89.0
26.06200 96.0
26.06700 84.0
26.07200 76.0
26.07700 94.0
26.08200 95.0
26.08700 74.0
26.09200 91.0
26.09700 87.0
26.10200 66.0
26.10700 88.0
26.11200 88.0
26.11700 102.0
26.12200 84.0
26.12700 74.0
26.13200 70.0
26.13700 66.0
26.14200 85.0
26.14700 61.0
26.15200 73.0
26.15700 84.0
26.16200 84.0
26.16700 70.0
26.17200 83.0
26.17700 82.0
26.18200 68.0
26.18700 84.0
26.19200 82.0
26.19700 74.0
26.20200 74.0
26.20700 93.0
26.21200 77.0
26.21700 74.0
26.22200 69.0
26.22700 70.0
26.23200 85.0
26.23700 76.0
26.24200 86.0
26.24700 65.0
26.25200 81.0
26.25700 81.0
26.26200 83.0
26.26700 84.0
26.27200 83.0
26.27700 75.0
26.28200 60.0
26.28700 84.0
26.29200 62.0
26.29700 73.0
26.30200 60.0
26.30700 59.0
26.31200 77.0
26.31700 83.0
26.32200 76.0
26.32700 79.0
26.33200 78.0
26.33700 77.0
26.34200 72.0
26.34700 62.0
26.35200 60.0
26.35700 57.0
26.36200 77.0
26.36700 83.0
26.37200 74.0
26.37700 71.0
26.38200 70.0
26.38700 68.0
26.39200 59.0
26.39700 74.0
26.40200 62.0
26.40700 59.0
26.41200 64.0
26.41700 59.0
26.42200 71.0
26.42700 69.0
26.43200 72.0
26.43700 80.0
26.44200 68.0
26.44700 71.0
26.45200 63.0
26.45700 64.0
26.46200 56.0
26.46700 61.0
26.47200 49.0
26.47700 58.0
26.48200 64.0
26.48700 82.0
26.49200 50.0
26.49700 66.0
26.50200 63.0
26.50700 66.0
26.51200 75.0
26.51700 57.0
26.52200 61.0
26.52700 57.0
26.53200 64.0
26.53700 57.0
26.54200 74.0
26.54700 80.0
26.55200 66.0
26.55700 69.0
26.56200 62.0
26.56700 63.0
26.57200 61.0
26.57700 61.0
26.58200 73.0
26.58700 66.0
26.59200 55.0
26.59700 78.0
26.60200 66.0
26.60700 59.0
26.61200 65.0
26.61700 74.0
26.62200 74.0
26.62700 65.0
26.63200 70.0
26.63700 69.0
26.64200 62.0
26.64700 79.0
26.65200 63.0
26.65700 75.0
26.66200 61.0
26.66700 77.0
26.67200 69.0
26.67700 77.0
26.68200 76.0
26.68700 63.0
26.69200 64.0
26.69700 66.0
26.70200 76.0
26.70700 53.0
26.71200 62.0
26.71700 61.0
26.72200 63.0
26.72700 52.0
26.73200 71.0
26.73700 68.0
26.74200 72.0
26.74700 63.0
26.75200 58.0
26.75700 70.0
26.76200 60.0
26.76700 70.0
26.77200 62.0
26.77700 80.0
26.78200 60.0
26.78700 70.0
26.79200 76.0
26.79700 62.0
26.80200 59.0
26.80700 75.0
26.81200 60.0
26.81700 70.0
26.82200 60.0
26.82700 71.0
26.83200 61.0
26.83700 61.0
26.84200 69.0
26.84700 71.0
26.85200 57.0
26.85700 74.0