File: data/W6910r/XRD_2ThetaOmega/scan_2th-om_r2_Cr2O3_45-55deg_PIXscan_5min_C10.xy
45.0025 104.0
45.0123 107.0
45.0222 104.0
45.032 127.0
45.0419 104.0
45.0517 116.0
45.0615 127.0
45.0714 104.0
45.0812 97.0
45.0911 118.0
45.1009 103.0
45.1108 116.0
45.1206 145.0
45.1305 122.0
45.1403 130.0
45.1502 115.0
45.16 122.0
45.1699 113.0
45.1797 100.0
45.1896 112.0
45.1994 93.0
45.2093 123.0
45.2191 100.0
45.229 102.0
45.2388 130.0
45.2487 120.0
45.2585 97.0
45.2684 106.0
45.2782 82.0
45.288 92.0
45.2979 99.0
45.3077 92.0
45.3176 95.0
45.3274 102.0
45.3373 98.0
45.3471 108.0
45.357 89.0
45.3668 102.0
45.3767 111.0
45.3865 106.0
45.3964 138.0
45.4062 114.0
45.4161 95.0
45.4259 126.0
45.4358 115.0
45.4456 78.0
45.4555 113.0
45.4653 85.0
45.4752 112.0
45.485 94.0
45.4948 110.0
45.5047 96.0
45.5145 101.0
45.5244 87.0
45.5342 112.0
45.5441 120.0
45.5539 101.0
45.5638 102.0
45.5736 103.0
45.5835 114.0
45.5933 106.0
45.6032 96.0
45.613 123.0
45.6229 99.0
45.6327 109.0
45.6426 108.0
45.6524 118.0
45.6623 89.0
45.6721 80.0
45.682 103.0
45.6918 113.0
45.7016 116.0
45.7115 104.0
45.7213 96.0
45.7312 112.0
45.741 104.0
45.7509 102.0
45.7607 118.0
45.7706 90.0
45.7804 113.0
45.7903 101.0
45.8001 103.0
45.81 85.0
45.8198 109.0
45.8297 108.0
45.8395 95.0
45.8494 103.0
45.8592 104.0
45.8691 118.0
45.8789 105.0
45.8888 108.0
45.8986 126.0
45.9085 113.0
45.9183 120.0
45.9281 101.0
45.938 98.0
45.9478 104.0
45.9577 95.0
45.9675 108.0
45.9774 106.0
45.9872 103.0
45.9971 115.0
46.0069 94.0
46.0168 113.0
46.0266 114.0
46.0365 105.0
46.0463 116.0
46.0562 127.0
46.066 110.0
46.0759 103.0
46.0857 95.0
46.0956 98.0
46.1054 110.0
46.1153 105.0
46.1251 118.0
46.1349 101.0
46.1448 106.0
46.1546 89.0
46.1645 120.0
46.1743 98.0
46.1842 75.0
46.194 104.0
46.2039 104.0
46.2137 105.0
46.2236 106.0
46.2334 97.0
46.2433 84.0
46.2531 109.0
46.263 104.0
46.2728 93.0
46.2827 110.0
46.2925 98.0
46.3024 110.0
46.3122 98.0
46.3221 105.0
46.3319 107.0
46.3418 105.0
46.3516 97.0
46.3614 110.0
46.3713 108.0
46.3811 99.0
46.391 106.0
46.4008 101.0
46.4107 117.0
46.4205 101.0
46.4304 112.0
46.4402 112.0
46.4501 103.0
46.4599 103.0
46.4698 114.0
46.4796 110.0
46.4895 111.0
46.4993 123.0
46.5092 88.0
46.519 98.0
46.5289 112.0
46.5387 108.0
46.5486 101.0
46.5584 100.0
46.5682 129.0
46.5781 97.0
46.5879 117.0
46.5978 129.0
46.6076 102.0
46.6175 116.0
46.6273 112.0
46.6372 106.0
46.647 108.0
46.6569 104.0
46.6667 126.0
46.6766 103.0
46.6864 104.0
46.6963 127.0
46.7061 128.0
46.716 106.0
46.7258 136.0
46.7357 132.0
46.7455 103.0
46.7554 122.0
46.7652 119.0
46.7751 114.0
46.7849 106.0
46.7947 133.0
46.8046 113.0
46.8144 112.0
46.8243 125.0
46.8341 113.0
46.844 124.0
46.8538 136.0
46.8637 106.0
46.8735 125.0
46.8834 113.0
46.8932 117.0
46.9031 126.0
46.9129 117.0
46.9228 126.0
46.9326 109.0
46.9425 131.0
46.9523 117.0
46.9622 130.0
46.972 157.0
46.9819 165.0
46.9917 173.0
47.0015 178.0
47.0114 184.0
47.0212 208.0
47.0311 277.0
47.0409 401.0
47.0508 569.0
47.0606 840.0
47.0705 1153.0
47.0803 1382.0
47.0902 1457.0
47.1 1442.0
47.1099 1382.0
47.1197 1159.0
47.1296 840.0
47.1394 587.0
47.1493 415.0
47.1591 349.0
47.169 283.0
47.1788 256.0
47.1887 214.0
47.1985 191.0
47.2083 193.0
47.2182 178.0
47.228 143.0
47.2379 131.0
47.2477 160.0
47.2576 150.0
47.2674 137.0
47.2773 136.0
47.2871 141.0
47.297 133.0
47.3068 141.0
47.3167 127.0
47.3265 155.0
47.3364 142.0
47.3462 107.0
47.3561 139.0
47.3659 122.0
47.3758 117.0
47.3856 113.0
47.3955 116.0
47.4053 118.0
47.4152 119.0
47.425 140.0
47.4348 126.0
47.4447 126.0
47.4545 119.0
47.4644 149.0
47.4742 130.0
47.4841 134.0
47.4939 111.0
47.5038 108.0
47.5136 95.0
47.5235 113.0
47.5333 126.0
47.5432 122.0
47.553 114.0
47.5629 139.0
47.5727 123.0
47.5826 114.0
47.5924 134.0
47.6023 111.0
47.6121 110.0
47.622 124.0
47.6318 136.0
47.6416 135.0
47.6515 115.0
47.6613 120.0
47.6712 131.0
47.681 135.0
47.6909 133.0
47.7007 128.0
47.7106 109.0
47.7204 115.0
47.7303 138.0
47.7401 134.0
47.75 125.0
47.7598 130.0
47.7697 135.0
47.7795 129.0
47.7894 123.0
47.7992 127.0
47.8091 126.0
47.8189 119.0
47.8288 132.0
47.8386 121.0
47.8485 123.0
47.8583 130.0
47.8681 118.0
47.878 116.0
47.8878 127.0
47.8977 103.0
47.9075 127.0
47.9174 133.0
47.9272 125.0
47.9371 112.0
47.9469 131.0
47.9568 124.0
47.9666 118.0
47.9765 115.0
47.9863 131.0
47.9962 103.0
48.006 109.0
48.0159 112.0
48.0257 122.0
48.0356 141.0
48.0454 111.0
48.0553 114.0
48.0651 123.0
48.0749 138.0
48.0848 122.0
48.0946 129.0
48.1045 129.0
48.1143 129.0
48.1242 143.0
48.134 121.0
48.1439 138.0
48.1537 138.0
48.1636 122.0
48.1734 126.0
48.1833 131.0
48.1931 118.0
48.203 110.0
48.2128 133.0
48.2227 108.0
48.2325 169.0
48.2424 120.0
48.2522 127.0
48.2621 126.0
48.2719 143.0
48.2818 122.0
48.2916 117.0
48.3014 143.0
48.3113 117.0
48.3211 146.0
48.331 125.0
48.3408 131.0
48.3507 137.0
48.3605 144.0
48.3704 134.0
48.3802 147.0
48.3901 132.0
48.3999 156.0
48.4098 127.0
48.4196 149.0
48.4295 145.0
48.4393 133.0
48.4492 134.0
48.459 138.0
48.4689 119.0
48.4787 138.0
48.4886 137.0
48.4984 133.0
48.5082 142.0
48.5181 144.0
48.5279 148.0
48.5378 128.0
48.5476 143.0
48.5575 138.0
48.5673 125.0
48.5772 129.0
48.587 137.0
48.5969 148.0
48.6067 140.0
48.6166 135.0
48.6264 156.0
48.6363 155.0
48.6461 142.0
48.656 136.0
48.6658 186.0
48.6757 141.0
48.6855 137.0
48.6954 148.0
48.7052 145.0
48.715 135.0
48.7249 156.0
48.7347 151.0
48.7446 157.0
48.7544 165.0
48.7643 160.0
48.7741 158.0
48.784 157.0
48.7938 156.0
48.8037 156.0
48.8135 166.0
48.8234 171.0
48.8332 172.0
48.8431 167.0
48.8529 163.0
48.8628 195.0
48.8726 180.0
48.8825 177.0
48.8923 132.0
48.9022 158.0
48.912 161.0
48.9219 197.0
48.9317 170.0
48.9415 187.0
48.9514 158.0
48.9612 161.0
48.9711 184.0
48.9809 155.0
48.9908 156.0
49.0006 212.0
49.0105 181.0
49.0203 182.0
49.0302 170.0
49.04 176.0
49.0499 186.0
49.0597 180.0
49.0696 196.0
49.0794 197.0
49.0893 173.0
49.0991 196.0
49.109 198.0
49.1188 215.0
49.1287 220.0
49.1385 203.0
49.1483 223.0
49.1582 216.0
49.168 214.0
49.1779 233.0
49.1877 208.0
49.1976 231.0
49.2074 230.0
49.2173 240.0
49.2271 224.0
49.237 268.0
49.2468 260.0
49.2567 246.0
49.2665 247.0
49.2764 291.0
49.2862 266.0
49.2961 304.0
49.3059 256.0
49.3158 318.0
49.3256 301.0
49.3355 297.0
49.3453 310.0
49.3552 322.0
49.365 322.0
49.3748 342.0
49.3847 368.0
49.3945 352.0
49.4044 379.0
49.4142 392.0
49.4241 425.0
49.4339 455.0
49.4438 469.0
49.4536 457.0
49.4635 479.0
49.4733 499.0
49.4832 542.0
49.493 577.0
49.5029 571.0
49.5127 672.0
49.5226 728.0
49.5324 667.0
49.5423 705.0
49.5521 746.0
49.562 868.0
49.5718 909.0
49.5816 938.0
49.5915 1011.0
49.6013 1077.0
49.6112 1110.0
49.621 1236.0
49.6309 1250.0
49.6407 1454.0
49.6506 1419.0
49.6604 1656.0
49.6703 1712.0
49.6801 1896.0
49.69 2003.0
49.6998 2120.0
49.7097 2169.0
49.7195 2318.0
49.7294 2464.0
49.7392 2763.0
49.7491 2824.0
49.7589 3004.0
49.7688 3115.0
49.7786 3322.0
49.7884 3500.0
49.7983 3588.0
49.8081 3747.0
49.818 3961.0
49.8278 4161.0
49.8377 4226.0
49.8475 4462.0
49.8574 4525.0
49.8672 4588.0
49.8771 4620.0
49.8869 4728.0
49.8968 4780.0
49.9066 4852.0
49.9165 4760.0
49.9263 4763.0
49.9362 4760.0
49.946 4627.0
49.9559 4616.0
49.9657 4655.0
49.9756 4534.0
49.9854 4298.0
49.9953 4227.0
50.0051 4324.0
50.0149 4057.0
50.0248 3909.0
50.0346 3826.0
50.0445 3665.0
50.0543 3574.0
50.0642 3454.0
50.074 3193.0
50.0839 3176.0
50.0937 3009.0
50.1036 2861.0
50.1134 2689.0
50.1233 2522.0
50.1331 2465.0
50.143 2429.0
50.1528 2225.0
50.1627 2121.0
50.1725 1973.0
50.1824 1869.0
50.1922 1737.0
50.2021 1695.0
50.2119 1583.0
50.2217 1560.0
50.2316 1391.0
50.2414 1294.0
50.2513 1215.0
50.2611 1172.0
50.271 1100.0
50.2808 1098.0
50.2907 1025.0
50.3005 912.0
50.3104 919.0
50.3202 858.0
50.3301 844.0
50.3399 738.0
50.3498 698.0
50.3596 712.0
50.3695 661.0
50.3793 635.0
50.3892 651.0
50.399 581.0
50.4089 562.0
50.4187 531.0
50.4286 517.0
50.4384 530.0
50.4482 475.0
50.4581 459.0
50.4679 434.0
50.4778 456.0
50.4876 391.0
50.4975 414.0
50.5073 417.0
50.5172 362.0
50.527 382.0
50.5369 376.0
50.5467 363.0
50.5566 386.0
50.5664 349.0
50.5763 398.0
50.5861 333.0
50.596 354.0
50.6058 329.0
50.6157 314.0
50.6255 278.0
50.6354 313.0
50.6452 294.0
50.655 306.0
50.6649 313.0
50.6747 289.0
50.6846 286.0
50.6944 300.0
50.7043 284.0
50.7141 281.0
50.724 276.0
50.7338 304.0
50.7437 219.0
50.7535 260.0
50.7634 296.0
50.7732 292.0
50.7831 255.0
50.7929 272.0
50.8028 293.0
50.8126 275.0
50.8225 259.0
50.8323 262.0
50.8422 276.0
50.852 232.0
50.8619 277.0
50.8717 283.0
50.8815 292.0
50.8914 259.0
50.9012 237.0
50.9111 258.0
50.9209 279.0
50.9308 258.0
50.9406 265.0
50.9505 290.0
50.9603 282.0
50.9702 291.0
50.98 255.0
50.9899 292.0
50.9997 325.0
51.0096 309.0
51.0194 290.0
51.0293 293.0
51.0391 293.0
51.049 281.0
51.0588 315.0
51.0687 285.0
51.0785 266.0
51.0883 296.0
51.0982 295.0
51.108 332.0
51.1179 309.0
51.1277 319.0
51.1376 326.0
51.1474 333.0
51.1573 365.0
51.1671 332.0
51.177 343.0
51.1868 304.0
51.1967 331.0
51.2065 307.0
51.2164 374.0
51.2262 375.0
51.2361 356.0
51.2459 403.0
51.2558 382.0
51.2656 364.0
51.2755 372.0
51.2853 365.0
51.2951 387.0
51.305 388.0
51.3148 399.0
51.3247 364.0
51.3345 390.0
51.3444 372.0
51.3542 401.0
51.3641 422.0
51.3739 419.0
51.3838 410.0
51.3936 414.0
51.4035 449.0
51.4133 356.0
51.4232 417.0
51.433 434.0
51.4429 430.0
51.4527 454.0
51.4626 428.0
51.4724 450.0
51.4823 442.0
51.4921 450.0
51.502 436.0
51.5118 443.0
51.5216 489.0
51.5315 455.0
51.5413 503.0
51.5512 514.0
51.561 483.0
51.5709 509.0
51.5807 467.0
51.5906 513.0
51.6004 533.0
51.6103 515.0
51.6201 535.0
51.63 513.0
51.6398 545.0
51.6497 603.0
51.6595 553.0
51.6694 546.0
51.6792 514.0
51.6891 575.0
51.6989 588.0
51.7088 591.0
51.7186 582.0
51.7284 572.0
51.7383 649.0
51.7481 585.0
51.758 593.0
51.7678 672.0
51.7777 665.0
51.7875 670.0
51.7974 653.0
51.8072 660.0
51.8171 660.0
51.8269 669.0
51.8368 709.0
51.8466 686.0
51.8565 680.0
51.8663 708.0
51.8762 728.0
51.886 737.0
51.8959 717.0
51.9057 814.0
51.9156 799.0
51.9254 797.0
51.9353 806.0
51.9451 817.0
51.9549 849.0
51.9648 862.0
51.9746 878.0
51.9845 874.0
51.9943 945.0
52.0042 973.0
52.014 965.0
52.0239 1062.0
52.0337 1062.0
52.0436 1125.0
52.0534 1085.0
52.0633 1174.0
52.0731 1243.0
52.083 1247.0
52.0928 1312.0
52.1027 1388.0
52.1125 1387.0
52.1224 1446.0
52.1322 1589.0
52.1421 1680.0
52.1519 1768.0
52.1617 1949.0
52.1716 2186.0
52.1814 2396.0
52.1913 2689.0
52.2011 3139.0
52.211 3562.0
52.2208 3922.0
52.2307 4228.0
52.2405 4466.0
52.2504 4700.0
52.2602 4706.0
52.2701 4740.0
52.2799 4691.0
52.2898 4539.0
52.2996 4519.0
52.3095 4474.0
52.3193 4583.0
52.3292 5034.0
52.339 5556.0
52.3489 6050.0
52.3587 6872.0
52.3686 7748.0
52.3784 9600.0
52.3882 11401.0
52.3981 14354.0
52.4079 18667.0
52.4178 25127.0
52.4276 37261.0
52.4375 62470.0
52.4473 125537.0
52.4572 246467.0
52.467 337712.0
52.4769 378202.0
52.4867 390043.0
52.4966 374652.0
52.5064 306613.0
52.5163 182149.0
52.5261 96343.0
52.536 56872.0
52.5458 38889.0
52.5557 31672.0
52.5655 31485.0
52.5754 39226.0
52.5852 61826.0
52.595 110604.0
52.6049 159662.0
52.6147 186776.0
52.6246 194431.0
52.6344 189573.0
52.6443 163756.0
52.6541 111970.0
52.664 63145.0
52.6738 35631.0
52.6837 21742.0
52.6935 15358.0
52.7034 11193.0
52.7132 8971.0
52.7231 7436.0
52.7329 6481.0
52.7428 5670.0
52.7526 5141.0
52.7625 4411.0
52.7723 4188.0
52.7822 3812.0
52.792 3549.0
52.8018 3157.0
52.8117 3087.0
52.8215 2714.0
52.8314 2611.0
52.8412 2398.0
52.8511 2295.0
52.8609 2136.0
52.8708 2094.0
52.8806 2040.0
52.8905 1859.0
52.9003 1824.0
52.9102 1742.0
52.92 1702.0
52.9299 1573.0
52.9397 1522.0
52.9496 1359.0
52.9594 1315.0
52.9693 1318.0
52.9791 1287.0
52.989 1217.0
52.9988 1178.0
53.0087 1190.0
53.0185 1108.0
53.0283 1067.0
53.0382 1017.0
53.048 950.0
53.0579 936.0
53.0677 917.0
53.0776 903.0
53.0874 910.0
53.0973 841.0
53.1071 848.0
53.117 842.0
53.1268 772.0
53.1367 776.0
53.1465 768.0
53.1564 753.0
53.1662 731.0
53.1761 742.0
53.1859 673.0
53.1958 710.0
53.2056 678.0
53.2155 659.0
53.2253 634.0
53.2351 635.0
53.245 600.0
53.2548 615.0
53.2647 602.0
53.2745 521.0
53.2844 541.0
53.2942 552.0
53.3041 556.0
53.3139 523.0
53.3238 462.0
53.3336 456.0
53.3435 462.0
53.3533 473.0
53.3632 500.0
53.373 430.0
53.3829 439.0
53.3927 397.0
53.4026 441.0
53.4124 413.0
53.4223 428.0
53.4321 385.0
53.442 365.0
53.4518 381.0
53.4616 391.0
53.4715 363.0
53.4813 371.0
53.4912 335.0
53.501 372.0
53.5109 359.0
53.5207 359.0
53.5306 303.0
53.5404 337.0
53.5503 321.0
53.5601 273.0
53.57 303.0
53.5798 303.0
53.5897 292.0
53.5995 291.0
53.6094 263.0
53.6192 271.0
53.6291 283.0
53.6389 266.0
53.6488 289.0
53.6586 263.0
53.6684 275.0
53.6783 285.0
53.6881 263.0
53.698 228.0
53.7078 223.0
53.7177 227.0
53.7275 192.0
53.7374 270.0
53.7472 226.0
53.7571 236.0
53.7669 209.0
53.7768 189.0
53.7866 224.0
53.7965 260.0
53.8063 198.0
53.8162 211.0
53.826 196.0
53.8359 188.0
53.8457 203.0
53.8556 208.0
53.8654 221.0
53.8753 159.0
53.8851 187.0
53.8949 198.0
53.9048 201.0
53.9146 206.0
53.9245 181.0
53.9343 201.0
53.9442 221.0
53.954 203.0
53.9639 166.0
53.9737 196.0
53.9836 189.0
53.9934 165.0
54.0033 199.0
54.0131 166.0
54.023 181.0
54.0328 163.0
54.0427 179.0
54.0525 187.0
54.0624 164.0
54.0722 170.0
54.0821 166.0
54.0919 185.0
54.1017 180.0
54.1116 165.0
54.1214 181.0
54.1313 167.0
54.1411 148.0
54.151 163.0
54.1608 182.0
54.1707 183.0
54.1805 162.0
54.1904 173.0
54.2002 144.0
54.2101 166.0
54.2199 154.0
54.2298 178.0
54.2396 156.0
54.2495 171.0
54.2593 167.0
54.2692 148.0
54.279 165.0
54.2889 152.0
54.2987 166.0
54.3085 139.0
54.3184 166.0
54.3282 162.0
54.3381 154.0
54.3479 147.0
54.3578 164.0
54.3676 160.0
54.3775 177.0
54.3873 145.0
54.3972 182.0
54.407 157.0
54.4169 154.0
54.4267 155.0
54.4366 158.0
54.4464 155.0
54.4563 128.0
54.4661 167.0
54.476 139.0
54.4858 157.0
54.4957 139.0
54.5055 152.0
54.5154 162.0
54.5252 134.0
54.535 153.0
54.5449 147.0
54.5547 154.0
54.5646 145.0
54.5744 165.0
54.5843 145.0
54.5941 144.0
54.604 150.0
54.6138 159.0
54.6237 166.0
54.6335 163.0
54.6434 153.0
54.6532 163.0
54.6631 168.0
54.6729 138.0
54.6828 146.0
54.6926 157.0
54.7025 131.0
54.7123 153.0
54.7222 154.0
54.732 155.0
54.7418 144.0
54.7517 143.0
54.7615 145.0
54.7714 143.0
54.7812 145.0
54.7911 148.0
54.8009 145.0
54.8108 158.0
54.8206 143.0
54.8305 144.0
54.8403 117.0
54.8502 127.0
54.86 144.0
54.8699 139.0
54.8797 156.0
54.8896 127.0
54.8994 151.0
54.9093 147.0
54.9191 122.0
54.929 143.0
54.9388 141.0
54.9487 115.0
54.9585 140.0
54.9683 128.0
54.9782 141.0
54.988 159.0
54.9979 135.0