File: data/W6910r/XRD_Omega/scan_omega_4deg_step_0.005deg0_C10.xy
22.71370 58.0
22.71870 65.0
22.72370 77.0
22.72870 79.0
22.73370 65.0
22.73870 64.0
22.74370 73.0
22.74870 79.0
22.75370 61.0
22.75870 79.0
22.76370 79.0
22.76870 69.0
22.77370 64.0
22.77870 70.0
22.78370 81.0
22.78870 73.0
22.79370 77.0
22.79870 72.0
22.80370 65.0
22.80870 88.0
22.81370 72.0
22.81870 77.0
22.82370 82.0
22.82870 61.0
22.83370 77.0
22.83870 69.0
22.84370 68.0
22.84870 74.0
22.85370 80.0
22.85870 65.0
22.86370 76.0
22.86870 66.0
22.87370 73.0
22.87870 75.0
22.88370 72.0
22.88870 81.0
22.89370 86.0
22.89870 92.0
22.90370 60.0
22.90870 81.0
22.91370 93.0
22.91870 88.0
22.92370 77.0
22.92870 66.0
22.93370 90.0
22.93870 85.0
22.94370 91.0
22.94870 93.0
22.95370 98.0
22.95870 75.0
22.96370 103.0
22.96870 97.0
22.97370 81.0
22.97870 74.0
22.98370 82.0
22.98870 90.0
22.99370 94.0
22.99870 85.0
23.00370 90.0
23.00870 89.0
23.01370 96.0
23.01870 90.0
23.02370 83.0
23.02870 70.0
23.03370 83.0
23.03870 90.0
23.04370 80.0
23.04870 72.0
23.05370 82.0
23.05870 105.0
23.06370 87.0
23.06870 89.0
23.07370 78.0
23.07870 78.0
23.08370 97.0
23.08870 72.0
23.09370 95.0
23.09870 91.0
23.10370 101.0
23.10870 91.0
23.11370 89.0
23.11870 79.0
23.12370 84.0
23.12870 73.0
23.13370 87.0
23.13870 87.0
23.14370 89.0
23.14870 96.0
23.15370 124.0
23.15870 111.0
23.16370 76.0
23.16870 85.0
23.17370 119.0
23.17870 106.0
23.18370 93.0
23.18870 82.0
23.19370 105.0
23.19870 104.0
23.20370 106.0
23.20870 104.0
23.21370 106.0
23.21870 109.0
23.22370 108.0
23.22870 118.0
23.23370 133.0
23.23870 94.0
23.24370 118.0
23.24870 107.0
23.25370 100.0
23.25870 104.0
23.26370 114.0
23.26870 122.0
23.27370 130.0
23.27870 83.0
23.28370 106.0
23.28870 106.0
23.29370 104.0
23.29870 94.0
23.30370 100.0
23.30870 119.0
23.31370 106.0
23.31870 108.0
23.32370 117.0
23.32870 120.0
23.33370 124.0
23.33870 139.0
23.34370 120.0
23.34870 124.0
23.35370 124.0
23.35870 136.0
23.36370 130.0
23.36870 117.0
23.37370 126.0
23.37870 129.0
23.38370 125.0
23.38870 130.0
23.39370 107.0
23.39870 115.0
23.40370 132.0
23.40870 139.0
23.41370 141.0
23.41870 149.0
23.42370 133.0
23.42870 112.0
23.43370 145.0
23.43870 127.0
23.44370 147.0
23.44870 147.0
23.45370 164.0
23.45870 153.0
23.46370 146.0
23.46870 148.0
23.47370 163.0
23.47870 157.0
23.48370 138.0
23.48870 174.0
23.49370 138.0
23.49870 165.0
23.50370 160.0
23.50870 146.0
23.51370 157.0
23.51870 194.0
23.52370 146.0
23.52870 153.0
23.53370 160.0
23.53870 172.0
23.54370 179.0
23.54870 171.0
23.55370 172.0
23.55870 189.0
23.56370 190.0
23.56870 204.0
23.57370 204.0
23.57870 172.0
23.58370 185.0
23.58870 184.0
23.59370 186.0
23.59870 197.0
23.60370 213.0
23.60870 220.0
23.61370 205.0
23.61870 197.0
23.62370 213.0
23.62870 225.0
23.63370 209.0
23.63870 241.0
23.64370 206.0
23.64870 238.0
23.65370 202.0
23.65870 209.0
23.66370 248.0
23.66870 227.0
23.67370 230.0
23.67870 257.0
23.68370 241.0
23.68870 231.0
23.69370 213.0
23.69870 263.0
23.70370 264.0
23.70870 307.0
23.71370 238.0
23.71870 318.0
23.72370 267.0
23.72870 271.0
23.73370 271.0
23.73870 255.0
23.74370 279.0
23.74870 303.0
23.75370 301.0
23.75870 311.0
23.76370 314.0
23.76870 285.0
23.77370 315.0
23.77870 364.0
23.78370 297.0
23.78870 293.0
23.79370 333.0
23.79870 352.0
23.80370 356.0
23.80870 364.0
23.81370 379.0
23.81870 355.0
23.82370 375.0
23.82870 362.0
23.83370 358.0
23.83870 393.0
23.84370 359.0
23.84870 369.0
23.85370 400.0
23.85870 407.0
23.86370 436.0
23.86870 428.0
23.87370 414.0
23.87870 426.0
23.88370 438.0
23.88870 417.0
23.89370 450.0
23.89870 477.0
23.90370 485.0
23.90870 482.0
23.91370 460.0
23.91870 476.0
23.92370 493.0
23.92870 492.0
23.93370 490.0
23.93870 535.0
23.94370 520.0
23.94870 539.0
23.95370 508.0
23.95870 553.0
23.96370 545.0
23.96870 578.0
23.97370 564.0
23.97870 588.0
23.98370 623.0
23.98870 626.0
23.99370 581.0
23.99870 597.0
24.00370 599.0
24.00870 680.0
24.01370 662.0
24.01870 669.0
24.02370 684.0
24.02870 720.0
24.03370 713.0
24.03870 738.0
24.04370 719.0
24.04870 717.0
24.05370 754.0
24.05870 765.0
24.06370 768.0
24.06870 769.0
24.07370 810.0
24.07870 820.0
24.08370 756.0
24.08870 813.0
24.09370 885.0
24.09870 826.0
24.10370 874.0
24.10870 886.0
24.11370 904.0
24.11870 872.0
24.12370 976.0
24.12870 907.0
24.13370 944.0
24.13870 970.0
24.14370 932.0
24.14870 1031.0
24.15370 1024.0
24.15870 1006.0
24.16370 1067.0
24.16870 1096.0
24.17370 1126.0
24.17870 1092.0
24.18370 1158.0
24.18870 1165.0
24.19370 1179.0
24.19870 1176.0
24.20370 1144.0
24.20870 1165.0
24.21370 1213.0
24.21870 1266.0
24.22370 1234.0
24.22870 1265.0
24.23370 1332.0
24.23870 1395.0
24.24370 1394.0
24.24870 1428.0
24.25370 1346.0
24.25870 1386.0
24.26370 1388.0
24.26870 1512.0
24.27370 1428.0
24.27870 1501.0
24.28370 1525.0
24.28870 1547.0
24.29370 1551.0
24.29870 1644.0
24.30370 1530.0
24.30870 1615.0
24.31370 1658.0
24.31870 1571.0
24.32370 1752.0
24.32870 1709.0
24.33370 1633.0
24.33870 1741.0
24.34370 1773.0
24.34870 1809.0
24.35370 1784.0
24.35870 1848.0
24.36370 1853.0
24.36870 1796.0
24.37370 1883.0
24.37870 1914.0
24.38370 1885.0
24.38870 1971.0
24.39370 1954.0
24.39870 1960.0
24.40370 2074.0
24.40870 2027.0
24.41370 2115.0
24.41870 2056.0
24.42370 2188.0
24.42870 2129.0
24.43370 2149.0
24.43870 2156.0
24.44370 2211.0
24.44870 2316.0
24.45370 2158.0
24.45870 2210.0
24.46370 2291.0
24.46870 2372.0
24.47370 2319.0
24.47870 2255.0
24.48370 2365.0
24.48870 2440.0
24.49370 2455.0
24.49870 2343.0
24.50370 2462.0
24.50870 2370.0
24.51370 2420.0
24.51870 2493.0
24.52370 2437.0
24.52870 2437.0
24.53370 2465.0
24.53870 2564.0
24.54370 2519.0
24.54870 2538.0
24.55370 2456.0
24.55870 2690.0
24.56370 2567.0
24.56870 2630.0
24.57370 2723.0
24.57870 2686.0
24.58370 2735.0
24.58870 2578.0
24.59370 2646.0
24.59870 2712.0
24.60370 2693.0
24.60870 2816.0
24.61370 2642.0
24.61870 2785.0
24.62370 2767.0
24.62870 2863.0
24.63370 2738.0
24.63870 2819.0
24.64370 2781.0
24.64870 2842.0
24.65370 2803.0
24.65870 2691.0
24.66370 2804.0
24.66870 2855.0
24.67370 2752.0
24.67870 2809.0
24.68370 2786.0
24.68870 2749.0
24.69370 2946.0
24.69870 2933.0
24.70370 2788.0
24.70870 2884.0
24.71370 2838.0
24.71870 2819.0
24.72370 2792.0
24.72870 2718.0
24.73370 2856.0
24.73870 2688.0
24.74370 2794.0
24.74870 2854.0
24.75370 2728.0
24.75870 2829.0
24.76370 2758.0
24.76870 2778.0
24.77370 2769.0
24.77870 2796.0
24.78370 2790.0
24.78870 2681.0
24.79370 2817.0
24.79870 2664.0
24.80370 2704.0
24.80870 2719.0
24.81370 2642.0
24.81870 2649.0
24.82370 2513.0
24.82870 2655.0
24.83370 2615.0
24.83870 2511.0
24.84370 2489.0
24.84870 2581.0
24.85370 2642.0
24.85870 2609.0
24.86370 2515.0
24.86870 2485.0
24.87370 2550.0
24.87870 2445.0
24.88370 2491.0
24.88870 2471.0
24.89370 2373.0
24.89870 2339.0
24.90370 2389.0
24.90870 2325.0
24.91370 2253.0
24.91870 2324.0
24.92370 2244.0
24.92870 2148.0
24.93370 2170.0
24.93870 2157.0
24.94370 2140.0
24.94870 2203.0
24.95370 2081.0
24.95870 2089.0
24.96370 2096.0
24.96870 2092.0
24.97370 1971.0
24.97870 2000.0
24.98370 1942.0
24.98870 1952.0
24.99370 1911.0
24.99870 1862.0
25.00370 1920.0
25.00870 1922.0
25.01370 1831.0
25.01870 1808.0
25.02370 1841.0
25.02870 1772.0
25.03370 1812.0
25.03870 1674.0
25.04370 1661.0
25.04870 1703.0
25.05370 1639.0
25.05870 1647.0
25.06370 1754.0
25.06870 1585.0
25.07370 1609.0
25.07870 1612.0
25.08370 1556.0
25.08870 1536.0
25.09370 1568.0
25.09870 1501.0
25.10370 1489.0
25.10870 1480.0
25.11370 1445.0
25.11870 1414.0
25.12370 1378.0
25.12870 1360.0
25.13370 1319.0
25.13870 1314.0
25.14370 1372.0
25.14870 1314.0
25.15370 1248.0
25.15870 1239.0
25.16370 1199.0
25.16870 1247.0
25.17370 1196.0
25.17870 1197.0
25.18370 1157.0
25.18870 1187.0
25.19370 1136.0
25.19870 1170.0
25.20370 1125.0
25.20870 1083.0
25.21370 1013.0
25.21870 1045.0
25.22370 1048.0
25.22870 973.0
25.23370 974.0
25.23870 968.0
25.24370 972.0
25.24870 928.0
25.25370 937.0
25.25870 916.0
25.26370 894.0
25.26870 867.0
25.27370 896.0
25.27870 916.0
25.28370 876.0
25.28870 834.0
25.29370 853.0
25.29870 820.0
25.30370 743.0
25.30870 785.0
25.31370 692.0
25.31870 803.0
25.32370 696.0
25.32870 773.0
25.33370 733.0
25.33870 776.0
25.34370 733.0
25.34870 664.0
25.35370 682.0
25.35870 708.0
25.36370 657.0
25.36870 635.0
25.37370 688.0
25.37870 628.0
25.38370 637.0
25.38870 594.0
25.39370 569.0
25.39870 580.0
25.40370 560.0
25.40870 583.0
25.41370 560.0
25.41870 535.0
25.42370 555.0
25.42870 515.0
25.43370 526.0
25.43870 509.0
25.44370 485.0
25.44870 522.0
25.45370 496.0
25.45870 497.0
25.46370 491.0
25.46870 450.0
25.47370 481.0
25.47870 469.0
25.48370 413.0
25.48870 435.0
25.49370 457.0
25.49870 390.0
25.50370 419.0
25.50870 435.0
25.51370 392.0
25.51870 396.0
25.52370 376.0
25.52870 369.0
25.53370 379.0
25.53870 364.0
25.54370 362.0
25.54870 330.0
25.55370 368.0
25.55870 347.0
25.56370 322.0
25.56870 307.0
25.57370 340.0
25.57870 355.0
25.58370 333.0
25.58870 363.0
25.59370 325.0
25.59870 349.0
25.60370 320.0
25.60870 295.0
25.61370 286.0
25.61870 307.0
25.62370 279.0
25.62870 297.0
25.63370 271.0
25.63870 265.0
25.64370 274.0
25.64870 251.0
25.65370 264.0
25.65870 249.0
25.66370 244.0
25.66870 250.0
25.67370 229.0
25.67870 231.0
25.68370 250.0
25.68870 214.0
25.69370 235.0
25.69870 258.0
25.70370 248.0
25.70870 216.0
25.71370 240.0
25.71870 236.0
25.72370 230.0
25.72870 218.0
25.73370 234.0
25.73870 185.0
25.74370 204.0
25.74870 193.0
25.75370 213.0
25.75870 183.0
25.76370 177.0
25.76870 198.0
25.77370 192.0
25.77870 174.0
25.78370 181.0
25.78870 206.0
25.79370 184.0
25.79870 195.0
25.80370 176.0
25.80870 178.0
25.81370 177.0
25.81870 164.0
25.82370 178.0
25.82870 174.0
25.83370 169.0
25.83870 148.0
25.84370 175.0
25.84870 157.0
25.85370 161.0
25.85870 169.0
25.86370 147.0
25.86870 143.0
25.87370 146.0
25.87870 143.0
25.88370 143.0
25.88870 127.0
25.89370 146.0
25.89870 130.0
25.90370 157.0
25.90870 125.0
25.91370 132.0
25.91870 129.0
25.92370 133.0
25.92870 133.0
25.93370 137.0
25.93870 129.0
25.94370 109.0
25.94870 116.0
25.95370 141.0
25.95870 116.0
25.96370 126.0
25.96870 125.0
25.97370 117.0
25.97870 125.0
25.98370 118.0
25.98870 129.0
25.99370 125.0
25.99870 114.0
26.00370 120.0
26.00870 132.0
26.01370 110.0
26.01870 122.0
26.02370 121.0
26.02870 121.0
26.03370 117.0
26.03870 126.0
26.04370 104.0
26.04870 130.0
26.05370 111.0
26.05870 124.0
26.06370 112.0
26.06870 101.0
26.07370 112.0
26.07870 117.0
26.08370 79.0
26.08870 95.0
26.09370 110.0
26.09870 95.0
26.10370 102.0
26.10870 110.0
26.11370 100.0
26.11870 101.0
26.12370 93.0
26.12870 78.0
26.13370 105.0
26.13870 77.0
26.14370 75.0
26.14870 112.0
26.15370 115.0
26.15870 83.0
26.16370 81.0
26.16870 84.0
26.17370 97.0
26.17870 99.0
26.18370 78.0
26.18870 76.0
26.19370 87.0
26.19870 91.0
26.20370 99.0
26.20870 93.0
26.21370 88.0
26.21870 89.0
26.22370 85.0
26.22870 83.0
26.23370 76.0
26.23870 79.0
26.24370 84.0
26.24870 78.0
26.25370 82.0
26.25870 81.0
26.26370 78.0
26.26870 87.0
26.27370 63.0
26.27870 95.0
26.28370 76.0
26.28870 74.0
26.29370 78.0
26.29870 72.0
26.30370 87.0
26.30870 77.0
26.31370 76.0
26.31870 79.0
26.32370 77.0
26.32870 69.0
26.33370 68.0
26.33870 78.0
26.34370 85.0
26.34870 70.0
26.35370 95.0
26.35870 79.0
26.36370 66.0
26.36870 83.0
26.37370 69.0
26.37870 84.0
26.38370 76.0
26.38870 73.0
26.39370 81.0
26.39870 69.0
26.40370 83.0
26.40870 80.0
26.41370 73.0
26.41870 84.0
26.42370 62.0
26.42870 75.0
26.43370 68.0
26.43870 82.0
26.44370 67.0
26.44870 53.0
26.45370 91.0
26.45870 65.0
26.46370 80.0
26.46870 74.0
26.47370 86.0
26.47870 64.0
26.48370 75.0
26.48870 69.0
26.49370 71.0
26.49870 74.0
26.50370 55.0
26.50870 73.0
26.51370 63.0
26.51870 65.0
26.52370 62.0
26.52870 63.0
26.53370 64.0
26.53870 79.0
26.54370 63.0
26.54870 75.0
26.55370 71.0
26.55870 56.0
26.56370 67.0
26.56870 73.0
26.57370 61.0
26.57870 68.0
26.58370 59.0
26.58870 61.0
26.59370 62.0
26.59870 71.0
26.60370 69.0
26.60870 65.0
26.61370 69.0
26.61870 64.0
26.62370 65.0
26.62870 58.0
26.63370 61.0
26.63870 76.0
26.64370 71.0
26.64870 53.0
26.65370 64.0
26.65870 68.0
26.66370 64.0
26.66870 67.0
26.67370 73.0