File: data/W6778c/XRD_Omega/W6778c_Cr2O3_scan_omega_2deg_step_0.002deg0_9.xy
18.52340 559.0
18.52540 596.0
18.52740 605.0
18.52940 587.0
18.53140 608.0
18.53340 585.0
18.53540 557.0
18.53740 588.0
18.53940 589.0
18.54140 578.0
18.54340 589.0
18.54540 554.0
18.54740 552.0
18.54940 640.0
18.55140 591.0
18.55340 588.0
18.55540 593.0
18.55740 553.0
18.55940 578.0
18.56140 619.0
18.56340 592.0
18.56540 565.0
18.56740 638.0
18.56940 582.0
18.57140 632.0
18.57340 664.0
18.57540 561.0
18.57740 604.0
18.57940 579.0
18.58140 591.0
18.58340 606.0
18.58540 595.0
18.58740 591.0
18.58940 595.0
18.59140 620.0
18.59340 631.0
18.59540 596.0
18.59740 616.0
18.59940 627.0
18.60140 646.0
18.60340 616.0
18.60540 620.0
18.60740 655.0
18.60940 647.0
18.61140 627.0
18.61340 604.0
18.61540 633.0
18.61740 649.0
18.61940 589.0
18.62140 667.0
18.62340 581.0
18.62540 622.0
18.62740 648.0
18.62940 620.0
18.63140 604.0
18.63340 618.0
18.63540 631.0
18.63740 598.0
18.63940 658.0
18.64140 690.0
18.64340 595.0
18.64540 669.0
18.64740 611.0
18.64940 651.0
18.65140 675.0
18.65340 639.0
18.65540 616.0
18.65740 649.0
18.65940 613.0
18.66140 666.0
18.66340 637.0
18.66540 645.0
18.66740 667.0
18.66940 676.0
18.67140 670.0
18.67340 650.0
18.67540 671.0
18.67740 692.0
18.67940 666.0
18.68140 670.0
18.68340 733.0
18.68540 696.0
18.68740 651.0
18.68940 701.0
18.69140 639.0
18.69340 653.0
18.69540 658.0
18.69740 732.0
18.69940 741.0
18.70140 694.0
18.70340 689.0
18.70540 680.0
18.70740 701.0
18.70940 722.0
18.71140 705.0
18.71340 688.0
18.71540 669.0
18.71740 740.0
18.71940 714.0
18.72140 700.0
18.72340 732.0
18.72540 713.0
18.72740 733.0
18.72940 732.0
18.73140 717.0
18.73340 740.0
18.73540 713.0
18.73740 738.0
18.73940 713.0
18.74140 682.0
18.74340 719.0
18.74540 755.0
18.74740 780.0
18.74940 747.0
18.75140 687.0
18.75340 725.0
18.75540 741.0
18.75740 753.0
18.75940 720.0
18.76140 766.0
18.76340 776.0
18.76540 772.0
18.76740 773.0
18.76940 797.0
18.77140 754.0
18.77340 733.0
18.77540 755.0
18.77740 775.0
18.77940 792.0
18.78140 813.0
18.78340 798.0
18.78540 744.0
18.78740 799.0
18.78940 752.0
18.79140 795.0
18.79340 809.0
18.79540 747.0
18.79740 797.0
18.79940 793.0
18.80140 768.0
18.80340 844.0
18.80540 787.0
18.80740 787.0
18.80940 841.0
18.81140 844.0
18.81340 802.0
18.81540 868.0
18.81740 865.0
18.81940 844.0
18.82140 886.0
18.82340 826.0
18.82540 854.0
18.82740 827.0
18.82940 844.0
18.83140 820.0
18.83340 823.0
18.83540 888.0
18.83740 861.0
18.83940 872.0
18.84140 870.0
18.84340 860.0
18.84540 833.0
18.84740 825.0
18.84940 899.0
18.85140 842.0
18.85340 869.0
18.85540 881.0
18.85740 859.0
18.85940 922.0
18.86140 903.0
18.86340 895.0
18.86540 916.0
18.86740 866.0
18.86940 947.0
18.87140 1002.0
18.87340 957.0
18.87540 922.0
18.87740 954.0
18.87940 924.0
18.88140 959.0
18.88340 980.0
18.88540 942.0
18.88740 942.0
18.88940 994.0
18.89140 962.0
18.89340 1008.0
18.89540 918.0
18.89740 951.0
18.89940 1016.0
18.90140 975.0
18.90340 1013.0
18.90540 1018.0
18.90740 1034.0
18.90940 1012.0
18.91140 1026.0
18.91340 1023.0
18.91540 1016.0
18.91740 1068.0
18.91940 1060.0
18.92140 1079.0
18.92340 1127.0
18.92540 1078.0
18.92740 1001.0
18.92940 1118.0
18.93140 1154.0
18.93340 1143.0
18.93540 1117.0
18.93740 1202.0
18.93940 1157.0
18.94140 1122.0
18.94340 1179.0
18.94540 1205.0
18.94740 1154.0
18.94940 1122.0
18.95140 1199.0
18.95340 1157.0
18.95540 1153.0
18.95740 1196.0
18.95940 1221.0
18.96140 1197.0
18.96340 1206.0
18.96540 1187.0
18.96740 1201.0
18.96940 1249.0
18.97140 1245.0
18.97340 1181.0
18.97540 1251.0
18.97740 1280.0
18.97940 1274.0
18.98140 1293.0
18.98340 1293.0
18.98540 1278.0
18.98740 1334.0
18.98940 1287.0
18.99140 1300.0
18.99340 1336.0
18.99540 1321.0
18.99740 1363.0
18.99940 1284.0
19.00140 1375.0
19.00340 1339.0
19.00540 1371.0
19.00740 1367.0
19.00940 1397.0
19.01140 1425.0
19.01340 1376.0
19.01540 1392.0
19.01740 1446.0
19.01940 1415.0
19.02140 1488.0
19.02340 1529.0
19.02540 1448.0
19.02740 1464.0
19.02940 1517.0
19.03140 1511.0
19.03340 1526.0
19.03540 1584.0
19.03740 1466.0
19.03940 1481.0
19.04140 1547.0
19.04340 1613.0
19.04540 1511.0
19.04740 1579.0
19.04940 1566.0
19.05140 1542.0
19.05340 1595.0
19.05540 1580.0
19.05740 1518.0
19.05940 1559.0
19.06140 1718.0
19.06340 1693.0
19.06540 1682.0
19.06740 1713.0
19.06940 1748.0
19.07140 1760.0
19.07340 1737.0
19.07540 1687.0
19.07740 1678.0
19.07940 1684.0
19.08140 1813.0
19.08340 1720.0
19.08540 1799.0
19.08740 1746.0
19.08940 1804.0
19.09140 1836.0
19.09340 1799.0
19.09540 1805.0
19.09740 1949.0
19.09940 1972.0
19.10140 1847.0
19.10340 1884.0
19.10540 2000.0
19.10740 1927.0
19.10940 1983.0
19.11140 1976.0
19.11340 2010.0
19.11540 2081.0
19.11740 2017.0
19.11940 2053.0
19.12140 2043.0
19.12340 2209.0
19.12540 2089.0
19.12740 2049.0
19.12940 2178.0
19.13140 2230.0
19.13340 2161.0
19.13540 2127.0
19.13740 2157.0
19.13940 2165.0
19.14140 2228.0
19.14340 2221.0
19.14540 2250.0
19.14740 2364.0
19.14940 2228.0
19.15140 2255.0
19.15340 2232.0
19.15540 2346.0
19.15740 2446.0
19.15940 2336.0
19.16140 2450.0
19.16340 2452.0
19.16540 2503.0
19.16740 2394.0
19.16940 2455.0
19.17140 2523.0
19.17340 2607.0
19.17540 2591.0
19.17740 2556.0
19.17940 2572.0
19.18140 2522.0
19.18340 2716.0
19.18540 2578.0
19.18740 2770.0
19.18940 2785.0
19.19140 2688.0
19.19340 2667.0
19.19540 2714.0
19.19740 2888.0
19.19940 2871.0
19.20140 2763.0
19.20340 2837.0
19.20540 2843.0
19.20740 3041.0
19.20940 2888.0
19.21140 2962.0
19.21340 3017.0
19.21540 3107.0
19.21740 3137.0
19.21940 3127.0
19.22140 3265.0
19.22340 3115.0
19.22540 3338.0
19.22740 3179.0
19.22940 3333.0
19.23140 3373.0
19.23340 3260.0
19.23540 3360.0
19.23740 3433.0
19.23940 3427.0
19.24140 3363.0
19.24340 3450.0
19.24540 3539.0
19.24740 3531.0
19.24940 3727.0
19.25140 3653.0
19.25340 3658.0
19.25540 3654.0
19.25740 3711.0
19.25940 3773.0
19.26140 3751.0
19.26340 3938.0
19.26540 3896.0
19.26740 3888.0
19.26940 4032.0
19.27140 4080.0
19.27340 4020.0
19.27540 4097.0
19.27740 4235.0
19.27940 4203.0
19.28140 4321.0
19.28340 4249.0
19.28540 4253.0
19.28740 4391.0
19.28940 4391.0
19.29140 4414.0
19.29340 4474.0
19.29540 4592.0
19.29740 4602.0
19.29940 4575.0
19.30140 4667.0
19.30340 4908.0
19.30540 4863.0
19.30740 4904.0
19.30940 5018.0
19.31140 5003.0
19.31340 5034.0
19.31540 5005.0
19.31740 4934.0
19.31940 5097.0
19.32140 5250.0
19.32340 5369.0
19.32540 5414.0
19.32740 5509.0
19.32940 5532.0
19.33140 5461.0
19.33340 5632.0
19.33540 5797.0
19.33740 5919.0
19.33940 5772.0
19.34140 5750.0
19.34340 5823.0
19.34540 5953.0
19.34740 6193.0
19.34940 6324.0
19.35140 6150.0
19.35340 6371.0
19.35540 6380.0
19.35740 6470.0
19.35940 6557.0
19.36140 6620.0
19.36340 6651.0
19.36540 6877.0
19.36740 6802.0
19.36940 6850.0
19.37140 7095.0
19.37340 7277.0
19.37540 7241.0
19.37740 7175.0
19.37940 7539.0
19.38140 7281.0
19.38340 7449.0
19.38540 7498.0
19.38740 7491.0
19.38940 7821.0
19.39140 7860.0
19.39340 7867.0
19.39540 7848.0
19.39740 8146.0
19.39940 8087.0
19.40140 8148.0
19.40340 8372.0
19.40540 8654.0
19.40740 8641.0
19.40940 8762.0
19.41140 8819.0
19.41340 8995.0
19.41540 9187.0
19.41740 9369.0
19.41940 9298.0
19.42140 9635.0
19.42340 9686.0
19.42540 9880.0
19.42740 9795.0
19.42940 10001.0
19.43140 10296.0
19.43340 10501.0
19.43540 10599.0
19.43740 10627.0
19.43940 10891.0
19.44140 11018.0
19.44340 11019.0
19.44540 11290.0
19.44740 11589.0
19.44940 11591.0
19.45140 11757.0
19.45340 11745.0
19.45540 12064.0
19.45740 12218.0
19.45940 12425.0
19.46140 12508.0
19.46340 12753.0
19.46540 12589.0
19.46740 12706.0
19.46940 12736.0
19.47140 12972.0
19.47340 12881.0
19.47540 13001.0
19.47740 13305.0
19.47940 13156.0
19.48140 12889.0
19.48340 12620.0
19.48540 12845.0
19.48740 12916.0
19.48940 12654.0
19.49140 12989.0
19.49340 13160.0
19.49540 13056.0
19.49740 13091.0
19.49940 13027.0
19.50140 13133.0
19.50340 13214.0
19.50540 13159.0
19.50740 13441.0
19.50940 13337.0
19.51140 13084.0
19.51340 13459.0
19.51540 13425.0
19.51740 12954.0
19.51940 13062.0
19.52140 13157.0
19.52340 12991.0
19.52540 12944.0
19.52740 12898.0
19.52940 12572.0
19.53140 12486.0
19.53340 12703.0
19.53540 12383.0
19.53740 12365.0
19.53940 12452.0
19.54140 12413.0
19.54340 12336.0
19.54540 12131.0
19.54740 12267.0
19.54940 12036.0
19.55140 12161.0
19.55340 11954.0
19.55540 11822.0
19.55740 12040.0
19.55940 11645.0
19.56140 11658.0
19.56340 11607.0
19.56540 11728.0
19.56740 11550.0
19.56940 11561.0
19.57140 11602.0
19.57340 11414.0
19.57540 11288.0
19.57740 11196.0
19.57940 11241.0
19.58140 11126.0
19.58340 11220.0
19.58540 11079.0
19.58740 10959.0
19.58940 11128.0
19.59140 10895.0
19.59340 10987.0
19.59540 10926.0
19.59740 10774.0
19.59940 10480.0
19.60140 10604.0
19.60340 10537.0
19.60540 10563.0
19.60740 10488.0
19.60940 10505.0
19.61140 10371.0
19.61340 10175.0
19.61540 10329.0
19.61740 10141.0
19.61940 10124.0
19.62140 10164.0
19.62340 10000.0
19.62540 10127.0
19.62740 9924.0
19.62940 9716.0
19.63140 9674.0
19.63340 9800.0
19.63540 9616.0
19.63740 9551.0
19.63940 9787.0
19.64140 9546.0
19.64340 9560.0
19.64540 9307.0
19.64740 9354.0
19.64940 9378.0
19.65140 9288.0
19.65340 9359.0
19.65540 9398.0
19.65740 9164.0
19.65940 8997.0
19.66140 9188.0
19.66340 9034.0
19.66540 8942.0
19.66740 8904.0
19.66940 8988.0
19.67140 8738.0
19.67340 8420.0
19.67540 8504.0
19.67740 8673.0
19.67940 8383.0
19.68140 8579.0
19.68340 8362.0
19.68540 8415.0
19.68740 8368.0
19.68940 8498.0
19.69140 8230.0
19.69340 8193.0
19.69540 8197.0
19.69740 8125.0
19.69940 7958.0
19.70140 7918.0
19.70340 7955.0
19.70540 7891.0
19.70740 7709.0
19.70940 7779.0
19.71140 7665.0
19.71340 7524.0
19.71540 7526.0
19.71740 7574.0
19.71940 7616.0
19.72140 7455.0
19.72340 7365.0
19.72540 7303.0
19.72740 7286.0
19.72940 7273.0
19.73140 7194.0
19.73340 7185.0
19.73540 6974.0
19.73740 6985.0
19.73940 6923.0
19.74140 6892.0
19.74340 7120.0
19.74540 6958.0
19.74740 7015.0
19.74940 6773.0
19.75140 6682.0
19.75340 6661.0
19.75540 6653.0
19.75740 6634.0
19.75940 6586.0
19.76140 6551.0
19.76340 6488.0
19.76540 6375.0
19.76740 6320.0
19.76940 6278.0
19.77140 6285.0
19.77340 6106.0
19.77540 6017.0
19.77740 5966.0
19.77940 5965.0
19.78140 5888.0
19.78340 5882.0
19.78540 5874.0
19.78740 5824.0
19.78940 5849.0
19.79140 5661.0
19.79340 5763.0
19.79540 5696.0
19.79740 5572.0
19.79940 5566.0
19.80140 5624.0
19.80340 5528.0
19.80540 5538.0
19.80740 5534.0
19.80940 5507.0
19.81140 5313.0
19.81340 5337.0
19.81540 5319.0
19.81740 5211.0
19.81940 5138.0
19.82140 5133.0
19.82340 5051.0
19.82540 5089.0
19.82740 4970.0
19.82940 4903.0
19.83140 5088.0
19.83340 4869.0
19.83540 4799.0
19.83740 4862.0
19.83940 4699.0
19.84140 4713.0
19.84340 4671.0
19.84540 4648.0
19.84740 4683.0
19.84940 4615.0
19.85140 4645.0
19.85340 4529.0
19.85540 4519.0
19.85740 4477.0
19.85940 4457.0
19.86140 4318.0
19.86340 4319.0
19.86540 4399.0
19.86740 4250.0
19.86940 4193.0
19.87140 4062.0
19.87340 4113.0
19.87540 4118.0
19.87740 4037.0
19.87940 4027.0
19.88140 4022.0
19.88340 4060.0
19.88540 3995.0
19.88740 3789.0
19.88940 3827.0
19.89140 3704.0
19.89340 3810.0
19.89540 3790.0
19.89740 3782.0
19.89940 3696.0
19.90140 3735.0
19.90340 3673.0
19.90540 3639.0
19.90740 3633.0
19.90940 3537.0
19.91140 3528.0
19.91340 3506.0
19.91540 3547.0
19.91740 3527.0
19.91940 3546.0
19.92140 3291.0
19.92340 3345.0
19.92540 3307.0
19.92740 3270.0
19.92940 3185.0
19.93140 3302.0
19.93340 3180.0
19.93540 3243.0
19.93740 3260.0
19.93940 3208.0
19.94140 3072.0
19.94340 3161.0
19.94540 3125.0
19.94740 3121.0
19.94940 3027.0
19.95140 2981.0
19.95340 2958.0
19.95540 3001.0
19.95740 2938.0
19.95940 2907.0
19.96140 2936.0
19.96340 2921.0
19.96540 2806.0
19.96740 2866.0
19.96940 2821.0
19.97140 2725.0
19.97340 2684.0
19.97540 2715.0
19.97740 2673.0
19.97940 2624.0
19.98140 2646.0
19.98340 2643.0
19.98540 2589.0
19.98740 2543.0
19.98940 2586.0
19.99140 2485.0
19.99340 2613.0
19.99540 2438.0
19.99740 2411.0
19.99940 2431.0
20.00140 2389.0
20.00340 2453.0
20.00540 2409.0
20.00740 2295.0
20.00940 2439.0
20.01140 2296.0
20.01340 2325.0
20.01540 2299.0
20.01740 2283.0
20.01940 2373.0
20.02140 2256.0
20.02340 2244.0
20.02540 2253.0
20.02740 2230.0
20.02940 2348.0
20.03140 2062.0
20.03340 2222.0
20.03540 2212.0
20.03740 2110.0
20.03940 2189.0
20.04140 2146.0
20.04340 2158.0
20.04540 2131.0
20.04740 2038.0
20.04940 2042.0
20.05140 2069.0
20.05340 2109.0
20.05540 1993.0
20.05740 2045.0
20.05940 1999.0
20.06140 2005.0
20.06340 1963.0
20.06540 1979.0
20.06740 1947.0
20.06940 1937.0
20.07140 1918.0
20.07340 1856.0
20.07540 1911.0
20.07740 1805.0
20.07940 1839.0
20.08140 1740.0
20.08340 1762.0
20.08540 1798.0
20.08740 1684.0
20.08940 1844.0
20.09140 1721.0
20.09340 1742.0
20.09540 1702.0
20.09740 1742.0
20.09940 1793.0
20.10140 1685.0
20.10340 1776.0
20.10540 1718.0
20.10740 1714.0
20.10940 1667.0
20.11140 1639.0
20.11340 1667.0
20.11540 1679.0
20.11740 1632.0
20.11940 1633.0
20.12140 1667.0
20.12340 1613.0
20.12540 1588.0
20.12740 1632.0
20.12940 1554.0
20.13140 1575.0
20.13340 1586.0
20.13540 1493.0
20.13740 1521.0
20.13940 1426.0
20.14140 1518.0
20.14340 1512.0
20.14540 1546.0
20.14740 1458.0
20.14940 1531.0
20.15140 1440.0
20.15340 1523.0
20.15540 1510.0
20.15740 1435.0
20.15940 1369.0
20.16140 1436.0
20.16340 1398.0
20.16540 1380.0
20.16740 1359.0
20.16940 1393.0
20.17140 1398.0
20.17340 1381.0
20.17540 1352.0
20.17740 1324.0
20.17940 1307.0
20.18140 1292.0
20.18340 1288.0
20.18540 1255.0
20.18740 1314.0
20.18940 1242.0
20.19140 1223.0
20.19340 1209.0
20.19540 1283.0
20.19740 1187.0
20.19940 1218.0
20.20140 1211.0
20.20340 1210.0
20.20540 1182.0
20.20740 1201.0
20.20940 1230.0
20.21140 1135.0
20.21340 1198.0
20.21540 1136.0
20.21740 1088.0
20.21940 1116.0
20.22140 1129.0
20.22340 1095.0
20.22540 1153.0
20.22740 1133.0
20.22940 1074.0
20.23140 1073.0
20.23340 1116.0
20.23540 1126.0
20.23740 1053.0
20.23940 1082.0
20.24140 1007.0
20.24340 1052.0
20.24540 1073.0
20.24740 1073.0
20.24940 1110.0
20.25140 1027.0
20.25340 1030.0
20.25540 1022.0
20.25740 984.0
20.25940 1042.0
20.26140 1041.0
20.26340 1044.0
20.26540 1027.0
20.26740 1027.0
20.26940 1035.0
20.27140 981.0
20.27340 971.0
20.27540 980.0
20.27740 969.0
20.27940 981.0
20.28140 961.0
20.28340 905.0
20.28540 947.0
20.28740 914.0
20.28940 890.0
20.29140 963.0
20.29340 939.0
20.29540 912.0
20.29740 875.0
20.29940 914.0
20.30140 904.0
20.30340 873.0
20.30540 926.0
20.30740 907.0
20.30940 915.0
20.31140 940.0
20.31340 856.0
20.31540 924.0
20.31740 946.0
20.31940 884.0
20.32140 847.0
20.32340 868.0
20.32540 892.0
20.32740 871.0
20.32940 855.0
20.33140 884.0
20.33340 866.0
20.33540 837.0
20.33740 863.0
20.33940 809.0
20.34140 881.0
20.34340 787.0
20.34540 831.0
20.34740 803.0
20.34940 796.0
20.35140 792.0
20.35340 825.0
20.35540 848.0
20.35740 820.0
20.35940 791.0
20.36140 801.0
20.36340 793.0
20.36540 819.0
20.36740 753.0
20.36940 779.0
20.37140 800.0
20.37340 830.0
20.37540 784.0
20.37740 783.0
20.37940 784.0
20.38140 769.0
20.38340 777.0
20.38540 774.0
20.38740 758.0
20.38940 757.0
20.39140 727.0
20.39340 802.0
20.39540 723.0
20.39740 735.0
20.39940 740.0
20.40140 751.0
20.40340 743.0
20.40540 753.0
20.40740 690.0
20.40940 741.0
20.41140 671.0
20.41340 680.0
20.41540 713.0
20.41740 754.0
20.41940 758.0
20.42140 754.0
20.42340 733.0
20.42540 664.0
20.42740 692.0
20.42940 720.0
20.43140 697.0
20.43340 751.0
20.43540 685.0
20.43740 728.0
20.43940 626.0
20.44140 706.0
20.44340 728.0
20.44540 716.0
20.44740 656.0
20.44940 648.0
20.45140 675.0
20.45340 700.0
20.45540 657.0
20.45740 663.0
20.45940 673.0
20.46140 669.0
20.46340 657.0
20.46540 694.0
20.46740 661.0
20.46940 698.0
20.47140 629.0
20.47340 641.0
20.47540 631.0
20.47740 652.0
20.47940 662.0
20.48140 682.0
20.48340 657.0
20.48540 608.0
20.48740 634.0
20.48940 639.0
20.49140 613.0
20.49340 661.0
20.49540 596.0
20.49740 630.0
20.49940 639.0
20.50140 595.0
20.50340 625.0
20.50540 630.0
20.50740 565.0