File: data/W6783a/XRD_2ThetaOmega/W6783a_absolute_2th-om_10-130deg_PIXscan_17min_8.xy
10.0035 26.0
10.0872 30.0
10.1709 21.0
10.2546 20.0
10.3383 20.0
10.422 30.0
10.5057 20.0
10.5894 29.0
10.6731 26.0
10.7568 27.0
10.8405 25.0
10.9242 23.0
11.0079 24.0
11.0916 20.0
11.1753 25.0
11.259 26.0
11.3428 19.0
11.4265 19.0
11.5102 12.0
11.5939 18.0
11.6776 28.0
11.7613 21.0
11.845 24.0
11.9287 18.0
12.0124 25.0
12.0961 25.0
12.1798 20.0
12.2635 27.0
12.3472 19.0
12.4309 11.0
12.5146 16.0
12.5983 22.0
12.682 22.0
12.7657 21.0
12.8495 16.0
12.9332 22.0
13.0169 21.0
13.1006 24.0
13.1843 23.0
13.268 22.0
13.3517 15.0
13.4354 33.0
13.5191 21.0
13.6028 21.0
13.6865 27.0
13.7702 20.0
13.8539 13.0
13.9376 15.0
14.0213 21.0
14.105 18.0
14.1887 16.0
14.2724 26.0
14.3562 18.0
14.4399 22.0
14.5236 15.0
14.6073 23.0
14.691 15.0
14.7747 25.0
14.8584 20.0
14.9421 29.0
15.0258 23.0
15.1095 20.0
15.1932 22.0
15.2769 14.0
15.3606 17.0
15.4443 13.0
15.528 21.0
15.6117 14.0
15.6954 15.0
15.7791 14.0
15.8629 21.0
15.9466 18.0
16.0303 25.0
16.114 14.0
16.1977 18.0
16.2814 15.0
16.3651 23.0
16.4488 18.0
16.5325 17.0
16.6162 14.0
16.6999 14.0
16.7836 17.0
16.8673 22.0
16.951 19.0
17.0347 19.0
17.1184 13.0
17.2021 15.0
17.2858 21.0
17.3696 13.0
17.4533 19.0
17.537 21.0
17.6207 13.0
17.7044 21.0
17.7881 19.0
17.8718 12.0
17.9555 18.0
18.0392 15.0
18.1229 22.0
18.2066 22.0
18.2903 22.0
18.374 15.0
18.4577 20.0
18.5414 16.0
18.6251 16.0
18.7088 16.0
18.7925 8.0
18.8763 18.0
18.96 14.0
19.0437 17.0
19.1274 10.0
19.2111 19.0
19.2948 15.0
19.3785 20.0
19.4622 25.0
19.5459 23.0
19.6296 19.0
19.7133 18.0
19.797 16.0
19.8807 16.0
19.9644 19.0
20.0481 18.0
20.1318 20.0
20.2155 10.0
20.2992 15.0
20.383 14.0
20.4667 11.0
20.5504 18.0
20.6341 21.0
20.7178 19.0
20.8015 24.0
20.8852 14.0
20.9689 20.0
21.0526 24.0
21.1363 12.0
21.22 11.0
21.3037 16.0
21.3874 14.0
21.4711 12.0
21.5548 12.0
21.6385 10.0
21.7222 20.0
21.8059 20.0
21.8897 8.0
21.9734 19.0
22.0571 10.0
22.1408 12.0
22.2245 20.0
22.3082 13.0
22.3919 14.0
22.4756 17.0
22.5593 9.0
22.643 19.0
22.7267 14.0
22.8104 16.0
22.8941 15.0
22.9778 15.0
23.0615 14.0
23.1452 12.0
23.2289 19.0
23.3126 16.0
23.3964 8.0
23.4801 16.0
23.5638 21.0
23.6475 13.0
23.7312 11.0
23.8149 11.0
23.8986 20.0
23.9823 15.0
24.066 8.0
24.1497 9.0
24.2334 27.0
24.3171 12.0
24.4008 17.0
24.4845 17.0
24.5682 15.0
24.6519 14.0
24.7356 9.0
24.8193 22.0
24.9031 16.0
24.9868 12.0
25.0705 14.0
25.1542 14.0
25.2379 14.0
25.3216 15.0
25.4053 15.0
25.489 11.0
25.5727 12.0
25.6564 12.0
25.7401 15.0
25.8238 13.0
25.9075 19.0
25.9912 24.0
26.0749 14.0
26.1586 15.0
26.2423 12.0
26.326 14.0
26.4098 7.0
26.4935 23.0
26.5772 14.0
26.6609 15.0
26.7446 11.0
26.8283 14.0
26.912 12.0
26.9957 18.0
27.0794 13.0
27.1631 13.0
27.2468 14.0
27.3305 18.0
27.4142 17.0
27.4979 8.0
27.5816 19.0
27.6653 8.0
27.749 8.0
27.8327 8.0
27.9165 7.0
28.0002 10.0
28.0839 9.0
28.1676 10.0
28.2513 6.0
28.335 19.0
28.4187 17.0
28.5024 4.0
28.5861 14.0
28.6698 16.0
28.7535 6.0
28.8372 7.0
28.9209 11.0
29.0046 15.0
29.0883 10.0
29.172 12.0
29.2557 17.0
29.3394 13.0
29.4232 6.0
29.5069 22.0
29.5906 5.0
29.6743 9.0
29.758 12.0
29.8417 11.0
29.9254 13.0
30.0091 13.0
30.0928 12.0
30.1765 9.0
30.2602 13.0
30.3439 14.0
30.4276 10.0
30.5113 11.0
30.595 13.0
30.6787 12.0
30.7624 15.0
30.8461 12.0
30.9298 15.0
31.0136 13.0
31.0973 10.0
31.181 18.0
31.2647 11.0
31.3484 17.0
31.4321 10.0
31.5158 6.0
31.5995 16.0
31.6832 12.0
31.7669 10.0
31.8506 11.0
31.9343 19.0
32.018 15.0
32.1017 15.0
32.1854 9.0
32.2691 10.0
32.3528 8.0
32.4365 11.0
32.5203 16.0
32.604 14.0
32.6877 10.0
32.7714 17.0
32.8551 16.0
32.9388 13.0
33.0225 13.0
33.1062 14.0
33.1899 19.0
33.2736 15.0
33.3573 15.0
33.441 9.0
33.5247 18.0
33.6084 13.0
33.6921 6.0
33.7758 12.0
33.8595 20.0
33.9432 48.0
34.027 33.0
34.1107 32.0
34.1944 23.0
34.2781 28.0
34.3618 26.0
34.4455 30.0
34.5292 20.0
34.6129 25.0
34.6966 26.0
34.7803 25.0
34.864 37.0
34.9477 41.0
35.0314 61.0
35.1151 53.0
35.1988 98.0
35.2825 151.0
35.3662 350.0
35.4499 852.0
35.5337 1922.0
35.6174 2043.0
35.7011 1213.0
35.7848 605.0
35.8685 417.0
35.9522 283.0
36.0359 218.0
36.1196 352.0
36.2033 132.0
36.287 103.0
36.3707 119.0
36.4544 64.0
36.5381 68.0
36.6218 53.0
36.7055 52.0
36.7892 38.0
36.8729 58.0
36.9566 55.0
37.0404 54.0
37.1241 51.0
37.2078 64.0
37.2915 76.0
37.3752 77.0
37.4589 131.0
37.5426 337.0
37.6263 602.0
37.71 28373.0
37.7937 9103.0
37.8774 1856.0
37.9611 378.0
38.0448 202.0
38.1285 182.0
38.2122 100.0
38.2959 125.0
38.3796 79.0
38.4633 89.0
38.5471 68.0
38.6308 66.0
38.7145 60.0
38.7982 34.0
38.8819 43.0
38.9656 36.0
39.0493 38.0
39.133 31.0
39.2167 27.0
39.3004 23.0
39.3841 15.0
39.4678 21.0
39.5515 18.0
39.6352 14.0
39.7189 8.0
39.8026 22.0
39.8863 19.0
39.97 15.0
40.0538 8.0
40.1375 9.0
40.2212 17.0
40.3049 15.0
40.3886 11.0
40.4723 13.0
40.556 13.0
40.6397 9.0
40.7234 12.0
40.8071 28.0
40.8908 17.0
40.9745 12.0
41.0582 15.0
41.1419 20.0
41.2256 20.0
41.3093 14.0
41.393 13.0
41.4767 13.0
41.5605 8.0
41.6442 13.0
41.7279 12.0
41.8116 13.0
41.8953 13.0
41.979 7.0
42.0627 5.0
42.1464 17.0
42.2301 7.0
42.3138 6.0
42.3975 10.0
42.4812 14.0
42.5649 14.0
42.6486 9.0
42.7323 14.0
42.816 24.0
42.8997 15.0
42.9834 13.0
43.0672 13.0
43.1509 11.0
43.2346 18.0
43.3183 5.0
43.402 9.0
43.4857 19.0
43.5694 16.0
43.6531 9.0
43.7368 13.0
43.8205 12.0
43.9042 17.0
43.9879 11.0
44.0716 11.0
44.1553 21.0
44.239 25.0
44.3227 17.0
44.4064 22.0
44.4901 23.0
44.5739 15.0
44.6576 17.0
44.7413 14.0
44.825 14.0
44.9087 10.0
44.9924 18.0
45.0761 14.0
45.1598 14.0
45.2435 16.0
45.3272 16.0
45.4109 8.0
45.4946 6.0
45.5783 12.0
45.662 15.0
45.7457 10.0
45.8294 11.0
45.9131 5.0
45.9968 16.0
46.0806 12.0
46.1643 13.0
46.248 8.0
46.3317 16.0
46.4154 14.0
46.4991 5.0
46.5828 6.0
46.6665 12.0
46.7502 12.0
46.8339 17.0
46.9176 10.0
47.0013 13.0
47.085 12.0
47.1687 16.0
47.2524 6.0
47.3361 13.0
47.4198 9.0
47.5035 16.0
47.5873 3.0
47.671 7.0
47.7547 15.0
47.8384 14.0
47.9221 6.0
48.0058 14.0
48.0895 13.0
48.1732 6.0
48.2569 6.0
48.3406 9.0
48.4243 14.0
48.508 8.0
48.5917 11.0
48.6754 15.0
48.7591 9.0
48.8428 12.0
48.9265 10.0
49.0102 11.0
49.094 9.0
49.1777 10.0
49.2614 19.0
49.3451 14.0
49.4288 10.0
49.5125 16.0
49.5962 10.0
49.6799 18.0
49.7636 11.0
49.8473 10.0
49.931 12.0
50.0147 16.0
50.0984 11.0
50.1821 7.0
50.2658 10.0
50.3495 11.0
50.4332 10.0
50.5169 12.0
50.6007 12.0
50.6844 8.0
50.7681 13.0
50.8518 12.0
50.9355 14.0
51.0192 8.0
51.1029 11.0
51.1866 11.0
51.2703 14.0
51.354 8.0
51.4377 11.0
51.5214 9.0
51.6051 11.0
51.6888 15.0
51.7725 15.0
51.8562 19.0
51.9399 8.0
52.0236 21.0
52.1074 18.0
52.1911 7.0
52.2748 15.0
52.3585 12.0
52.4422 12.0
52.5259 18.0
52.6096 18.0
52.6933 11.0
52.777 13.0
52.8607 21.0
52.9444 8.0
53.0281 19.0
53.1118 11.0
53.1955 19.0
53.2792 12.0
53.3629 6.0
53.4466 15.0
53.5303 12.0
53.6141 8.0
53.6978 11.0
53.7815 17.0
53.8652 10.0
53.9489 13.0
54.0326 6.0
54.1163 16.0
54.2 12.0
54.2837 13.0
54.3674 12.0
54.4511 12.0
54.5348 6.0
54.6185 15.0
54.7022 18.0
54.7859 9.0
54.8696 10.0
54.9533 13.0
55.037 14.0
55.1208 13.0
55.2045 7.0
55.2882 12.0
55.3719 13.0
55.4556 4.0
55.5393 6.0
55.623 6.0
55.7067 12.0
55.7904 8.0
55.8741 13.0
55.9578 14.0
56.0415 7.0
56.1252 8.0
56.2089 15.0
56.2926 11.0
56.3763 18.0
56.46 15.0
56.5437 16.0
56.6275 10.0
56.7112 10.0
56.7949 13.0
56.8786 13.0
56.9623 15.0
57.046 14.0
57.1297 13.0
57.2134 13.0
57.2971 16.0
57.3808 11.0
57.4645 12.0
57.5482 10.0
57.6319 19.0
57.7156 11.0
57.7993 10.0
57.883 12.0
57.9667 15.0
58.0504 14.0
58.1342 17.0
58.2179 13.0
58.3016 12.0
58.3853 13.0
58.469 11.0
58.5527 13.0
58.6364 12.0
58.7201 7.0
58.8038 9.0
58.8875 14.0
58.9712 18.0
59.0549 11.0
59.1386 11.0
59.2223 16.0
59.306 15.0
59.3897 9.0
59.4734 14.0
59.5571 11.0
59.6409 21.0
59.7246 15.0
59.8083 11.0
59.892 11.0
59.9757 9.0
60.0594 15.0
60.1431 8.0
60.2268 6.0
60.3105 14.0
60.3942 13.0
60.4779 18.0
60.5616 15.0
60.6453 13.0
60.729 18.0
60.8127 10.0
60.8964 10.0
60.9801 16.0
61.0638 12.0
61.1476 16.0
61.2313 13.0
61.315 9.0
61.3987 11.0
61.4824 9.0
61.5661 15.0
61.6498 19.0
61.7335 10.0
61.8172 10.0
61.9009 11.0
61.9846 10.0
62.0683 11.0
62.152 14.0
62.2357 16.0
62.3194 10.0
62.4031 12.0
62.4868 11.0
62.5705 13.0
62.6543 11.0
62.738 8.0
62.8217 15.0
62.9054 9.0
62.9891 11.0
63.0728 11.0
63.1565 8.0
63.2402 19.0
63.3239 13.0
63.4076 14.0
63.4913 8.0
63.575 15.0
63.6587 8.0
63.7424 9.0
63.8261 9.0
63.9098 4.0
63.9935 9.0
64.0772 10.0
64.161 7.0
64.2447 13.0
64.3284 9.0
64.4121 11.0
64.4958 13.0
64.5795 14.0
64.6632 11.0
64.7469 14.0
64.8306 10.0
64.9143 13.0
64.998 11.0
65.0817 8.0
65.1654 19.0
65.2491 20.0
65.3328 15.0
65.4165 15.0
65.5002 10.0
65.5839 14.0
65.6677 12.0
65.7514 12.0
65.8351 11.0
65.9188 12.0
66.0025 11.0
66.0862 14.0
66.1699 13.0
66.2536 12.0
66.3373 14.0
66.421 10.0
66.5047 15.0
66.5884 17.0
66.6721 13.0
66.7558 10.0
66.8395 10.0
66.9232 15.0
67.0069 8.0
67.0906 12.0
67.1744 8.0
67.2581 16.0
67.3418 9.0
67.4255 10.0
67.5092 14.0
67.5929 10.0
67.6766 10.0
67.7603 8.0
67.844 11.0
67.9277 12.0
68.0114 21.0
68.0951 14.0
68.1788 14.0
68.2625 11.0
68.3462 13.0
68.4299 14.0
68.5136 18.0
68.5973 11.0
68.6811 17.0
68.7648 12.0
68.8485 10.0
68.9322 11.0
69.0159 13.0
69.0996 11.0
69.1833 10.0
69.267 13.0
69.3507 13.0
69.4344 21.0
69.5181 7.0
69.6018 17.0
69.6855 11.0
69.7692 14.0
69.8529 12.0
69.9366 9.0
70.0203 12.0
70.104 9.0
70.1878 10.0
70.2715 17.0
70.3552 11.0
70.4389 11.0
70.5226 10.0
70.6063 10.0
70.69 6.0
70.7737 13.0
70.8574 8.0
70.9411 8.0
71.0248 15.0
71.1085 7.0
71.1922 17.0
71.2759 14.0
71.3596 9.0
71.4433 12.0
71.527 26.0
71.6107 44.0
71.6945 25.0
71.7782 15.0
71.8619 11.0
71.9456 12.0
72.0293 13.0
72.113 9.0
72.1967 7.0
72.2804 12.0
72.3641 14.0
72.4478 16.0
72.5315 16.0
72.6152 12.0
72.6989 14.0
72.7826 15.0
72.8663 13.0
72.95 10.0
73.0337 13.0
73.1174 11.0
73.2012 8.0
73.2849 13.0
73.3686 12.0
73.4523 14.0
73.536 10.0
73.6197 11.0
73.7034 17.0
73.7871 11.0
73.8708 16.0
73.9545 16.0
74.0382 12.0
74.1219 16.0
74.2056 13.0
74.2893 19.0
74.373 13.0
74.4567 12.0
74.5404 22.0
74.6241 21.0
74.7079 18.0
74.7916 21.0
74.8753 26.0
74.959 24.0
75.0427 42.0
75.1264 47.0
75.2101 64.0
75.2938 86.0
75.3775 100.0
75.4612 130.0
75.5449 89.0
75.6286 87.0
75.7123 76.0
75.796 72.0
75.8797 39.0
75.9634 40.0
76.0471 34.0
76.1308 38.0
76.2146 30.0
76.2983 32.0
76.382 25.0
76.4657 16.0
76.5494 22.0
76.6331 47.0
76.7168 57.0
76.8005 26.0
76.8842 14.0
76.9679 14.0
77.0516 15.0
77.1353 14.0
77.219 14.0
77.3027 20.0
77.3864 28.0
77.4701 23.0
77.5538 9.0
77.6375 9.0
77.7213 25.0
77.805 8.0
77.8887 20.0
77.9724 9.0
78.0561 11.0
78.1398 17.0
78.2235 9.0
78.3072 21.0
78.3909 12.0
78.4746 8.0
78.5583 14.0
78.642 21.0
78.7257 19.0
78.8094 28.0
78.8931 16.0
78.9768 25.0
79.0605 12.0
79.1442 25.0
79.228 26.0
79.3117 14.0
79.3954 13.0
79.4791 16.0
79.5628 19.0
79.6465 22.0
79.7302 26.0
79.8139 23.0
79.8976 18.0
79.9813 33.0
80.065 34.0
80.1487 39.0
80.2324 83.0
80.3161 78.0
80.3998 86.0
80.4835 143.0
80.5672 523.0
80.6509 9293.0
80.7347 1135.0
80.8184 580.0
80.9021 5172.0
80.9858 544.0
81.0695 129.0
81.1532 82.0
81.2369 53.0
81.3206 41.0
81.4043 40.0
81.488 26.0
81.5717 41.0
81.6554 30.0
81.7391 32.0
81.8228 27.0
81.9065 37.0
81.9902 34.0
82.0739 32.0
82.1576 27.0
82.2414 31.0
82.3251 24.0
82.4088 22.0
82.4925 31.0
82.5762 27.0
82.6599 21.0
82.7436 15.0
82.8273 23.0
82.911 22.0
82.9947 28.0
83.0784 13.0
83.1621 13.0
83.2458 13.0
83.3295 13.0
83.4132 10.0
83.4969 14.0
83.5806 11.0
83.6643 16.0
83.7481 16.0
83.8318 17.0
83.9155 12.0
83.9992 17.0
84.0829 15.0
84.1666 14.0
84.2503 21.0
84.334 18.0
84.4177 17.0
84.5014 10.0
84.5851 15.0
84.6688 9.0
84.7525 11.0
84.8362 13.0
84.9199 8.0
85.0036 13.0
85.0873 11.0
85.171 22.0
85.2548 12.0
85.3385 11.0
85.4222 10.0
85.5059 16.0
85.5896 16.0
85.6733 13.0
85.757 20.0
85.8407 15.0
85.9244 22.0
86.0081 11.0
86.0918 10.0
86.1755 8.0
86.2592 18.0
86.3429 13.0
86.4266 14.0
86.5103 13.0
86.594 14.0
86.6777 12.0
86.7615 17.0
86.8452 6.0
86.9289 11.0
87.0126 22.0
87.0963 12.0
87.18 14.0
87.2637 15.0
87.3474 11.0
87.4311 17.0
87.5148 12.0
87.5985 9.0
87.6822 13.0
87.7659 18.0
87.8496 7.0
87.9333 8.0
88.017 22.0
88.1007 17.0
88.1844 11.0
88.2682 14.0
88.3519 10.0
88.4356 9.0
88.5193 11.0
88.603 7.0
88.6867 3.0
88.7704 19.0
88.8541 15.0
88.9378 7.0
89.0215 12.0
89.1052 9.0
89.1889 14.0
89.2726 10.0
89.3563 16.0
89.44 7.0
89.5237 10.0
89.6074 13.0
89.6911 19.0
89.7749 16.0
89.8586 6.0
89.9423 8.0
90.026 10.0
90.1097 16.0
90.1934 11.0
90.2771 15.0
90.3608 10.0
90.4445 10.0
90.5282 5.0
90.6119 6.0
90.6956 7.0
90.7793 8.0
90.863 12.0
90.9467 12.0
91.0304 13.0
91.1141 12.0
91.1978 14.0
91.2816 17.0
91.3653 15.0
91.449 15.0
91.5327 18.0
91.6164 11.0
91.7001 13.0
91.7838 6.0
91.8675 7.0
91.9512 16.0
92.0349 10.0
92.1186 10.0
92.2023 9.0
92.286 12.0
92.3697 12.0
92.4534 12.0
92.5371 15.0
92.6208 8.0
92.7045 8.0
92.7883 9.0
92.872 19.0
92.9557 12.0
93.0394 7.0
93.1231 7.0
93.2068 10.0
93.2905 16.0
93.3742 13.0
93.4579 16.0
93.5416 13.0
93.6253 12.0
93.709 23.0
93.7927 16.0
93.8764 10.0
93.9601 18.0
94.0438 22.0
94.1275 16.0
94.2112 11.0
94.295 16.0
94.3787 11.0
94.4624 11.0
94.5461 13.0
94.6298 17.0
94.7135 11.0
94.7972 16.0
94.8809 14.0
94.9646 20.0
95.0483 15.0
95.132 18.0
95.2157 15.0
95.2994 10.0
95.3831 13.0
95.4668 11.0
95.5505 12.0
95.6342 11.0
95.7179 11.0
95.8017 14.0
95.8854 11.0
95.9691 9.0
96.0528 5.0
96.1365 7.0
96.2202 11.0
96.3039 11.0
96.3876 10.0
96.4713 17.0
96.555 6.0
96.6387 16.0
96.7224 6.0
96.8061 17.0
96.8898 12.0
96.9735 15.0
97.0572 15.0
97.1409 13.0
97.2246 13.0
97.3084 9.0
97.3921 10.0
97.4758 11.0
97.5595 12.0
97.6432 11.0
97.7269 14.0
97.8106 15.0
97.8943 16.0
97.978 9.0
98.0617 14.0
98.1454 13.0
98.2291 16.0
98.3128 11.0
98.3965 12.0
98.4802 18.0
98.5639 12.0
98.6476 9.0
98.7313 12.0
98.8151 13.0
98.8988 18.0
98.9825 23.0
99.0662 8.0
99.1499 13.0
99.2336 18.0
99.3173 7.0
99.401 16.0
99.4847 14.0
99.5684 13.0
99.6521 11.0
99.7358 13.0
99.8195 13.0
99.9032 13.0
99.9869 16.0
100.071 8.0
100.154 9.0
100.238 9.0
100.322 9.0
100.405 16.0
100.489 17.0
100.573 9.0
100.657 8.0
100.74 10.0
100.824 8.0
100.908 18.0
100.991 8.0
101.075 8.0
101.159 5.0
101.243 10.0
101.326 9.0
101.41 7.0
101.494 9.0
101.577 6.0
101.661 12.0
101.745 8.0
101.828 16.0
101.912 10.0
101.996 5.0
102.08 8.0
102.163 5.0
102.247 19.0
102.331 9.0
102.414 8.0
102.498 8.0
102.582 11.0
102.666 18.0
102.749 12.0
102.833 10.0
102.917 9.0
103 11.0
103.084 15.0
103.168 7.0
103.251 10.0
103.335 15.0
103.419 18.0
103.503 16.0
103.586 19.0
103.67 9.0
103.754 10.0
103.837 13.0
103.921 9.0
104.005 19.0
104.089 8.0
104.172 11.0
104.256 4.0
104.34 11.0
104.423 14.0
104.507 17.0
104.591 10.0
104.674 10.0
104.758 11.0
104.842 12.0
104.926 10.0
105.009 13.0
105.093 8.0
105.177 11.0
105.26 13.0
105.344 15.0
105.428 18.0
105.511 8.0
105.595 10.0
105.679 9.0
105.763 13.0
105.846 20.0
105.93 12.0
106.014 9.0
106.097 8.0
106.181 7.0
106.265 19.0
106.349 9.0
106.432 12.0
106.516 12.0
106.6 13.0
106.683 11.0
106.767 11.0
106.851 12.0
106.934 10.0
107.018 1.0
107.102 9.0
107.186 10.0
107.269 14.0
107.353 11.0
107.437 12.0
107.52 14.0
107.604 11.0
107.688 12.0
107.772 21.0
107.855 23.0
107.939 11.0
108.023 9.0
108.106 12.0
108.19 11.0
108.274 17.0
108.357 10.0
108.441 10.0
108.525 17.0
108.609 10.0
108.692 13.0
108.776 12.0
108.86 14.0
108.943 15.0
109.027 13.0
109.111 12.0
109.195 6.0
109.278 7.0
109.362 22.0
109.446 10.0
109.529 9.0
109.613 10.0
109.697 14.0
109.78 19.0
109.864 6.0
109.948 11.0
110.032 14.0
110.115 8.0
110.199 12.0
110.283 14.0
110.366 15.0
110.45 11.0
110.534 16.0
110.618 12.0
110.701 11.0
110.785 15.0
110.869 10.0
110.952 9.0
111.036 13.0
111.12 13.0
111.203 16.0
111.287 13.0
111.371 12.0
111.455 11.0
111.538 9.0
111.622 7.0
111.706 10.0
111.789 12.0
111.873 8.0
111.957 9.0
112.041 10.0
112.124 12.0
112.208 14.0
112.292 17.0
112.375 8.0
112.459 7.0
112.543 12.0
112.626 9.0
112.71 14.0
112.794 7.0
112.878 17.0
112.961 8.0
113.045 14.0
113.129 11.0
113.212 12.0
113.296 15.0
113.38 14.0
113.464 14.0
113.547 10.0
113.631 17.0
113.715 10.0
113.798 12.0
113.882 16.0
113.966 17.0
114.049 7.0
114.133 15.0
114.217 15.0
114.301 8.0
114.384 17.0
114.468 14.0
114.552 13.0
114.635 16.0
114.719 12.0
114.803 8.0
114.887 13.0
114.97 11.0
115.054 9.0
115.138 7.0
115.221 20.0
115.305 7.0
115.389 13.0
115.472 6.0
115.556 21.0
115.64 11.0
115.724 13.0
115.807 10.0
115.891 14.0
115.975 11.0
116.058 11.0
116.142 17.0
116.226 11.0
116.31 9.0
116.393 16.0
116.477 15.0
116.561 8.0
116.644 17.0
116.728 11.0
116.812 18.0
116.895 11.0
116.979 15.0
117.063 9.0
117.147 12.0
117.23 12.0
117.314 10.0
117.398 9.0
117.481 8.0
117.565 17.0
117.649 6.0
117.733 14.0
117.816 11.0
117.9 17.0
117.984 9.0
118.067 12.0
118.151 14.0
118.235 11.0
118.318 9.0
118.402 16.0
118.486 15.0
118.57 12.0
118.653 17.0
118.737 17.0
118.821 17.0
118.904 12.0
118.988 6.0
119.072 8.0
119.156 14.0
119.239 5.0
119.323 15.0
119.407 11.0
119.49 10.0
119.574 10.0
119.658 12.0
119.741 9.0
119.825 8.0
119.909 10.0
119.993 14.0
120.076 13.0
120.16 10.0
120.244 11.0
120.327 16.0
120.411 18.0
120.495 18.0
120.578 12.0
120.662 14.0
120.746 14.0
120.83 17.0
120.913 14.0
120.997 12.0
121.081 9.0
121.164 11.0
121.248 14.0
121.332 15.0
121.416 15.0
121.499 11.0
121.583 12.0
121.667 8.0
121.75 10.0
121.834 15.0
121.918 9.0
122.001 17.0
122.085 19.0
122.169 8.0
122.253 13.0
122.336 5.0
122.42 12.0
122.504 18.0
122.587 13.0
122.671 39.0
122.755 41.0
122.839 27.0
122.922 18.0
123.006 18.0
123.09 10.0
123.173 16.0
123.257 11.0
123.341 18.0
123.424 14.0
123.508 14.0
123.592 13.0
123.676 14.0
123.759 11.0
123.843 11.0
123.927 12.0
124.01 13.0
124.094 10.0
124.178 13.0
124.262 11.0
124.345 6.0
124.429 19.0
124.513 14.0
124.596 16.0
124.68 10.0
124.764 17.0
124.847 11.0
124.931 15.0
125.015 9.0
125.099 15.0
125.182 14.0
125.266 20.0
125.35 14.0
125.433 15.0
125.517 13.0
125.601 10.0
125.685 13.0
125.768 15.0
125.852 14.0
125.936 15.0
126.019 19.0
126.103 11.0
126.187 10.0
126.27 9.0
126.354 11.0
126.438 8.0
126.522 21.0
126.605 15.0
126.689 15.0
126.773 14.0
126.856 17.0
126.94 8.0
127.024 12.0
127.108 16.0
127.191 13.0
127.275 12.0
127.359 16.0
127.442 17.0
127.526 16.0
127.61 11.0
127.693 12.0
127.777 14.0
127.861 15.0
127.945 2.0
128.028 13.0
128.112 19.0
128.196 10.0
128.279 11.0
128.363 11.0
128.447 11.0
128.531 7.0
128.614 11.0
128.698 11.0
128.782 14.0
128.865 11.0
128.949 15.0
129.033 12.0
129.116 10.0
129.2 10.0
129.284 17.0
129.368 13.0
129.451 17.0
129.535 16.0
129.619 12.0
129.702 15.0
129.786 7.0
129.87 17.0
129.954 15.0
129.998 12.0