File: data/W6855r/XRD_2ThetaOmega/W6855r_absolute_2th-om_10-130deg_PIXscan_17min_7.xy
10.0035 17.0
10.0872 18.0
10.1709 27.0
10.2546 22.0
10.3383 11.0
10.422 22.0
10.5057 20.0
10.5894 19.0
10.6731 19.0
10.7568 22.0
10.8405 21.0
10.9242 20.0
11.0079 25.0
11.0916 14.0
11.1753 20.0
11.259 27.0
11.3428 16.0
11.4265 22.0
11.5102 13.0
11.5939 24.0
11.6776 18.0
11.7613 32.0
11.845 24.0
11.9287 15.0
12.0124 16.0
12.0961 13.0
12.1798 23.0
12.2635 19.0
12.3472 18.0
12.4309 28.0
12.5146 23.0
12.5983 13.0
12.682 25.0
12.7657 19.0
12.8495 22.0
12.9332 16.0
13.0169 15.0
13.1006 18.0
13.1843 25.0
13.268 20.0
13.3517 18.0
13.4354 26.0
13.5191 12.0
13.6028 14.0
13.6865 13.0
13.7702 16.0
13.8539 19.0
13.9376 21.0
14.0213 17.0
14.105 19.0
14.1887 22.0
14.2724 19.0
14.3562 15.0
14.4399 17.0
14.5236 14.0
14.6073 16.0
14.691 19.0
14.7747 19.0
14.8584 14.0
14.9421 24.0
15.0258 22.0
15.1095 20.0
15.1932 19.0
15.2769 20.0
15.3606 12.0
15.4443 15.0
15.528 19.0
15.6117 12.0
15.6954 11.0
15.7791 17.0
15.8629 20.0
15.9466 14.0
16.0303 20.0
16.114 15.0
16.1977 19.0
16.2814 30.0
16.3651 20.0
16.4488 12.0
16.5325 15.0
16.6162 16.0
16.6999 21.0
16.7836 15.0
16.8673 8.0
16.951 11.0
17.0347 12.0
17.1184 15.0
17.2021 14.0
17.2858 15.0
17.3696 16.0
17.4533 16.0
17.537 15.0
17.6207 14.0
17.7044 6.0
17.7881 15.0
17.8718 29.0
17.9555 16.0
18.0392 18.0
18.1229 18.0
18.2066 15.0
18.2903 16.0
18.374 11.0
18.4577 13.0
18.5414 18.0
18.6251 17.0
18.7088 11.0
18.7925 11.0
18.8763 16.0
18.96 16.0
19.0437 18.0
19.1274 22.0
19.2111 13.0
19.2948 17.0
19.3785 8.0
19.4622 17.0
19.5459 13.0
19.6296 12.0
19.7133 19.0
19.797 13.0
19.8807 15.0
19.9644 10.0
20.0481 14.0
20.1318 14.0
20.2155 18.0
20.2992 14.0
20.383 10.0
20.4667 21.0
20.5504 14.0
20.6341 18.0
20.7178 19.0
20.8015 13.0
20.8852 13.0
20.9689 9.0
21.0526 16.0
21.1363 23.0
21.22 17.0
21.3037 16.0
21.3874 13.0
21.4711 11.0
21.5548 17.0
21.6385 11.0
21.7222 17.0
21.8059 24.0
21.8897 9.0
21.9734 17.0
22.0571 16.0
22.1408 19.0
22.2245 14.0
22.3082 13.0
22.3919 12.0
22.4756 23.0
22.5593 8.0
22.643 11.0
22.7267 12.0
22.8104 19.0
22.8941 17.0
22.9778 35.0
23.0615 29.0
23.1452 17.0
23.2289 20.0
23.3126 14.0
23.3964 24.0
23.4801 17.0
23.5638 21.0
23.6475 24.0
23.7312 23.0
23.8149 28.0
23.8986 36.0
23.9823 36.0
24.066 38.0
24.1497 60.0
24.2334 55.0
24.3171 54.0
24.4008 125.0
24.4845 113.0
24.5682 55.0
24.6519 74.0
24.7356 64.0
24.8193 38.0
24.9031 39.0
24.9868 51.0
25.0705 53.0
25.1542 78.0
25.2379 90.0
25.3216 148.0
25.4053 619.0
25.489 16176.0
25.5727 21698.0
25.6564 954.0
25.7401 368.0
25.8238 260.0
25.9075 169.0
25.9912 154.0
26.0749 114.0
26.1586 86.0
26.2423 68.0
26.326 52.0
26.4098 44.0
26.4935 44.0
26.5772 31.0
26.6609 18.0
26.7446 26.0
26.8283 23.0
26.912 24.0
26.9957 15.0
27.0794 17.0
27.1631 22.0
27.2468 20.0
27.3305 19.0
27.4142 14.0
27.4979 21.0
27.5816 11.0
27.6653 16.0
27.749 18.0
27.8327 29.0
27.9165 19.0
28.0002 14.0
28.0839 15.0
28.1676 19.0
28.2513 8.0
28.335 13.0
28.4187 17.0
28.5024 10.0
28.5861 10.0
28.6698 14.0
28.7535 10.0
28.8372 7.0
28.9209 14.0
29.0046 11.0
29.0883 13.0
29.172 11.0
29.2557 9.0
29.3394 14.0
29.4232 12.0
29.5069 8.0
29.5906 18.0
29.6743 8.0
29.758 18.0
29.8417 17.0
29.9254 17.0
30.0091 23.0
30.0928 10.0
30.1765 18.0
30.2602 18.0
30.3439 15.0
30.4276 14.0
30.5113 11.0
30.595 14.0
30.6787 10.0
30.7624 18.0
30.8461 11.0
30.9298 24.0
31.0136 13.0
31.0973 11.0
31.181 12.0
31.2647 13.0
31.3484 12.0
31.4321 8.0
31.5158 9.0
31.5995 15.0
31.6832 13.0
31.7669 12.0
31.8506 15.0
31.9343 18.0
32.018 9.0
32.1017 12.0
32.1854 6.0
32.2691 7.0
32.3528 10.0
32.4365 13.0
32.5203 11.0
32.604 6.0
32.6877 7.0
32.7714 13.0
32.8551 11.0
32.9388 12.0
33.0225 7.0
33.1062 11.0
33.1899 11.0
33.2736 14.0
33.3573 9.0
33.441 16.0
33.5247 8.0
33.6084 9.0
33.6921 12.0
33.7758 10.0
33.8595 17.0
33.9432 12.0
34.027 5.0
34.1107 10.0
34.1944 10.0
34.2781 13.0
34.3618 18.0
34.4455 12.0
34.5292 13.0
34.6129 16.0
34.6966 11.0
34.7803 14.0
34.864 8.0
34.9477 13.0
35.0314 13.0
35.1151 9.0
35.1988 19.0
35.2825 7.0
35.3662 9.0
35.4499 13.0
35.5337 20.0
35.6174 13.0
35.7011 14.0
35.7848 12.0
35.8685 16.0
35.9522 13.0
36.0359 16.0
36.1196 11.0
36.2033 5.0
36.287 19.0
36.3707 12.0
36.4544 10.0
36.5381 8.0
36.6218 13.0
36.7055 12.0
36.7892 10.0
36.8729 11.0
36.9566 11.0
37.0404 13.0
37.1241 15.0
37.2078 12.0
37.2915 11.0
37.3752 12.0
37.4589 16.0
37.5426 15.0
37.6263 14.0
37.71 13.0
37.7937 14.0
37.8774 17.0
37.9611 10.0
38.0448 9.0
38.1285 11.0
38.2122 14.0
38.2959 12.0
38.3796 13.0
38.4633 5.0
38.5471 16.0
38.6308 12.0
38.7145 13.0
38.7982 13.0
38.8819 18.0
38.9656 12.0
39.0493 9.0
39.133 15.0
39.2167 9.0
39.3004 6.0
39.3841 8.0
39.4678 18.0
39.5515 11.0
39.6352 14.0
39.7189 15.0
39.8026 12.0
39.8863 5.0
39.97 6.0
40.0538 14.0
40.1375 17.0
40.2212 9.0
40.3049 15.0
40.3886 12.0
40.4723 13.0
40.556 7.0
40.6397 3.0
40.7234 9.0
40.8071 7.0
40.8908 6.0
40.9745 12.0
41.0582 11.0
41.1419 15.0
41.2256 6.0
41.3093 7.0
41.393 11.0
41.4767 7.0
41.5605 14.0
41.6442 11.0
41.7279 9.0
41.8116 10.0
41.8953 14.0
41.979 16.0
42.0627 13.0
42.1464 9.0
42.2301 19.0
42.3138 10.0
42.3975 13.0
42.4812 9.0
42.5649 15.0
42.6486 16.0
42.7323 18.0
42.816 13.0
42.8997 8.0
42.9834 10.0
43.0672 11.0
43.1509 15.0
43.2346 15.0
43.3183 11.0
43.402 14.0
43.4857 12.0
43.5694 12.0
43.6531 10.0
43.7368 16.0
43.8205 16.0
43.9042 10.0
43.9879 15.0
44.0716 18.0
44.1553 14.0
44.239 14.0
44.3227 26.0
44.4064 28.0
44.4901 26.0
44.5739 21.0
44.6576 26.0
44.7413 16.0
44.825 13.0
44.9087 10.0
44.9924 11.0
45.0761 14.0
45.1598 12.0
45.2435 11.0
45.3272 13.0
45.4109 14.0
45.4946 13.0
45.5783 6.0
45.662 9.0
45.7457 8.0
45.8294 4.0
45.9131 5.0
45.9968 16.0
46.0806 7.0
46.1643 10.0
46.248 12.0
46.3317 11.0
46.4154 14.0
46.4991 5.0
46.5828 7.0
46.6665 13.0
46.7502 13.0
46.8339 15.0
46.9176 13.0
47.0013 16.0
47.085 59.0
47.1687 36.0
47.2524 14.0
47.3361 14.0
47.4198 7.0
47.5035 15.0
47.5873 12.0
47.671 13.0
47.7547 13.0
47.8384 9.0
47.9221 17.0
48.0058 16.0
48.0895 12.0
48.1732 16.0
48.2569 13.0
48.3406 13.0
48.4243 17.0
48.508 27.0
48.5917 23.0
48.6754 13.0
48.7591 15.0
48.8428 11.0
48.9265 15.0
49.0102 6.0
49.094 20.0
49.1777 19.0
49.2614 19.0
49.3451 23.0
49.4288 26.0
49.5125 25.0
49.5962 23.0
49.6799 24.0
49.7636 29.0
49.8473 32.0
49.931 35.0
50.0147 26.0
50.0984 60.0
50.1821 180.0
50.2658 37.0
50.3495 33.0
50.4332 25.0
50.5169 37.0
50.6007 33.0
50.6844 25.0
50.7681 19.0
50.8518 22.0
50.9355 24.0
51.0192 20.0
51.1029 17.0
51.1866 18.0
51.2703 18.0
51.354 25.0
51.4377 35.0
51.5214 23.0
51.6051 29.0
51.6888 45.0
51.7725 42.0
51.8562 52.0
51.9399 57.0
52.0236 78.0
52.1074 106.0
52.1911 180.0
52.2748 377.0
52.3585 506.0
52.4422 3400.0
52.5259 22471.0
52.6096 10690.0
52.6933 2836.0
52.777 498.0
52.8607 282.0
52.9444 193.0
53.0281 133.0
53.1118 124.0
53.1955 88.0
53.2792 91.0
53.3629 85.0
53.4466 72.0
53.5303 64.0
53.6141 51.0
53.6978 66.0
53.7815 52.0
53.8652 49.0
53.9489 38.0
54.0326 52.0
54.1163 40.0
54.2 32.0
54.2837 25.0
54.3674 25.0
54.4511 29.0
54.5348 25.0
54.6185 16.0
54.7022 24.0
54.7859 26.0
54.8696 17.0
54.9533 28.0
55.037 17.0
55.1208 19.0
55.2045 15.0
55.2882 16.0
55.3719 20.0
55.4556 22.0
55.5393 11.0
55.623 16.0
55.7067 18.0
55.7904 21.0
55.8741 14.0
55.9578 14.0
56.0415 9.0
56.1252 12.0
56.2089 9.0
56.2926 18.0
56.3763 13.0
56.46 8.0
56.5437 15.0
56.6275 18.0
56.7112 10.0
56.7949 9.0
56.8786 22.0
56.9623 13.0
57.046 15.0
57.1297 5.0
57.2134 9.0
57.2971 17.0
57.3808 20.0
57.4645 12.0
57.5482 16.0
57.6319 11.0
57.7156 14.0
57.7993 8.0
57.883 8.0
57.9667 13.0
58.0504 16.0
58.1342 12.0
58.2179 18.0
58.3016 7.0
58.3853 6.0
58.469 15.0
58.5527 11.0
58.6364 15.0
58.7201 13.0
58.8038 17.0
58.8875 12.0
58.9712 9.0
59.0549 10.0
59.1386 13.0
59.2223 10.0
59.306 12.0
59.3897 14.0
59.4734 17.0
59.5571 11.0
59.6409 12.0
59.7246 11.0
59.8083 11.0
59.892 12.0
59.9757 9.0
60.0594 10.0
60.1431 13.0
60.2268 10.0
60.3105 12.0
60.3942 18.0
60.4779 15.0
60.5616 11.0
60.6453 12.0
60.729 19.0
60.8127 18.0
60.8964 3.0
60.9801 17.0
61.0638 13.0
61.1476 15.0
61.2313 15.0
61.315 12.0
61.3987 9.0
61.4824 12.0
61.5661 14.0
61.6498 13.0
61.7335 12.0
61.8172 8.0
61.9009 9.0
61.9846 18.0
62.0683 13.0
62.152 13.0
62.2357 10.0
62.3194 9.0
62.4031 20.0
62.4868 16.0
62.5705 7.0
62.6543 14.0
62.738 11.0
62.8217 10.0
62.9054 13.0
62.9891 12.0
63.0728 9.0
63.1565 10.0
63.2402 11.0
63.3239 10.0
63.4076 11.0
63.4913 9.0
63.575 12.0
63.6587 14.0
63.7424 12.0
63.8261 11.0
63.9098 17.0
63.9935 16.0
64.0772 12.0
64.161 16.0
64.2447 11.0
64.3284 17.0
64.4121 15.0
64.4958 7.0
64.5795 10.0
64.6632 9.0
64.7469 6.0
64.8306 11.0
64.9143 17.0
64.998 18.0
65.0817 9.0
65.1654 10.0
65.2491 11.0
65.3328 15.0
65.4165 6.0
65.5002 14.0
65.5839 13.0
65.6677 8.0
65.7514 8.0
65.8351 10.0
65.9188 4.0
66.0025 17.0
66.0862 12.0
66.1699 10.0
66.2536 14.0
66.3373 11.0
66.421 12.0
66.5047 13.0
66.5884 9.0
66.6721 9.0
66.7558 14.0
66.8395 7.0
66.9232 14.0
67.0069 13.0
67.0906 17.0
67.1744 7.0
67.2581 14.0
67.3418 4.0
67.4255 16.0
67.5092 10.0
67.5929 8.0
67.6766 8.0
67.7603 12.0
67.844 11.0
67.9277 14.0
68.0114 13.0
68.0951 10.0
68.1788 9.0
68.2625 15.0
68.3462 16.0
68.4299 14.0
68.5136 14.0
68.5973 9.0
68.6811 13.0
68.7648 11.0
68.8485 10.0
68.9322 15.0
69.0159 9.0
69.0996 10.0
69.1833 14.0
69.267 12.0
69.3507 6.0
69.4344 8.0
69.5181 12.0
69.6018 9.0
69.6855 9.0
69.7692 11.0
69.8529 14.0
69.9366 15.0
70.0203 18.0
70.104 11.0
70.1878 17.0
70.2715 8.0
70.3552 19.0
70.4389 9.0
70.5226 10.0
70.6063 13.0
70.69 6.0
70.7737 15.0
70.8574 14.0
70.9411 7.0
71.0248 16.0
71.1085 16.0
71.1922 10.0
71.2759 15.0
71.3596 12.0
71.4433 12.0
71.527 12.0
71.6107 23.0
71.6945 12.0
71.7782 14.0
71.8619 4.0
71.9456 9.0
72.0293 12.0
72.113 12.0
72.1967 9.0
72.2804 12.0
72.3641 14.0
72.4478 5.0
72.5315 11.0
72.6152 12.0
72.6989 9.0
72.7826 14.0
72.8663 12.0
72.95 25.0
73.0337 14.0
73.1174 12.0
73.2012 14.0
73.2849 14.0
73.3686 8.0
73.4523 8.0
73.536 10.0
73.6197 11.0
73.7034 12.0
73.7871 11.0
73.8708 12.0
73.9545 22.0
74.0382 11.0
74.1219 10.0
74.2056 12.0
74.2893 15.0
74.373 12.0
74.4567 10.0
74.5404 11.0
74.6241 11.0
74.7079 21.0
74.7916 14.0
74.8753 13.0
74.959 14.0
75.0427 11.0
75.1264 11.0
75.2101 17.0
75.2938 16.0
75.3775 15.0
75.4612 16.0
75.5449 12.0
75.6286 17.0
75.7123 6.0
75.796 11.0
75.8797 14.0
75.9634 12.0
76.0471 5.0
76.1308 11.0
76.2146 15.0
76.2983 11.0
76.382 11.0
76.4657 10.0
76.5494 9.0
76.6331 15.0
76.7168 15.0
76.8005 16.0
76.8842 6.0
76.9679 6.0
77.0516 13.0
77.1353 11.0
77.219 13.0
77.3027 14.0
77.3864 11.0
77.4701 16.0
77.5538 11.0
77.6375 15.0
77.7213 15.0
77.805 7.0
77.8887 9.0
77.9724 13.0
78.0561 12.0
78.1398 14.0
78.2235 22.0
78.3072 13.0
78.3909 13.0
78.4746 13.0
78.5583 18.0
78.642 10.0
78.7257 13.0
78.8094 12.0
78.8931 16.0
78.9768 13.0
79.0605 10.0
79.1442 17.0
79.228 13.0
79.3117 10.0
79.3954 13.0
79.4791 18.0
79.5628 9.0
79.6465 14.0
79.7302 12.0
79.8139 10.0
79.8976 13.0
79.9813 17.0
80.065 13.0
80.1487 15.0
80.2324 20.0
80.3161 14.0
80.3998 13.0
80.4835 8.0
80.5672 14.0
80.6509 6.0
80.7347 11.0
80.8184 19.0
80.9021 13.0
80.9858 15.0
81.0695 6.0
81.1532 10.0
81.2369 12.0
81.3206 15.0
81.4043 18.0
81.488 6.0
81.5717 8.0
81.6554 18.0
81.7391 12.0
81.8228 14.0
81.9065 11.0
81.9902 14.0
82.0739 23.0
82.1576 15.0
82.2414 16.0
82.3251 21.0
82.4088 14.0
82.4925 14.0
82.5762 17.0
82.6599 23.0
82.7436 29.0
82.8273 27.0
82.911 18.0
82.9947 30.0
83.0784 63.0
83.1621 1527.0
83.2458 183.0
83.3295 67.0
83.4132 744.0
83.4969 115.0
83.5806 37.0
83.6643 25.0
83.7481 17.0
83.8318 18.0
83.9155 16.0
83.9992 15.0
84.0829 8.0
84.1666 16.0
84.2503 8.0
84.334 11.0
84.4177 8.0
84.5014 9.0
84.5851 10.0
84.6688 15.0
84.7525 17.0
84.8362 10.0
84.9199 12.0
85.0036 15.0
85.0873 12.0
85.171 14.0
85.2548 15.0
85.3385 16.0
85.4222 13.0
85.5059 11.0
85.5896 9.0
85.6733 14.0
85.757 16.0
85.8407 4.0
85.9244 11.0
86.0081 14.0
86.0918 6.0
86.1755 15.0
86.2592 13.0
86.3429 13.0
86.4266 13.0
86.5103 14.0
86.594 12.0
86.6777 7.0
86.7615 7.0
86.8452 8.0
86.9289 7.0
87.0126 9.0
87.0963 7.0
87.18 18.0
87.2637 13.0
87.3474 16.0
87.4311 13.0
87.5148 12.0
87.5985 12.0
87.6822 15.0
87.7659 10.0
87.8496 3.0
87.9333 12.0
88.017 10.0
88.1007 13.0
88.1844 16.0
88.2682 9.0
88.3519 8.0
88.4356 10.0
88.5193 11.0
88.603 18.0
88.6867 17.0
88.7704 15.0
88.8541 14.0
88.9378 9.0
89.0215 12.0
89.1052 8.0
89.1889 11.0
89.2726 11.0
89.3563 11.0
89.44 10.0
89.5237 10.0
89.6074 12.0
89.6911 11.0
89.7749 16.0
89.8586 15.0
89.9423 12.0
90.026 10.0
90.1097 11.0
90.1934 15.0
90.2771 10.0
90.3608 11.0
90.4445 4.0
90.5282 12.0
90.6119 15.0
90.6956 11.0
90.7793 15.0
90.863 13.0
90.9467 7.0
91.0304 20.0
91.1141 8.0
91.1978 8.0
91.2816 7.0
91.3653 15.0
91.449 14.0
91.5327 17.0
91.6164 7.0
91.7001 7.0
91.7838 13.0
91.8675 10.0
91.9512 15.0
92.0349 13.0
92.1186 10.0
92.2023 12.0
92.286 10.0
92.3697 19.0
92.4534 16.0
92.5371 19.0
92.6208 19.0
92.7045 8.0
92.7883 14.0
92.872 18.0
92.9557 15.0
93.0394 13.0
93.1231 17.0
93.2068 9.0
93.2905 19.0
93.3742 9.0
93.4579 7.0
93.5416 8.0
93.6253 20.0
93.709 13.0
93.7927 16.0
93.8764 16.0
93.9601 14.0
94.0438 11.0
94.1275 14.0
94.2112 16.0
94.295 14.0
94.3787 9.0
94.4624 15.0
94.5461 12.0
94.6298 8.0
94.7135 8.0
94.7972 13.0
94.8809 13.0
94.9646 17.0
95.0483 12.0
95.132 11.0
95.2157 15.0
95.2994 6.0
95.3831 12.0
95.4668 14.0
95.5505 5.0
95.6342 12.0
95.7179 15.0
95.8017 12.0
95.8854 11.0
95.9691 20.0
96.0528 13.0
96.1365 9.0
96.2202 12.0
96.3039 9.0
96.3876 12.0
96.4713 9.0
96.555 14.0
96.6387 14.0
96.7224 13.0
96.8061 9.0
96.8898 17.0
96.9735 6.0
97.0572 15.0
97.1409 16.0
97.2246 14.0
97.3084 13.0
97.3921 15.0
97.4758 17.0
97.5595 14.0
97.6432 12.0
97.7269 14.0
97.8106 12.0
97.8943 18.0
97.978 11.0
98.0617 6.0
98.1454 11.0
98.2291 15.0
98.3128 9.0
98.3965 15.0
98.4802 14.0
98.5639 17.0
98.6476 12.0
98.7313 17.0
98.8151 8.0
98.8988 15.0
98.9825 19.0
99.0662 16.0
99.1499 10.0
99.2336 13.0
99.3173 14.0
99.401 9.0
99.4847 17.0
99.5684 14.0
99.6521 18.0
99.7358 14.0
99.8195 9.0
99.9032 10.0
99.9869 10.0
100.071 9.0
100.154 11.0
100.238 11.0
100.322 12.0
100.405 13.0
100.489 11.0
100.573 13.0
100.657 10.0
100.74 12.0
100.824 16.0
100.908 9.0
100.991 21.0
101.075 14.0
101.159 15.0
101.243 15.0
101.326 13.0
101.41 17.0
101.494 10.0
101.577 14.0
101.661 9.0
101.745 13.0
101.828 11.0
101.912 8.0
101.996 9.0
102.08 16.0
102.163 14.0
102.247 16.0
102.331 10.0
102.414 14.0
102.498 15.0
102.582 14.0
102.666 10.0
102.749 14.0
102.833 22.0
102.917 9.0
103 8.0
103.084 11.0
103.168 17.0
103.251 8.0
103.335 14.0
103.419 10.0
103.503 9.0
103.586 18.0
103.67 14.0
103.754 11.0
103.837 12.0
103.921 18.0
104.005 12.0
104.089 21.0
104.172 10.0
104.256 15.0
104.34 12.0
104.423 11.0
104.507 10.0
104.591 14.0
104.674 8.0
104.758 11.0
104.842 17.0
104.926 23.0
105.009 22.0
105.093 15.0
105.177 14.0
105.26 20.0
105.344 7.0
105.428 12.0
105.511 11.0
105.595 12.0
105.679 12.0
105.763 13.0
105.846 14.0
105.93 6.0
106.014 17.0
106.097 14.0
106.181 12.0
106.265 15.0
106.349 23.0
106.432 12.0
106.516 12.0
106.6 15.0
106.683 12.0
106.767 13.0
106.851 9.0
106.934 14.0
107.018 12.0
107.102 15.0
107.186 15.0
107.269 9.0
107.353 13.0
107.437 11.0
107.52 10.0
107.604 14.0
107.688 9.0
107.772 10.0
107.855 13.0
107.939 7.0
108.023 10.0
108.106 13.0
108.19 11.0
108.274 15.0
108.357 12.0
108.441 15.0
108.525 8.0
108.609 16.0
108.692 14.0
108.776 6.0
108.86 11.0
108.943 21.0
109.027 22.0
109.111 15.0
109.195 9.0
109.278 12.0
109.362 9.0
109.446 15.0
109.529 14.0
109.613 12.0
109.697 12.0
109.78 15.0
109.864 16.0
109.948 7.0
110.032 9.0
110.115 16.0
110.199 15.0
110.283 16.0
110.366 6.0
110.45 13.0
110.534 12.0
110.618 17.0
110.701 9.0
110.785 16.0
110.869 17.0
110.952 18.0
111.036 13.0
111.12 15.0
111.203 17.0
111.287 13.0
111.371 20.0
111.455 14.0
111.538 14.0
111.622 19.0
111.706 16.0
111.789 14.0
111.873 13.0
111.957 9.0
112.041 14.0
112.124 13.0
112.208 14.0
112.292 6.0
112.375 9.0
112.459 13.0
112.543 7.0
112.626 21.0
112.71 12.0
112.794 11.0
112.878 11.0
112.961 14.0
113.045 16.0
113.129 10.0
113.212 14.0
113.296 9.0
113.38 7.0
113.464 10.0
113.547 12.0
113.631 12.0
113.715 11.0
113.798 12.0
113.882 14.0
113.966 19.0
114.049 18.0
114.133 9.0
114.217 13.0
114.301 9.0
114.384 12.0
114.468 14.0
114.552 21.0
114.635 11.0
114.719 12.0
114.803 18.0
114.887 8.0
114.97 7.0
115.054 7.0
115.138 18.0
115.221 7.0
115.305 14.0
115.389 8.0
115.472 16.0
115.556 17.0
115.64 19.0
115.724 16.0
115.807 16.0
115.891 17.0
115.975 29.0
116.058 30.0
116.142 33.0
116.226 18.0
116.31 20.0
116.393 22.0
116.477 13.0
116.561 7.0
116.644 15.0
116.728 15.0
116.812 13.0
116.895 16.0
116.979 10.0
117.063 7.0
117.147 14.0
117.23 10.0
117.314 11.0
117.398 18.0
117.481 17.0
117.565 19.0
117.649 11.0
117.733 12.0
117.816 13.0
117.9 18.0
117.984 12.0
118.067 20.0
118.151 10.0
118.235 13.0
118.318 9.0
118.402 10.0
118.486 19.0
118.57 11.0
118.653 17.0
118.737 11.0
118.821 5.0
118.904 17.0
118.988 9.0
119.072 13.0
119.156 15.0
119.239 12.0
119.323 9.0
119.407 14.0
119.49 12.0
119.574 17.0
119.658 11.0
119.741 14.0
119.825 11.0
119.909 17.0
119.993 13.0
120.076 16.0
120.16 11.0
120.244 15.0
120.327 13.0
120.411 13.0
120.495 15.0
120.578 18.0
120.662 22.0
120.746 11.0
120.83 15.0
120.913 14.0
120.997 18.0
121.081 13.0
121.164 15.0
121.248 13.0
121.332 10.0
121.416 16.0
121.499 18.0
121.583 9.0
121.667 14.0
121.75 16.0
121.834 13.0
121.918 12.0
122.001 17.0
122.085 28.0
122.169 19.0
122.253 13.0
122.336 15.0
122.42 21.0
122.504 20.0
122.587 20.0
122.671 24.0
122.755 14.0
122.839 14.0
122.922 22.0
123.006 22.0
123.09 20.0
123.173 28.0
123.257 13.0
123.341 24.0
123.424 25.0
123.508 45.0
123.592 44.0
123.676 39.0
123.759 45.0
123.843 37.0
123.927 37.0
124.01 52.0
124.094 53.0
124.178 76.0
124.262 100.0
124.345 149.0
124.429 401.0
124.513 1631.0
124.596 6521.0
124.68 1382.0
124.764 427.0
124.847 211.0
124.931 192.0
125.015 477.0
125.099 2571.0
125.182 1788.0
125.266 454.0
125.35 176.0
125.433 86.0
125.517 68.0
125.601 50.0
125.685 41.0
125.768 36.0
125.852 24.0
125.936 41.0
126.019 33.0
126.103 23.0
126.187 29.0
126.27 22.0
126.354 20.0
126.438 37.0
126.522 21.0
126.605 38.0
126.689 18.0
126.773 16.0
126.856 19.0
126.94 18.0
127.024 31.0
127.108 14.0
127.191 21.0
127.275 16.0
127.359 21.0
127.442 20.0
127.526 13.0
127.61 19.0
127.693 22.0
127.777 24.0
127.861 20.0
127.945 7.0
128.028 22.0
128.112 11.0
128.196 17.0
128.279 17.0
128.363 17.0
128.447 19.0
128.531 14.0
128.614 18.0
128.698 25.0
128.782 22.0
128.865 21.0
128.949 13.0
129.033 16.0
129.116 10.0
129.2 24.0
129.284 16.0
129.368 13.0
129.451 18.0
129.535 18.0
129.619 18.0
129.702 14.0
129.786 18.0
129.87 10.0
129.954 18.0
129.998 22.0