File: data/W6900m/XRD_2ThetaOmega/scan_2th-om_m_Cr2O3_55-75deg_PIXscan_4min_C1.xy
55.0019 147.0
55.0166 153.0
55.0314 163.0
55.0462 169.0
55.0609 149.0
55.0757 157.0
55.0905 154.0
55.1053 164.0
55.12 155.0
55.1348 162.0
55.1496 153.0
55.1643 160.0
55.1791 156.0
55.1939 166.0
55.2087 153.0
55.2234 173.0
55.2382 181.0
55.253 149.0
55.2678 152.0
55.2825 162.0
55.2973 164.0
55.3121 139.0
55.3268 170.0
55.3416 140.0
55.3564 153.0
55.3712 163.0
55.3859 133.0
55.4007 169.0
55.4155 139.0
55.4302 180.0
55.445 173.0
55.4598 164.0
55.4746 135.0
55.4893 140.0
55.5041 152.0
55.5189 168.0
55.5336 157.0
55.5484 166.0
55.5632 139.0
55.578 156.0
55.5927 167.0
55.6075 137.0
55.6223 175.0
55.637 161.0
55.6518 160.0
55.6666 159.0
55.6814 163.0
55.6961 146.0
55.7109 141.0
55.7257 147.0
55.7404 136.0
55.7552 156.0
55.77 168.0
55.7848 133.0
55.7995 162.0
55.8143 153.0
55.8291 154.0
55.8438 150.0
55.8586 166.0
55.8734 166.0
55.8882 155.0
55.9029 155.0
55.9177 147.0
55.9325 161.0
55.9472 152.0
55.962 143.0
55.9768 159.0
55.9916 158.0
56.0063 145.0
56.0211 152.0
56.0359 178.0
56.0506 153.0
56.0654 152.0
56.0802 166.0
56.095 141.0
56.1097 167.0
56.1245 172.0
56.1393 175.0
56.154 141.0
56.1688 148.0
56.1836 150.0
56.1984 156.0
56.2131 166.0
56.2279 180.0
56.2427 153.0
56.2574 153.0
56.2722 157.0
56.287 163.0
56.3018 148.0
56.3165 149.0
56.3313 139.0
56.3461 161.0
56.3608 182.0
56.3756 164.0
56.3904 148.0
56.4052 164.0
56.4199 166.0
56.4347 160.0
56.4495 142.0
56.4642 168.0
56.479 153.0
56.4938 157.0
56.5086 175.0
56.5233 156.0
56.5381 150.0
56.5529 156.0
56.5676 166.0
56.5824 142.0
56.5972 153.0
56.612 155.0
56.6267 173.0
56.6415 183.0
56.6563 155.0
56.671 148.0
56.6858 164.0
56.7006 137.0
56.7154 164.0
56.7301 159.0
56.7449 159.0
56.7597 174.0
56.7745 189.0
56.7892 161.0
56.804 156.0
56.8188 162.0
56.8335 155.0
56.8483 145.0
56.8631 155.0
56.8779 140.0
56.8926 142.0
56.9074 155.0
56.9222 152.0
56.9369 161.0
56.9517 153.0
56.9665 156.0
56.9813 149.0
56.996 161.0
57.0108 169.0
57.0256 146.0
57.0403 155.0
57.0551 164.0
57.0699 138.0
57.0847 145.0
57.0994 154.0
57.1142 167.0
57.129 149.0
57.1437 146.0
57.1585 157.0
57.1733 133.0
57.1881 151.0
57.2028 135.0
57.2176 160.0
57.2324 148.0
57.2471 173.0
57.2619 165.0
57.2767 145.0
57.2915 155.0
57.3062 157.0
57.321 143.0
57.3358 151.0
57.3505 153.0
57.3653 147.0
57.3801 144.0
57.3949 150.0
57.4096 152.0
57.4244 150.0
57.4392 170.0
57.4539 157.0
57.4687 163.0
57.4835 157.0
57.4983 162.0
57.513 183.0
57.5278 164.0
57.5426 169.0
57.5573 180.0
57.5721 159.0
57.5869 171.0
57.6017 152.0
57.6164 153.0
57.6312 152.0
57.646 148.0
57.6607 166.0
57.6755 170.0
57.6903 133.0
57.7051 189.0
57.7198 173.0
57.7346 166.0
57.7494 158.0
57.7641 130.0
57.7789 181.0
57.7937 149.0
57.8085 173.0
57.8232 157.0
57.838 167.0
57.8528 164.0
57.8675 145.0
57.8823 146.0
57.8971 172.0
57.9119 164.0
57.9266 177.0
57.9414 164.0
57.9562 169.0
57.9709 161.0
57.9857 140.0
58.0005 168.0
58.0153 151.0
58.03 156.0
58.0448 147.0
58.0596 179.0
58.0743 154.0
58.0891 153.0
58.1039 154.0
58.1187 155.0
58.1334 152.0
58.1482 138.0
58.163 161.0
58.1777 178.0
58.1925 164.0
58.2073 168.0
58.2221 131.0
58.2368 155.0
58.2516 169.0
58.2664 153.0
58.2812 172.0
58.2959 137.0
58.3107 180.0
58.3255 146.0
58.3402 157.0
58.355 152.0
58.3698 161.0
58.3846 148.0
58.3993 148.0
58.4141 155.0
58.4289 154.0
58.4436 161.0
58.4584 147.0
58.4732 144.0
58.488 149.0
58.5027 136.0
58.5175 142.0
58.5323 163.0
58.547 146.0
58.5618 151.0
58.5766 133.0
58.5914 151.0
58.6061 130.0
58.6209 149.0
58.6357 146.0
58.6504 160.0
58.6652 161.0
58.68 171.0
58.6948 170.0
58.7095 145.0
58.7243 158.0
58.7391 155.0
58.7538 156.0
58.7686 154.0
58.7834 168.0
58.7982 149.0
58.8129 182.0
58.8277 169.0
58.8425 164.0
58.8572 158.0
58.872 143.0
58.8868 163.0
58.9016 163.0
58.9163 152.0
58.9311 163.0
58.9459 155.0
58.9606 153.0
58.9754 149.0
58.9902 151.0
59.005 151.0
59.0197 143.0
59.0345 164.0
59.0493 161.0
59.064 158.0
59.0788 182.0
59.0936 152.0
59.1084 155.0
59.1231 164.0
59.1379 148.0
59.1527 132.0
59.1674 156.0
59.1822 150.0
59.197 157.0
59.2118 168.0
59.2265 165.0
59.2413 171.0
59.2561 153.0
59.2708 161.0
59.2856 159.0
59.3004 162.0
59.3152 170.0
59.3299 140.0
59.3447 169.0
59.3595 156.0
59.3742 174.0
59.389 159.0
59.4038 152.0
59.4186 171.0
59.4333 149.0
59.4481 160.0
59.4629 148.0
59.4776 165.0
59.4924 154.0
59.5072 155.0
59.522 145.0
59.5367 165.0
59.5515 167.0
59.5663 169.0
59.581 163.0
59.5958 165.0
59.6106 151.0
59.6254 175.0
59.6401 165.0
59.6549 164.0
59.6697 142.0
59.6844 157.0
59.6992 149.0
59.714 158.0
59.7288 133.0
59.7435 181.0
59.7583 168.0
59.7731 189.0
59.7878 172.0
59.8026 176.0
59.8174 143.0
59.8322 183.0
59.8469 168.0
59.8617 179.0
59.8765 140.0
59.8913 154.0
59.906 154.0
59.9208 153.0
59.9356 157.0
59.9503 156.0
59.9651 143.0
59.9799 171.0
59.9947 169.0
60.0094 173.0
60.0242 166.0
60.039 170.0
60.0537 156.0
60.0685 185.0
60.0833 182.0
60.0981 140.0
60.1128 158.0
60.1276 176.0
60.1424 169.0
60.1571 177.0
60.1719 153.0
60.1867 171.0
60.2015 160.0
60.2162 168.0
60.231 174.0
60.2458 181.0
60.2605 179.0
60.2753 164.0
60.2901 180.0
60.3049 202.0
60.3196 172.0
60.3344 175.0
60.3492 179.0
60.3639 170.0
60.3787 164.0
60.3935 168.0
60.4083 165.0
60.423 176.0
60.4378 168.0
60.4526 178.0
60.4673 166.0
60.4821 178.0
60.4969 175.0
60.5117 158.0
60.5264 175.0
60.5412 170.0
60.556 155.0
60.5707 175.0
60.5855 164.0
60.6003 171.0
60.6151 168.0
60.6298 161.0
60.6446 179.0
60.6594 167.0
60.6741 189.0
60.6889 186.0
60.7037 181.0
60.7185 180.0
60.7332 209.0
60.748 297.0
60.7628 324.0
60.7775 454.0
60.7923 653.0
60.8071 914.0
60.8219 1175.0
60.8366 1274.0
60.8514 1233.0
60.8662 1030.0
60.8809 712.0
60.8957 520.0
60.9105 428.0
60.9253 382.0
60.94 315.0
60.9548 262.0
60.9696 236.0
60.9843 233.0
60.9991 205.0
61.0139 186.0
61.0287 190.0
61.0434 204.0
61.0582 224.0
61.073 196.0
61.0877 193.0
61.1025 200.0
61.1173 192.0
61.1321 176.0
61.1468 160.0
61.1616 190.0
61.1764 195.0
61.1911 164.0
61.2059 175.0
61.2207 168.0
61.2355 168.0
61.2502 169.0
61.265 165.0
61.2798 153.0
61.2945 176.0
61.3093 165.0
61.3241 169.0
61.3389 170.0
61.3536 187.0
61.3684 169.0
61.3832 184.0
61.398 185.0
61.4127 177.0
61.4275 190.0
61.4423 167.0
61.457 166.0
61.4718 147.0
61.4866 185.0
61.5014 170.0
61.5161 173.0
61.5309 172.0
61.5457 188.0
61.5604 155.0
61.5752 156.0
61.59 191.0
61.6048 171.0
61.6195 179.0
61.6343 180.0
61.6491 163.0
61.6638 166.0
61.6786 156.0
61.6934 162.0
61.7082 151.0
61.7229 169.0
61.7377 173.0
61.7525 175.0
61.7672 146.0
61.782 163.0
61.7968 174.0
61.8116 182.0
61.8263 165.0
61.8411 169.0
61.8559 179.0
61.8706 176.0
61.8854 152.0
61.9002 182.0
61.915 192.0
61.9297 186.0
61.9445 167.0
61.9593 182.0
61.974 175.0
61.9888 165.0
62.0036 160.0
62.0184 193.0
62.0331 165.0
62.0479 145.0
62.0627 177.0
62.0774 186.0
62.0922 180.0
62.107 152.0
62.1218 193.0
62.1365 165.0
62.1513 169.0
62.1661 166.0
62.1808 156.0
62.1956 166.0
62.2104 170.0
62.2252 187.0
62.2399 166.0
62.2547 148.0
62.2695 158.0
62.2842 184.0
62.299 178.0
62.3138 180.0
62.3286 166.0
62.3433 164.0
62.3581 176.0
62.3729 184.0
62.3876 173.0
62.4024 188.0
62.4172 192.0
62.432 171.0
62.4467 182.0
62.4615 192.0
62.4763 167.0
62.491 188.0
62.5058 166.0
62.5206 160.0
62.5354 173.0
62.5501 180.0
62.5649 202.0
62.5797 160.0
62.5944 185.0
62.6092 172.0
62.624 179.0
62.6388 163.0
62.6535 187.0
62.6683 166.0
62.6831 170.0
62.6978 172.0
62.7126 206.0
62.7274 185.0
62.7422 162.0
62.7569 176.0
62.7717 175.0
62.7865 186.0
62.8012 175.0
62.816 197.0
62.8308 180.0
62.8456 178.0
62.8603 181.0
62.8751 168.0
62.8899 176.0
62.9047 186.0
62.9194 202.0
62.9342 193.0
62.949 208.0
62.9637 207.0
62.9785 189.0
62.9933 209.0
63.0081 204.0
63.0228 206.0
63.0376 173.0
63.0524 213.0
63.0671 186.0
63.0819 175.0
63.0967 180.0
63.1115 211.0
63.1262 209.0
63.141 206.0
63.1558 176.0
63.1705 181.0
63.1853 223.0
63.2001 187.0
63.2149 196.0
63.2296 173.0
63.2444 200.0
63.2592 224.0
63.2739 213.0
63.2887 178.0
63.3035 187.0
63.3183 216.0
63.333 206.0
63.3478 212.0
63.3626 216.0
63.3773 246.0
63.3921 187.0
63.4069 211.0
63.4217 190.0
63.4364 229.0
63.4512 241.0
63.466 197.0
63.4807 223.0
63.4955 227.0
63.5103 211.0
63.5251 233.0
63.5398 225.0
63.5546 248.0
63.5694 237.0
63.5841 237.0
63.5989 244.0
63.6137 216.0
63.6285 258.0
63.6432 231.0
63.658 225.0
63.6728 219.0
63.6875 243.0
63.7023 255.0
63.7171 227.0
63.7319 239.0
63.7466 247.0
63.7614 237.0
63.7762 274.0
63.7909 269.0
63.8057 274.0
63.8205 295.0
63.8353 264.0
63.85 281.0
63.8648 314.0
63.8796 302.0
63.8943 281.0
63.9091 335.0
63.9239 301.0
63.9387 332.0
63.9534 324.0
63.9682 299.0
63.983 363.0
63.9977 365.0
64.0125 399.0
64.0273 386.0
64.0421 439.0
64.0568 401.0
64.0716 472.0
64.0864 458.0
64.1011 478.0
64.1159 482.0
64.1307 537.0
64.1455 573.0
64.1602 587.0
64.175 618.0
64.1898 684.0
64.2045 717.0
64.2193 732.0
64.2341 761.0
64.2489 809.0
64.2636 868.0
64.2784 877.0
64.2932 911.0
64.3079 1004.0
64.3227 954.0
64.3375 1070.0
64.3523 1103.0
64.367 1047.0
64.3818 1124.0
64.3966 1174.0
64.4114 1171.0
64.4261 1194.0
64.4409 1151.0
64.4557 1245.0
64.4704 1190.0
64.4852 1211.0
64.5 1164.0
64.5148 1116.0
64.5295 1140.0
64.5443 1050.0
64.5591 1046.0
64.5738 1069.0
64.5886 988.0
64.6034 1012.0
64.6182 935.0
64.6329 975.0
64.6477 905.0
64.6625 807.0
64.6772 814.0
64.692 753.0
64.7068 806.0
64.7216 741.0
64.7363 678.0
64.7511 710.0
64.7659 643.0
64.7806 576.0
64.7954 626.0
64.8102 519.0
64.825 559.0
64.8397 581.0
64.8545 496.0
64.8693 503.0
64.884 442.0
64.8988 456.0
64.9136 433.0
64.9284 446.0
64.9431 443.0
64.9579 430.0
64.9727 393.0
64.9874 390.0
65.0022 361.0
65.017 398.0
65.0318 362.0
65.0465 338.0
65.0613 348.0
65.0761 299.0
65.0908 313.0
65.1056 327.0
65.1204 336.0
65.1352 320.0
65.1499 287.0
65.1647 320.0
65.1795 276.0
65.1942 296.0
65.209 272.0
65.2238 267.0
65.2386 280.0
65.2533 303.0
65.2681 268.0
65.2829 261.0
65.2976 280.0
65.3124 258.0
65.3272 278.0
65.342 261.0
65.3567 280.0
65.3715 239.0
65.3863 223.0
65.401 262.0
65.4158 206.0
65.4306 275.0
65.4454 207.0
65.4601 256.0
65.4749 209.0
65.4897 225.0
65.5044 241.0
65.5192 225.0
65.534 258.0
65.5488 214.0
65.5635 224.0
65.5783 255.0
65.5931 224.0
65.6078 226.0
65.6226 236.0
65.6374 214.0
65.6522 229.0
65.6669 222.0
65.6817 233.0
65.6965 241.0
65.7112 255.0
65.726 269.0
65.7408 256.0
65.7556 258.0
65.7703 231.0
65.7851 273.0
65.7999 276.0
65.8146 241.0
65.8294 236.0
65.8442 228.0
65.859 257.0
65.8737 227.0
65.8885 260.0
65.9033 286.0
65.9181 216.0
65.9328 268.0
65.9476 222.0
65.9624 268.0
65.9771 256.0
65.9919 225.0
66.0067 296.0
66.0215 269.0
66.0362 255.0
66.051 277.0
66.0658 237.0
66.0805 288.0
66.0953 285.0
66.1101 261.0
66.1249 293.0
66.1396 298.0
66.1544 283.0
66.1692 293.0
66.1839 266.0
66.1987 297.0
66.2135 273.0
66.2283 306.0
66.243 315.0
66.2578 305.0
66.2726 329.0
66.2873 313.0
66.3021 341.0
66.3169 286.0
66.3317 326.0
66.3464 344.0
66.3612 290.0
66.376 331.0
66.3907 315.0
66.4055 330.0
66.4203 317.0
66.4351 363.0
66.4498 327.0
66.4646 338.0
66.4794 312.0
66.4941 359.0
66.5089 354.0
66.5237 369.0
66.5385 333.0
66.5532 361.0
66.568 359.0
66.5828 351.0
66.5975 382.0
66.6123 377.0
66.6271 429.0
66.6419 378.0
66.6566 397.0
66.6714 405.0
66.6862 412.0
66.7009 393.0
66.7157 400.0
66.7305 443.0
66.7453 416.0
66.76 425.0
66.7748 422.0
66.7896 408.0
66.8043 411.0
66.8191 444.0
66.8339 413.0
66.8487 452.0
66.8634 464.0
66.8782 450.0
66.893 448.0
66.9077 451.0
66.9225 471.0
66.9373 439.0
66.9521 464.0
66.9668 456.0
66.9816 522.0
66.9964 483.0
67.0111 537.0
67.0259 531.0
67.0407 504.0
67.0555 508.0
67.0702 494.0
67.085 489.0
67.0998 487.0
67.1145 566.0
67.1293 567.0
67.1441 546.0
67.1589 509.0
67.1736 535.0
67.1884 592.0
67.2032 575.0
67.2179 581.0
67.2327 576.0
67.2475 589.0
67.2623 591.0
67.277 606.0
67.2918 633.0
67.3066 636.0
67.3213 648.0
67.3361 682.0
67.3509 655.0
67.3657 642.0
67.3804 689.0
67.3952 701.0
67.41 705.0
67.4248 721.0
67.4395 742.0
67.4543 783.0
67.4691 824.0
67.4838 848.0
67.4986 827.0
67.5134 850.0
67.5282 868.0
67.5429 829.0
67.5577 859.0
67.5725 937.0
67.5872 989.0
67.602 1011.0
67.6168 1026.0
67.6316 1109.0
67.6463 1075.0
67.6611 1131.0
67.6759 1199.0
67.6906 1350.0
67.7054 1397.0
67.7202 1462.0
67.735 1781.0
67.7497 1908.0
67.7645 2212.0
67.7793 2615.0
67.794 2883.0
67.8088 3189.0
67.8236 3473.0
67.8384 3599.0
67.8531 3712.0
67.8679 3579.0
67.8827 3642.0
67.8974 3542.0
67.9122 3360.0
67.927 3479.0
67.9418 3756.0
67.9565 4089.0
67.9713 4480.0
67.9861 4900.0
68.0008 5880.0
68.0156 6616.0
68.0304 8482.0
68.0452 10569.0
68.0599 13581.0
68.0747 19981.0
68.0895 27984.0
68.1042 51432.0
68.119 91644.0
68.1338 223394.0
68.1486 304293.0
68.1633 333877.0
68.1781 310130.0
68.1929 169711.0
68.2076 88969.0
68.2224 44685.0
68.2372 28814.0
68.252 21814.0
68.2667 20012.0
68.2815 22752.0
68.2963 30912.0
68.311 53745.0
68.3258 104872.0
68.3406 149809.0
68.3554 165032.0
68.3701 148774.0
68.3849 95646.0
68.3997 49806.0
68.4144 26061.0
68.4292 15618.0
68.444 10911.0
68.4588 8180.0
68.4735 6633.0
68.4883 5438.0
68.5031 4720.0
68.5178 4143.0
68.5326 3698.0
68.5474 3439.0
68.5622 3100.0
68.5769 2854.0
68.5917 2531.0
68.6065 2396.0
68.6212 2148.0
68.636 2180.0
68.6508 1950.0
68.6656 1740.0
68.6803 1766.0
68.6951 1681.0
68.7099 1549.0
68.7246 1512.0
68.7394 1467.0
68.7542 1376.0
68.769 1281.0
68.7837 1163.0
68.7985 1138.0
68.8133 1164.0
68.828 1074.0
68.8428 1032.0
68.8576 980.0
68.8724 963.0
68.8871 887.0
68.9019 934.0
68.9167 873.0
68.9315 834.0
68.9462 794.0
68.961 791.0
68.9758 767.0
68.9905 774.0
69.0053 736.0
69.0201 719.0
69.0349 737.0
69.0496 750.0
69.0644 624.0
69.0792 653.0
69.0939 654.0
69.1087 613.0
69.1235 566.0
69.1383 560.0
69.153 562.0
69.1678 542.0
69.1826 548.0
69.1973 544.0
69.2121 536.0
69.2269 509.0
69.2417 509.0
69.2564 499.0
69.2712 490.0
69.286 499.0
69.3007 489.0
69.3155 445.0
69.3303 452.0
69.3451 457.0
69.3598 474.0
69.3746 444.0
69.3894 424.0
69.4041 430.0
69.4189 410.0
69.4337 404.0
69.4485 380.0
69.4632 389.0
69.478 375.0
69.4928 341.0
69.5075 357.0
69.5223 324.0
69.5371 314.0
69.5519 379.0
69.5666 330.0
69.5814 314.0
69.5962 330.0
69.6109 294.0
69.6257 326.0
69.6405 314.0
69.6553 311.0
69.67 293.0
69.6848 288.0
69.6996 305.0
69.7143 327.0
69.7291 297.0
69.7439 302.0
69.7587 265.0
69.7734 301.0
69.7882 292.0
69.803 303.0
69.8177 269.0
69.8325 261.0
69.8473 291.0
69.8621 277.0
69.8768 288.0
69.8916 297.0
69.9064 304.0
69.9211 215.0
69.9359 258.0
69.9507 266.0
69.9655 281.0
69.9802 258.0
69.995 264.0
70.0098 258.0
70.0245 233.0
70.0393 235.0
70.0541 225.0
70.0689 228.0
70.0836 238.0
70.0984 229.0
70.1132 229.0
70.1279 221.0
70.1427 212.0
70.1575 220.0
70.1723 216.0
70.187 219.0
70.2018 223.0
70.2166 226.0
70.2313 237.0
70.2461 230.0
70.2609 219.0
70.2757 224.0
70.2904 223.0
70.3052 210.0
70.32 224.0
70.3347 201.0
70.3495 237.0
70.3643 198.0
70.3791 232.0
70.3938 211.0
70.4086 255.0
70.4234 201.0
70.4382 187.0
70.4529 230.0
70.4677 218.0
70.4825 213.0
70.4972 229.0
70.512 229.0
70.5268 214.0
70.5416 189.0
70.5563 206.0
70.5711 190.0
70.5859 205.0
70.6006 200.0
70.6154 216.0
70.6302 205.0
70.645 200.0
70.6597 206.0
70.6745 190.0
70.6893 204.0
70.704 205.0
70.7188 193.0
70.7336 233.0
70.7484 204.0
70.7631 204.0
70.7779 205.0
70.7927 179.0
70.8074 202.0
70.8222 199.0
70.837 207.0
70.8518 204.0
70.8665 218.0
70.8813 182.0
70.8961 205.0
70.9108 192.0
70.9256 205.0
70.9404 196.0
70.9552 190.0
70.9699 179.0
70.9847 190.0
70.9995 205.0
71.0142 189.0
71.029 213.0
71.0438 205.0
71.0586 193.0
71.0733 158.0
71.0881 188.0
71.1029 207.0
71.1176 178.0
71.1324 190.0
71.1472 205.0
71.162 198.0
71.1767 192.0
71.1915 191.0
71.2063 189.0
71.221 165.0
71.2358 195.0
71.2506 207.0
71.2654 196.0
71.2801 174.0
71.2949 166.0
71.3097 191.0
71.3244 183.0
71.3392 187.0
71.354 198.0
71.3688 199.0
71.3835 198.0
71.3983 183.0
71.4131 170.0
71.4278 196.0
71.4426 198.0
71.4574 177.0
71.4722 194.0
71.4869 169.0
71.5017 183.0
71.5165 161.0
71.5312 171.0
71.546 184.0
71.5608 187.0
71.5756 165.0
71.5903 163.0
71.6051 173.0
71.6199 168.0
71.6346 177.0
71.6494 187.0
71.6642 185.0
71.679 172.0
71.6937 159.0
71.7085 193.0
71.7233 148.0
71.738 187.0
71.7528 192.0
71.7676 177.0
71.7824 182.0
71.7971 183.0
71.8119 189.0
71.8267 198.0
71.8414 178.0
71.8562 179.0
71.871 157.0
71.8858 173.0
71.9005 207.0
71.9153 212.0
71.9301 187.0
71.9449 163.0
71.9596 185.0
71.9744 176.0
71.9892 188.0
72.0039 162.0
72.0187 180.0
72.0335 157.0
72.0483 195.0
72.063 178.0
72.0778 159.0
72.0926 180.0
72.1073 180.0
72.1221 175.0
72.1369 171.0
72.1517 155.0
72.1664 186.0
72.1812 153.0
72.196 184.0
72.2107 177.0
72.2255 185.0
72.2403 184.0
72.2551 172.0
72.2698 168.0
72.2846 171.0
72.2994 172.0
72.3141 162.0
72.3289 174.0
72.3437 187.0
72.3585 160.0
72.3732 178.0
72.388 156.0
72.4028 173.0
72.4175 155.0
72.4323 147.0
72.4471 161.0
72.4619 165.0
72.4766 172.0
72.4914 181.0
72.5062 162.0
72.5209 172.0
72.5357 171.0
72.5505 161.0
72.5653 158.0
72.58 154.0
72.5948 184.0
72.6096 185.0
72.6243 174.0
72.6391 184.0
72.6539 189.0
72.6687 169.0
72.6834 170.0
72.6982 159.0
72.713 178.0
72.7277 176.0
72.7425 167.0
72.7573 171.0
72.7721 164.0
72.7868 181.0
72.8016 179.0
72.8164 179.0
72.8311 141.0
72.8459 184.0
72.8607 184.0
72.8755 177.0
72.8902 162.0
72.905 170.0
72.9198 168.0
72.9345 166.0
72.9493 176.0
72.9641 180.0
72.9789 166.0
72.9936 170.0
73.0084 148.0
73.0232 192.0
73.0379 186.0
73.0527 205.0
73.0675 167.0
73.0823 181.0
73.097 189.0
73.1118 189.0
73.1266 178.0
73.1413 166.0
73.1561 176.0
73.1709 172.0
73.1857 172.0
73.2004 167.0
73.2152 173.0
73.23 160.0
73.2447 174.0
73.2595 148.0
73.2743 155.0
73.2891 141.0
73.3038 180.0
73.3186 185.0
73.3334 164.0
73.3481 151.0
73.3629 162.0
73.3777 159.0
73.3925 180.0
73.4072 164.0
73.422 164.0
73.4368 146.0
73.4516 147.0
73.4663 148.0
73.4811 180.0
73.4959 157.0
73.5106 194.0
73.5254 171.0
73.5402 156.0
73.555 190.0
73.5697 170.0
73.5845 169.0
73.5993 141.0
73.614 155.0
73.6288 165.0
73.6436 167.0
73.6584 186.0
73.6731 179.0
73.6879 159.0
73.7027 167.0
73.7174 166.0
73.7322 154.0
73.747 170.0
73.7618 149.0
73.7765 158.0
73.7913 139.0
73.8061 188.0
73.8208 153.0
73.8356 166.0
73.8504 167.0
73.8652 144.0
73.8799 174.0
73.8947 151.0
73.9095 186.0
73.9242 179.0
73.939 159.0
73.9538 178.0
73.9686 168.0
73.9833 187.0
73.9981 199.0
74.0129 173.0
74.0276 177.0
74.0424 157.0
74.0572 180.0
74.072 166.0
74.0867 173.0
74.1015 183.0
74.1163 185.0
74.131 161.0
74.1458 183.0
74.1606 188.0
74.1754 155.0
74.1901 144.0
74.2049 155.0
74.2197 162.0
74.2344 157.0
74.2492 156.0
74.264 150.0
74.2788 152.0
74.2935 170.0
74.3083 171.0
74.3231 162.0
74.3378 160.0
74.3526 158.0
74.3674 174.0
74.3822 168.0
74.3969 165.0
74.4117 171.0
74.4265 168.0
74.4412 170.0
74.456 193.0
74.4708 168.0
74.4856 186.0
74.5003 134.0
74.5151 169.0
74.5299 167.0
74.5446 137.0
74.5594 172.0
74.5742 160.0
74.589 165.0
74.6037 181.0
74.6185 187.0
74.6333 155.0
74.648 158.0
74.6628 150.0
74.6776 144.0
74.6924 162.0
74.7071 171.0
74.7219 176.0
74.7367 148.0
74.7514 150.0
74.7662 149.0
74.781 159.0
74.7958 150.0
74.8105 143.0
74.8253 179.0
74.8401 191.0
74.8548 179.0
74.8696 184.0
74.8844 175.0
74.8992 160.0
74.9139 166.0
74.9287 151.0
74.9435 181.0
74.9583 156.0
74.973 168.0
74.9878 169.0
74.9976 162.0