File: data/W6858r/XRD_Omega/W6858r_Cr2O3_scan_omega_2deg_step_0.002deg0_10.xy
11.38930 546.0
11.39130 582.0
11.39330 522.0
11.39530 575.0
11.39730 585.0
11.39930 578.0
11.40130 557.0
11.40330 532.0
11.40530 600.0
11.40730 569.0
11.40930 613.0
11.41130 547.0
11.41330 571.0
11.41530 564.0
11.41730 598.0
11.41930 608.0
11.42130 595.0
11.42330 574.0
11.42530 552.0
11.42730 595.0
11.42930 635.0
11.43130 568.0
11.43330 613.0
11.43530 572.0
11.43730 549.0
11.43930 659.0
11.44130 606.0
11.44330 603.0
11.44530 588.0
11.44730 589.0
11.44930 615.0
11.45130 602.0
11.45330 592.0
11.45530 573.0
11.45730 603.0
11.45930 603.0
11.46130 616.0
11.46330 631.0
11.46530 660.0
11.46730 678.0
11.46930 591.0
11.47130 606.0
11.47330 590.0
11.47530 639.0
11.47730 640.0
11.47930 637.0
11.48130 677.0
11.48330 621.0
11.48530 593.0
11.48730 626.0
11.48930 634.0
11.49130 612.0
11.49330 608.0
11.49530 635.0
11.49730 672.0
11.49930 652.0
11.50130 662.0
11.50330 710.0
11.50530 639.0
11.50730 617.0
11.50930 707.0
11.51130 643.0
11.51330 639.0
11.51530 712.0
11.51730 673.0
11.51930 655.0
11.52130 637.0
11.52330 694.0
11.52530 643.0
11.52730 718.0
11.52930 683.0
11.53130 673.0
11.53330 588.0
11.53530 704.0
11.53730 718.0
11.53930 689.0
11.54130 731.0
11.54330 707.0
11.54530 730.0
11.54730 682.0
11.54930 671.0
11.55130 707.0
11.55330 780.0
11.55530 661.0
11.55730 722.0
11.55930 718.0
11.56130 666.0
11.56330 696.0
11.56530 680.0
11.56730 722.0
11.56930 711.0
11.57130 716.0
11.57330 699.0
11.57530 692.0
11.57730 672.0
11.57930 768.0
11.58130 718.0
11.58330 680.0
11.58530 747.0
11.58730 747.0
11.58930 728.0
11.59130 722.0
11.59330 711.0
11.59530 732.0
11.59730 724.0
11.59930 730.0
11.60130 729.0
11.60330 757.0
11.60530 720.0
11.60730 729.0
11.60930 746.0
11.61130 758.0
11.61330 741.0
11.61530 741.0
11.61730 783.0
11.61930 765.0
11.62130 783.0
11.62330 694.0
11.62530 745.0
11.62730 749.0
11.62930 762.0
11.63130 738.0
11.63330 760.0
11.63530 765.0
11.63730 716.0
11.63930 707.0
11.64130 816.0
11.64330 716.0
11.64530 764.0
11.64730 803.0
11.64930 811.0
11.65130 807.0
11.65330 726.0
11.65530 790.0
11.65730 790.0
11.65930 714.0
11.66130 782.0
11.66330 810.0
11.66530 781.0
11.66730 838.0
11.66930 791.0
11.67130 806.0
11.67330 827.0
11.67530 833.0
11.67730 794.0
11.67930 865.0
11.68130 826.0
11.68330 838.0
11.68530 835.0
11.68730 850.0
11.68930 843.0
11.69130 865.0
11.69330 815.0
11.69530 823.0
11.69730 840.0
11.69930 866.0
11.70130 837.0
11.70330 852.0
11.70530 856.0
11.70730 878.0
11.70930 918.0
11.71130 801.0
11.71330 929.0
11.71530 910.0
11.71730 918.0
11.71930 973.0
11.72130 876.0
11.72330 931.0
11.72530 894.0
11.72730 902.0
11.72930 934.0
11.73130 968.0
11.73330 940.0
11.73530 918.0
11.73730 979.0
11.73930 969.0
11.74130 978.0
11.74330 946.0
11.74530 999.0
11.74730 959.0
11.74930 962.0
11.75130 965.0
11.75330 928.0
11.75530 987.0
11.75730 988.0
11.75930 934.0
11.76130 1012.0
11.76330 987.0
11.76530 967.0
11.76730 988.0
11.76930 940.0
11.77130 1020.0
11.77330 963.0
11.77530 969.0
11.77730 1007.0
11.77930 999.0
11.78130 954.0
11.78330 961.0
11.78530 977.0
11.78730 998.0
11.78930 993.0
11.79130 1021.0
11.79330 995.0
11.79530 1055.0
11.79730 1059.0
11.79930 977.0
11.80130 984.0
11.80330 1018.0
11.80530 1017.0
11.80730 1022.0
11.80930 995.0
11.81130 1002.0
11.81330 1085.0
11.81530 1019.0
11.81730 978.0
11.81930 1012.0
11.82130 975.0
11.82330 1084.0
11.82530 1045.0
11.82730 1031.0
11.82930 1065.0
11.83130 1035.0
11.83330 1110.0
11.83530 1050.0
11.83730 1036.0
11.83930 987.0
11.84130 1104.0
11.84330 1047.0
11.84530 1108.0
11.84730 1081.0
11.84930 1092.0
11.85130 1076.0
11.85330 1028.0
11.85530 1136.0
11.85730 1073.0
11.85930 1092.0
11.86130 1082.0
11.86330 1136.0
11.86530 1147.0
11.86730 1120.0
11.86930 1154.0
11.87130 1143.0
11.87330 1138.0
11.87530 1157.0
11.87730 1107.0
11.87930 1106.0
11.88130 1177.0
11.88330 1153.0
11.88530 1094.0
11.88730 1128.0
11.88930 1180.0
11.89130 1165.0
11.89330 1144.0
11.89530 1119.0
11.89730 1125.0
11.89930 1185.0
11.90130 1167.0
11.90330 1085.0
11.90530 1198.0
11.90730 1103.0
11.90930 1168.0
11.91130 1162.0
11.91330 1196.0
11.91530 1126.0
11.91730 1156.0
11.91930 1167.0
11.92130 1197.0
11.92330 1185.0
11.92530 1175.0
11.92730 1191.0
11.92930 1182.0
11.93130 1239.0
11.93330 1128.0
11.93530 1179.0
11.93730 1237.0
11.93930 1110.0
11.94130 1187.0
11.94330 1208.0
11.94530 1155.0
11.94730 1185.0
11.94930 1127.0
11.95130 1215.0
11.95330 1261.0
11.95530 1197.0
11.95730 1292.0
11.95930 1278.0
11.96130 1196.0
11.96330 1245.0
11.96530 1267.0
11.96730 1222.0
11.96930 1240.0
11.97130 1201.0
11.97330 1274.0
11.97530 1236.0
11.97730 1261.0
11.97930 1254.0
11.98130 1263.0
11.98330 1251.0
11.98530 1298.0
11.98730 1254.0
11.98930 1314.0
11.99130 1252.0
11.99330 1291.0
11.99530 1326.0
11.99730 1213.0
11.99930 1257.0
12.00130 1310.0
12.00330 1277.0
12.00530 1315.0
12.00730 1319.0
12.00930 1266.0
12.01130 1327.0
12.01330 1350.0
12.01530 1257.0
12.01730 1325.0
12.01930 1313.0
12.02130 1383.0
12.02330 1326.0
12.02530 1302.0
12.02730 1337.0
12.02930 1383.0
12.03130 1312.0
12.03330 1452.0
12.03530 1351.0
12.03730 1372.0
12.03930 1376.0
12.04130 1441.0
12.04330 1386.0
12.04530 1292.0
12.04730 1389.0
12.04930 1376.0
12.05130 1430.0
12.05330 1352.0
12.05530 1425.0
12.05730 1369.0
12.05930 1363.0
12.06130 1412.0
12.06330 1377.0
12.06530 1486.0
12.06730 1458.0
12.06930 1333.0
12.07130 1440.0
12.07330 1392.0
12.07530 1510.0
12.07730 1446.0
12.07930 1426.0
12.08130 1477.0
12.08330 1465.0
12.08530 1428.0
12.08730 1521.0
12.08930 1430.0
12.09130 1484.0
12.09330 1496.0
12.09530 1498.0
12.09730 1469.0
12.09930 1435.0
12.10130 1433.0
12.10330 1521.0
12.10530 1459.0
12.10730 1489.0
12.10930 1473.0
12.11130 1509.0
12.11330 1582.0
12.11530 1444.0
12.11730 1546.0
12.11930 1504.0
12.12130 1518.0
12.12330 1535.0
12.12530 1570.0
12.12730 1601.0
12.12930 1538.0
12.13130 1614.0
12.13330 1514.0
12.13530 1557.0
12.13730 1532.0
12.13930 1588.0
12.14130 1610.0
12.14330 1592.0
12.14530 1568.0
12.14730 1551.0
12.14930 1577.0
12.15130 1664.0
12.15330 1635.0
12.15530 1627.0
12.15730 1711.0
12.15930 1627.0
12.16130 1808.0
12.16330 1667.0
12.16530 1723.0
12.16730 1684.0
12.16930 1720.0
12.17130 1786.0
12.17330 1712.0
12.17530 1739.0
12.17730 1735.0
12.17930 1755.0
12.18130 1732.0
12.18330 1906.0
12.18530 1758.0
12.18730 1807.0
12.18930 1800.0
12.19130 1771.0
12.19330 1847.0
12.19530 1840.0
12.19730 1840.0
12.19930 1932.0
12.20130 1859.0
12.20330 1831.0
12.20530 2013.0
12.20730 1972.0
12.20930 2030.0
12.21130 1981.0
12.21330 1951.0
12.21530 1968.0
12.21730 1985.0
12.21930 1871.0
12.22130 2000.0
12.22330 1971.0
12.22530 1984.0
12.22730 2062.0
12.22930 2115.0
12.23130 2027.0
12.23330 2052.0
12.23530 2064.0
12.23730 2105.0
12.23930 2126.0
12.24130 2169.0
12.24330 2119.0
12.24530 2023.0
12.24730 2230.0
12.24930 2054.0
12.25130 2094.0
12.25330 2088.0
12.25530 2114.0
12.25730 2179.0
12.25930 2116.0
12.26130 2201.0
12.26330 2214.0
12.26530 2156.0
12.26730 2222.0
12.26930 2123.0
12.27130 2117.0
12.27330 2128.0
12.27530 2088.0
12.27730 2113.0
12.27930 2225.0
12.28130 2081.0
12.28330 2116.0
12.28530 2016.0
12.28730 2178.0
12.28930 2064.0
12.29130 2098.0
12.29330 2073.0
12.29530 2023.0
12.29730 2029.0
12.29930 2058.0
12.30130 2037.0
12.30330 2024.0
12.30530 2004.0
12.30730 1929.0
12.30930 1999.0
12.31130 1968.0
12.31330 2043.0
12.31530 2006.0
12.31730 2001.0
12.31930 1917.0
12.32130 2011.0
12.32330 1944.0
12.32530 1920.0
12.32730 2020.0
12.32930 1946.0
12.33130 2004.0
12.33330 2035.0
12.33530 1945.0
12.33730 1945.0
12.33930 1998.0
12.34130 2018.0
12.34330 2018.0
12.34530 2059.0
12.34730 2125.0
12.34930 2137.0
12.35130 2197.0
12.35330 2180.0
12.35530 2268.0
12.35730 2571.0
12.35930 2634.0
12.36130 2793.0
12.36330 2814.0
12.36530 2933.0
12.36730 3068.0
12.36930 3247.0
12.37130 3249.0
12.37330 3471.0
12.37530 3415.0
12.37730 3514.0
12.37930 3605.0
12.38130 3620.0
12.38330 3693.0
12.38530 3544.0
12.38730 3380.0
12.38930 3242.0
12.39130 3190.0
12.39330 3158.0
12.39530 3047.0
12.39730 2935.0
12.39930 2778.0
12.40130 2709.0
12.40330 2583.0
12.40530 2494.0
12.40730 2448.0
12.40930 2323.0
12.41130 2340.0
12.41330 2297.0
12.41530 2337.0
12.41730 2240.0
12.41930 2158.0
12.42130 2154.0
12.42330 2189.0
12.42530 2205.0
12.42730 2230.0
12.42930 2244.0
12.43130 2301.0
12.43330 2276.0
12.43530 2248.0
12.43730 2250.0
12.43930 2378.0
12.44130 2266.0
12.44330 2254.0
12.44530 2275.0
12.44730 2209.0
12.44930 2221.0
12.45130 2280.0
12.45330 2290.0
12.45530 2239.0
12.45730 2281.0
12.45930 2356.0
12.46130 2324.0
12.46330 2239.0
12.46530 2245.0
12.46730 2202.0
12.46930 2137.0
12.47130 2247.0
12.47330 2110.0
12.47530 2147.0
12.47730 2085.0
12.47930 2063.0
12.48130 2101.0
12.48330 1955.0
12.48530 2045.0
12.48730 1942.0
12.48930 1959.0
12.49130 1948.0
12.49330 1905.0
12.49530 1957.0
12.49730 1893.0
12.49930 1877.0
12.50130 1832.0
12.50330 1834.0
12.50530 1864.0
12.50730 1797.0
12.50930 1800.0
12.51130 1795.0
12.51330 1840.0
12.51530 1781.0
12.51730 1758.0
12.51930 1772.0
12.52130 1725.0
12.52330 1734.0
12.52530 1761.0
12.52730 1652.0
12.52930 1693.0
12.53130 1713.0
12.53330 1653.0
12.53530 1690.0
12.53730 1633.0
12.53930 1661.0
12.54130 1574.0
12.54330 1621.0
12.54530 1662.0
12.54730 1621.0
12.54930 1654.0
12.55130 1506.0
12.55330 1588.0
12.55530 1568.0
12.55730 1575.0
12.55930 1537.0
12.56130 1537.0
12.56330 1620.0
12.56530 1629.0
12.56730 1524.0
12.56930 1531.0
12.57130 1504.0
12.57330 1494.0
12.57530 1410.0
12.57730 1585.0
12.57930 1502.0
12.58130 1552.0
12.58330 1575.0
12.58530 1537.0
12.58730 1551.0
12.58930 1492.0
12.59130 1508.0
12.59330 1525.0
12.59530 1535.0
12.59730 1548.0
12.59930 1526.0
12.60130 1452.0
12.60330 1483.0
12.60530 1540.0
12.60730 1516.0
12.60930 1491.0
12.61130 1525.0
12.61330 1513.0
12.61530 1558.0
12.61730 1540.0
12.61930 1513.0
12.62130 1516.0
12.62330 1468.0
12.62530 1561.0
12.62730 1543.0
12.62930 1455.0
12.63130 1560.0
12.63330 1458.0
12.63530 1483.0
12.63730 1485.0
12.63930 1467.0
12.64130 1505.0
12.64330 1489.0
12.64530 1499.0
12.64730 1502.0
12.64930 1519.0
12.65130 1524.0
12.65330 1516.0
12.65530 1517.0
12.65730 1589.0
12.65930 1534.0
12.66130 1541.0
12.66330 1497.0
12.66530 1527.0
12.66730 1564.0
12.66930 1572.0
12.67130 1526.0
12.67330 1582.0
12.67530 1586.0
12.67730 1569.0
12.67930 1503.0
12.68130 1620.0
12.68330 1634.0
12.68530 1543.0
12.68730 1571.0
12.68930 1606.0
12.69130 1575.0
12.69330 1594.0
12.69530 1619.0
12.69730 1611.0
12.69930 1610.0
12.70130 1629.0
12.70330 1633.0
12.70530 1671.0
12.70730 1565.0
12.70930 1682.0
12.71130 1719.0
12.71330 1692.0
12.71530 1748.0
12.71730 1655.0
12.71930 1694.0
12.72130 1771.0
12.72330 1711.0
12.72530 1746.0
12.72730 1824.0
12.72930 1825.0
12.73130 1773.0
12.73330 1801.0
12.73530 1813.0
12.73730 1767.0
12.73930 1866.0
12.74130 1877.0
12.74330 1890.0
12.74530 1813.0
12.74730 1880.0
12.74930 1839.0
12.75130 1885.0
12.75330 1944.0
12.75530 1968.0
12.75730 1980.0
12.75930 1909.0
12.76130 1972.0
12.76330 2023.0
12.76530 2022.0
12.76730 2011.0
12.76930 2068.0
12.77130 2049.0
12.77330 2161.0
12.77530 2205.0
12.77730 2258.0
12.77930 2234.0
12.78130 2240.0
12.78330 2279.0
12.78530 2362.0
12.78730 2301.0
12.78930 2399.0
12.79130 2306.0
12.79330 2476.0
12.79530 2523.0
12.79730 2566.0
12.79930 2633.0
12.80130 2651.0
12.80330 2715.0
12.80530 2819.0
12.80730 2784.0
12.80930 2820.0
12.81130 2826.0
12.81330 2966.0
12.81530 2979.0
12.81730 3040.0
12.81930 3114.0
12.82130 3208.0
12.82330 3215.0
12.82530 3327.0
12.82730 3429.0
12.82930 3485.0
12.83130 3584.0
12.83330 3698.0
12.83530 3820.0
12.83730 4063.0
12.83930 4290.0
12.84130 4441.0
12.84330 4942.0
12.84530 5102.0
12.84730 5418.0
12.84930 5935.0
12.85130 6257.0
12.85330 6915.0
12.85530 7364.0
12.85730 7658.0
12.85930 8203.0
12.86130 8843.0
12.86330 9410.0
12.86530 9681.0
12.86730 10317.0
12.86930 10786.0
12.87130 11475.0
12.87330 11922.0
12.87530 12656.0
12.87730 13407.0
12.87930 14723.0
12.88130 16140.0
12.88330 17663.0
12.88530 20153.0
12.88730 23727.0
12.88930 28518.0
12.89130 36982.0
12.89330 46548.0
12.89530 59402.0
12.89730 77915.0
12.89930 102345.0
12.90130 133118.0
12.90330 168997.0
12.90530 209788.0
12.90730 252948.0
12.90930 302296.0
12.91130 351922.0
12.91330 397672.0
12.91530 433814.0
12.91730 460549.0
12.91930 475430.0
12.92130 478498.0
12.92330 471616.0
12.92530 455100.0
12.92730 432884.0
12.92930 406822.0
12.93130 379895.0
12.93330 355031.0
12.93530 330002.0
12.93730 307360.0
12.93930 286183.0
12.94130 267093.0
12.94330 252882.0
12.94530 237752.0
12.94730 223858.0
12.94930 209693.0
12.95130 191976.0
12.95330 176628.0
12.95530 159383.0
12.95730 142315.0
12.95930 124483.0
12.96130 106521.0
12.96330 91427.0
12.96530 77728.0
12.96730 64762.0
12.96930 52885.0
12.97130 42313.0
12.97330 34545.0
12.97530 27644.0
12.97730 21998.0
12.97930 17364.0
12.98130 12918.0
12.98330 10193.0
12.98530 7831.0
12.98730 6001.0
12.98930 4705.0
12.99130 3821.0
12.99330 3088.0
12.99530 2699.0
12.99730 2339.0
12.99930 2069.0
13.00130 1899.0
13.00330 1727.0
13.00530 1685.0
13.00730 1648.0
13.00930 1491.0
13.01130 1349.0
13.01330 1370.0
13.01530 1342.0
13.01730 1297.0
13.01930 1252.0
13.02130 1160.0
13.02330 1134.0
13.02530 1091.0
13.02730 1048.0
13.02930 1097.0
13.03130 1056.0
13.03330 994.0
13.03530 1027.0
13.03730 963.0
13.03930 915.0
13.04130 959.0
13.04330 879.0
13.04530 940.0
13.04730 893.0
13.04930 896.0
13.05130 831.0
13.05330 794.0
13.05530 846.0
13.05730 801.0
13.05930 750.0
13.06130 822.0
13.06330 784.0
13.06530 775.0
13.06730 739.0
13.06930 750.0
13.07130 743.0
13.07330 714.0
13.07530 720.0
13.07730 708.0
13.07930 680.0
13.08130 718.0
13.08330 712.0
13.08530 749.0
13.08730 718.0
13.08930 729.0
13.09130 659.0
13.09330 692.0
13.09530 685.0
13.09730 742.0
13.09930 682.0
13.10130 684.0
13.10330 700.0
13.10530 664.0
13.10730 638.0
13.10930 699.0
13.11130 638.0
13.11330 675.0
13.11530 613.0
13.11730 627.0
13.11930 673.0
13.12130 696.0
13.12330 632.0
13.12530 635.0
13.12730 602.0
13.12930 657.0
13.13130 630.0
13.13330 603.0
13.13530 611.0
13.13730 598.0
13.13930 628.0
13.14130 675.0
13.14330 610.0
13.14530 628.0
13.14730 624.0
13.14930 627.0
13.15130 628.0
13.15330 603.0
13.15530 663.0
13.15730 544.0
13.15930 603.0
13.16130 611.0
13.16330 635.0
13.16530 661.0
13.16730 602.0
13.16930 631.0
13.17130 636.0
13.17330 569.0
13.17530 606.0
13.17730 610.0
13.17930 587.0
13.18130 570.0
13.18330 583.0
13.18530 601.0
13.18730 594.0
13.18930 546.0
13.19130 589.0
13.19330 606.0
13.19530 585.0
13.19730 518.0
13.19930 569.0
13.20130 587.0
13.20330 525.0
13.20530 583.0
13.20730 574.0
13.20930 590.0
13.21130 571.0
13.21330 563.0
13.21530 561.0
13.21730 563.0
13.21930 560.0
13.22130 511.0
13.22330 512.0
13.22530 553.0
13.22730 530.0
13.22930 572.0
13.23130 518.0
13.23330 562.0
13.23530 565.0
13.23730 515.0
13.23930 552.0
13.24130 544.0
13.24330 496.0
13.24530 518.0
13.24730 539.0
13.24930 524.0
13.25130 479.0
13.25330 542.0
13.25530 505.0
13.25730 510.0
13.25930 501.0
13.26130 544.0
13.26330 510.0
13.26530 523.0
13.26730 517.0
13.26930 519.0
13.27130 537.0
13.27330 483.0
13.27530 536.0
13.27730 520.0
13.27930 507.0
13.28130 491.0
13.28330 503.0
13.28530 504.0
13.28730 539.0
13.28930 498.0
13.29130 528.0
13.29330 495.0
13.29530 485.0
13.29730 453.0
13.29930 493.0
13.30130 493.0
13.30330 480.0
13.30530 477.0
13.30730 509.0
13.30930 482.0
13.31130 496.0
13.31330 485.0
13.31530 507.0
13.31730 461.0
13.31930 492.0
13.32130 524.0
13.32330 465.0
13.32530 469.0
13.32730 503.0
13.32930 524.0
13.33130 494.0
13.33330 485.0
13.33530 471.0
13.33730 466.0
13.33930 476.0
13.34130 449.0
13.34330 480.0
13.34530 491.0
13.34730 470.0
13.34930 461.0
13.35130 468.0
13.35330 455.0
13.35530 452.0
13.35730 427.0
13.35930 483.0
13.36130 440.0
13.36330 459.0
13.36530 470.0
13.36730 446.0
13.36930 465.0
13.37130 447.0
13.37330 423.0