File: data/w6929a/XRD_2ThetaOmega/scan_2th-om_a_Cr2O3_30-40deg_PIXscan_4min_C2.xy
30.0025 47.0
30.0123 49.0
30.0222 34.0
30.032 34.0
30.0419 49.0
30.0517 54.0
30.0615 40.0
30.0714 57.0
30.0812 55.0
30.0911 56.0
30.1009 46.0
30.1108 60.0
30.1206 62.0
30.1305 51.0
30.1403 43.0
30.1502 53.0
30.16 58.0
30.1699 59.0
30.1797 53.0
30.1896 60.0
30.1994 44.0
30.2093 62.0
30.2191 61.0
30.229 65.0
30.2388 62.0
30.2487 54.0
30.2585 75.0
30.2684 42.0
30.2782 54.0
30.288 50.0
30.2979 53.0
30.3077 55.0
30.3176 59.0
30.3274 55.0
30.3373 78.0
30.3471 65.0
30.357 56.0
30.3668 49.0
30.3767 58.0
30.3865 60.0
30.3964 47.0
30.4062 43.0
30.4161 53.0
30.4259 53.0
30.4358 57.0
30.4456 47.0
30.4555 43.0
30.4653 43.0
30.4752 56.0
30.485 43.0
30.4948 60.0
30.5047 54.0
30.5145 56.0
30.5244 44.0
30.5342 57.0
30.5441 49.0
30.5539 61.0
30.5638 50.0
30.5736 56.0
30.5835 49.0
30.5933 45.0
30.6032 49.0
30.613 49.0
30.6229 41.0
30.6327 45.0
30.6426 43.0
30.6524 49.0
30.6623 54.0
30.6721 58.0
30.682 45.0
30.6918 41.0
30.7016 58.0
30.7115 47.0
30.7213 45.0
30.7312 49.0
30.741 55.0
30.7509 59.0
30.7607 51.0
30.7706 69.0
30.7804 55.0
30.7903 49.0
30.8001 62.0
30.81 52.0
30.8198 50.0
30.8297 54.0
30.8395 50.0
30.8494 50.0
30.8592 50.0
30.8691 54.0
30.8789 62.0
30.8888 47.0
30.8986 74.0
30.9085 63.0
30.9183 46.0
30.9281 47.0
30.938 35.0
30.9478 56.0
30.9577 41.0
30.9675 46.0
30.9774 48.0
30.9872 60.0
30.9971 48.0
31.0069 48.0
31.0168 45.0
31.0266 54.0
31.0365 56.0
31.0463 59.0
31.0562 51.0
31.066 62.0
31.0759 53.0
31.0857 49.0
31.0956 57.0
31.1054 45.0
31.1153 52.0
31.1251 53.0
31.1349 62.0
31.1448 54.0
31.1546 51.0
31.1645 61.0
31.1743 46.0
31.1842 72.0
31.194 43.0
31.2039 44.0
31.2137 45.0
31.2236 59.0
31.2334 58.0
31.2433 42.0
31.2531 65.0
31.263 66.0
31.2728 56.0
31.2827 58.0
31.2925 37.0
31.3024 65.0
31.3122 50.0
31.3221 59.0
31.3319 56.0
31.3418 49.0
31.3516 59.0
31.3614 64.0
31.3713 69.0
31.3811 55.0
31.391 45.0
31.4008 60.0
31.4107 43.0
31.4205 48.0
31.4304 53.0
31.4402 52.0
31.4501 58.0
31.4599 55.0
31.4698 54.0
31.4796 52.0
31.4895 44.0
31.4993 48.0
31.5092 54.0
31.519 32.0
31.5289 53.0
31.5387 64.0
31.5486 55.0
31.5584 53.0
31.5682 44.0
31.5781 46.0
31.5879 61.0
31.5978 54.0
31.6076 48.0
31.6175 47.0
31.6273 62.0
31.6372 64.0
31.647 51.0
31.6569 53.0
31.6667 49.0
31.6766 58.0
31.6864 46.0
31.6963 55.0
31.7061 61.0
31.716 57.0
31.7258 65.0
31.7357 56.0
31.7455 53.0
31.7554 42.0
31.7652 46.0
31.7751 59.0
31.7849 62.0
31.7947 46.0
31.8046 58.0
31.8144 53.0
31.8243 55.0
31.8341 40.0
31.844 54.0
31.8538 49.0
31.8637 55.0
31.8735 57.0
31.8834 50.0
31.8932 37.0
31.9031 43.0
31.9129 52.0
31.9228 53.0
31.9326 42.0
31.9425 48.0
31.9523 64.0
31.9622 48.0
31.972 43.0
31.9819 49.0
31.9917 47.0
32.0015 52.0
32.0114 61.0
32.0212 45.0
32.0311 51.0
32.0409 53.0
32.0508 61.0
32.0606 54.0
32.0705 46.0
32.0803 48.0
32.0902 57.0
32.1 60.0
32.1099 51.0
32.1197 50.0
32.1296 74.0
32.1394 55.0
32.1493 52.0
32.1591 45.0
32.169 54.0
32.1788 52.0
32.1887 53.0
32.1985 56.0
32.2083 48.0
32.2182 59.0
32.228 54.0
32.2379 54.0
32.2477 54.0
32.2576 52.0
32.2674 52.0
32.2773 54.0
32.2871 63.0
32.297 67.0
32.3068 44.0
32.3167 50.0
32.3265 66.0
32.3364 56.0
32.3462 56.0
32.3561 65.0
32.3659 63.0
32.3758 71.0
32.3856 72.0
32.3955 72.0
32.4053 69.0
32.4152 82.0
32.425 77.0
32.4348 73.0
32.4447 96.0
32.4545 67.0
32.4644 70.0
32.4742 65.0
32.4841 65.0
32.4939 75.0
32.5038 62.0
32.5136 33.0
32.5235 57.0
32.5333 52.0
32.5432 59.0
32.553 64.0
32.5629 52.0
32.5727 48.0
32.5826 51.0
32.5924 60.0
32.6023 56.0
32.6121 53.0
32.622 52.0
32.6318 52.0
32.6416 56.0
32.6515 51.0
32.6613 62.0
32.6712 56.0
32.681 52.0
32.6909 45.0
32.7007 58.0
32.7106 65.0
32.7204 48.0
32.7303 54.0
32.7401 76.0
32.75 60.0
32.7598 47.0
32.7697 43.0
32.7795 38.0
32.7894 51.0
32.7992 56.0
32.8091 40.0
32.8189 60.0
32.8288 50.0
32.8386 44.0
32.8485 67.0
32.8583 56.0
32.8681 58.0
32.878 38.0
32.8878 55.0
32.8977 69.0
32.9075 44.0
32.9174 55.0
32.9272 62.0
32.9371 67.0
32.9469 48.0
32.9568 43.0
32.9666 62.0
32.9765 48.0
32.9863 53.0
32.9962 53.0
33.006 58.0
33.0159 63.0
33.0257 59.0
33.0356 61.0
33.0454 43.0
33.0553 50.0
33.0651 55.0
33.0749 50.0
33.0848 53.0
33.0946 53.0
33.1045 51.0
33.1143 60.0
33.1242 45.0
33.134 61.0
33.1439 58.0
33.1537 71.0
33.1636 63.0
33.1734 56.0
33.1833 38.0
33.1931 53.0
33.203 54.0
33.2128 53.0
33.2227 64.0
33.2325 60.0
33.2424 63.0
33.2522 54.0
33.2621 59.0
33.2719 67.0
33.2818 51.0
33.2916 36.0
33.3014 55.0
33.3113 54.0
33.3211 43.0
33.331 61.0
33.3408 60.0
33.3507 41.0
33.3605 59.0
33.3704 67.0
33.3802 51.0
33.3901 46.0
33.3999 58.0
33.4098 55.0
33.4196 47.0
33.4295 54.0
33.4393 51.0
33.4492 61.0
33.459 45.0
33.4689 51.0
33.4787 49.0
33.4886 50.0
33.4984 41.0
33.5082 55.0
33.5181 55.0
33.5279 57.0
33.5378 52.0
33.5476 57.0
33.5575 63.0
33.5673 59.0
33.5772 56.0
33.587 53.0
33.5969 40.0
33.6067 66.0
33.6166 60.0
33.6264 49.0
33.6363 51.0
33.6461 65.0
33.656 54.0
33.6658 54.0
33.6757 64.0
33.6855 70.0
33.6954 64.0
33.7052 51.0
33.715 68.0
33.7249 64.0
33.7347 69.0
33.7446 67.0
33.7544 60.0
33.7643 61.0
33.7741 60.0
33.784 65.0
33.7938 62.0
33.8037 63.0
33.8135 74.0
33.8234 64.0
33.8332 78.0
33.8431 70.0
33.8529 72.0
33.8628 59.0
33.8726 59.0
33.8825 81.0
33.8923 94.0
33.9022 78.0
33.912 104.0
33.9219 152.0
33.9317 292.0
33.9415 544.0
33.9514 833.0
33.9612 846.0
33.9711 698.0
33.9809 479.0
33.9908 269.0
34.0006 161.0
34.0105 143.0
34.0203 96.0
34.0302 96.0
34.04 80.0
34.0499 91.0
34.0597 66.0
34.0696 74.0
34.0794 61.0
34.0893 92.0
34.0991 67.0
34.109 62.0
34.1188 66.0
34.1287 59.0
34.1385 73.0
34.1483 70.0
34.1582 65.0
34.168 73.0
34.1779 60.0
34.1877 65.0
34.1976 68.0
34.2074 66.0
34.2173 74.0
34.2271 60.0
34.237 66.0
34.2468 63.0
34.2567 69.0
34.2665 67.0
34.2764 61.0
34.2862 74.0
34.2961 47.0
34.3059 59.0
34.3158 62.0
34.3256 55.0
34.3355 63.0
34.3453 60.0
34.3552 68.0
34.365 63.0
34.3748 69.0
34.3847 61.0
34.3945 60.0
34.4044 52.0
34.4142 61.0
34.4241 62.0
34.4339 70.0
34.4438 60.0
34.4536 53.0
34.4635 58.0
34.4733 67.0
34.4832 80.0
34.493 68.0
34.5029 69.0
34.5127 74.0
34.5226 65.0
34.5324 60.0
34.5423 62.0
34.5521 71.0
34.562 61.0
34.5718 59.0
34.5816 57.0
34.5915 63.0
34.6013 62.0
34.6112 69.0
34.621 60.0
34.6309 64.0
34.6407 66.0
34.6506 65.0
34.6604 72.0
34.6703 83.0
34.6801 54.0
34.69 67.0
34.6998 52.0
34.7097 69.0
34.7195 64.0
34.7294 62.0
34.7392 67.0
34.7491 78.0
34.7589 61.0
34.7688 62.0
34.7786 70.0
34.7884 72.0
34.7983 62.0
34.8081 61.0
34.818 72.0
34.8278 59.0
34.8377 81.0
34.8475 80.0
34.8574 60.0
34.8672 57.0
34.8771 73.0
34.8869 71.0
34.8968 76.0
34.9066 79.0
34.9165 75.0
34.9263 86.0
34.9362 75.0
34.946 79.0
34.9559 90.0
34.9657 65.0
34.9756 82.0
34.9854 79.0
34.9953 75.0
35.0051 82.0
35.0149 83.0
35.0248 77.0
35.0346 81.0
35.0445 54.0
35.0543 92.0
35.0642 86.0
35.074 78.0
35.0839 64.0
35.0937 71.0
35.1036 72.0
35.1134 71.0
35.1233 84.0
35.1331 84.0
35.143 90.0
35.1528 62.0
35.1627 67.0
35.1725 91.0
35.1824 85.0
35.1922 76.0
35.2021 90.0
35.2119 98.0
35.2217 78.0
35.2316 83.0
35.2414 91.0
35.2513 83.0
35.2611 91.0
35.271 80.0
35.2808 82.0
35.2907 93.0
35.3005 96.0
35.3104 90.0
35.3202 99.0
35.3301 100.0
35.3399 104.0
35.3498 83.0
35.3596 101.0
35.3695 101.0
35.3793 103.0
35.3892 110.0
35.399 108.0
35.4089 115.0
35.4187 122.0
35.4286 103.0
35.4384 119.0
35.4482 121.0
35.4581 104.0
35.4679 118.0
35.4778 109.0
35.4876 113.0
35.4975 116.0
35.5073 128.0
35.5172 141.0
35.527 123.0
35.5369 141.0
35.5467 141.0
35.5566 126.0
35.5664 125.0
35.5763 139.0
35.5861 148.0
35.596 158.0
35.6058 156.0
35.6157 142.0
35.6255 173.0
35.6354 173.0
35.6452 161.0
35.655 192.0
35.6649 178.0
35.6747 180.0
35.6846 203.0
35.6944 232.0
35.7043 223.0
35.7141 258.0
35.724 272.0
35.7338 288.0
35.7437 315.0
35.7535 303.0
35.7634 341.0
35.7732 354.0
35.7831 349.0
35.7929 369.0
35.8028 437.0
35.8126 447.0
35.8225 517.0
35.8323 597.0
35.8422 714.0
35.852 702.0
35.8619 809.0
35.8717 893.0
35.8815 1083.0
35.8914 1260.0
35.9012 1444.0
35.9111 1801.0
35.9209 2310.0
35.9308 2852.0
35.9406 3455.0
35.9505 4235.0
35.9603 4930.0
35.9702 5645.0
35.98 6288.0
35.9899 6795.0
35.9997 7010.0
36.0096 7304.0
36.0194 7272.0
36.0293 7230.0
36.0391 6905.0
36.049 6650.0
36.0588 6350.0
36.0687 5893.0
36.0785 5727.0
36.0883 5330.0
36.0982 4881.0
36.108 4426.0
36.1179 4099.0
36.1277 3747.0
36.1376 3300.0
36.1474 2830.0
36.1573 2394.0
36.1671 2168.0
36.177 1798.0
36.1868 1446.0
36.1967 1232.0
36.2065 1095.0
36.2164 901.0
36.2262 814.0
36.2361 695.0
36.2459 660.0
36.2558 606.0
36.2656 595.0
36.2755 552.0
36.2853 491.0
36.2951 443.0
36.305 401.0
36.3148 351.0
36.3247 362.0
36.3345 338.0
36.3444 343.0
36.3542 331.0
36.3641 323.0
36.3739 307.0
36.3838 293.0
36.3936 274.0
36.4035 257.0
36.4133 234.0
36.4232 257.0
36.433 227.0
36.4429 193.0
36.4527 206.0
36.4626 209.0
36.4724 200.0
36.4823 215.0
36.4921 204.0
36.502 174.0
36.5118 153.0
36.5216 167.0
36.5315 190.0
36.5413 176.0
36.5512 158.0
36.561 144.0
36.5709 173.0
36.5807 160.0
36.5906 184.0
36.6004 171.0
36.6103 157.0
36.6201 149.0
36.63 154.0
36.6398 156.0
36.6497 168.0
36.6595 155.0
36.6694 165.0
36.6792 168.0
36.6891 154.0
36.6989 162.0
36.7088 158.0
36.7186 142.0
36.7284 161.0
36.7383 152.0
36.7481 144.0
36.758 152.0
36.7678 169.0
36.7777 164.0
36.7875 205.0
36.7974 174.0
36.8072 180.0
36.8171 171.0
36.8269 170.0
36.8368 180.0
36.8466 147.0
36.8565 180.0
36.8663 206.0
36.8762 203.0
36.886 196.0
36.8959 215.0
36.9057 214.0
36.9156 190.0
36.9254 208.0
36.9353 185.0
36.9451 214.0
36.9549 202.0
36.9648 202.0
36.9746 206.0
36.9845 207.0
36.9943 204.0
37.0042 256.0
37.014 260.0
37.0239 257.0
37.0337 271.0
37.0436 209.0
37.0534 218.0
37.0633 279.0
37.0731 269.0
37.083 291.0
37.0928 262.0
37.1027 267.0
37.1125 288.0
37.1224 290.0
37.1322 280.0
37.1421 299.0
37.1519 295.0
37.1617 294.0
37.1716 310.0
37.1814 317.0
37.1913 353.0
37.2011 331.0
37.211 339.0
37.2208 386.0
37.2307 373.0
37.2405 339.0
37.2504 348.0
37.2602 360.0
37.2701 395.0
37.2799 408.0
37.2898 412.0
37.2996 418.0
37.3095 419.0
37.3193 414.0
37.3292 485.0
37.339 459.0
37.3489 502.0
37.3587 486.0
37.3686 533.0
37.3784 485.0
37.3882 552.0
37.3981 586.0
37.4079 599.0
37.4178 633.0
37.4276 630.0
37.4375 674.0
37.4473 687.0
37.4572 762.0
37.467 828.0
37.4769 847.0
37.4867 974.0
37.4966 1054.0
37.5064 1346.0
37.5163 1511.0
37.5261 1927.0
37.536 2207.0
37.5458 2506.0
37.5557 2590.0
37.5655 2605.0
37.5754 2569.0
37.5852 2443.0
37.595 2451.0
37.6049 2695.0
37.6147 2970.0
37.6246 3336.0
37.6344 4094.0
37.6443 5330.0
37.6541 7060.0
37.664 9861.0
37.6738 15804.0
37.6837 30346.0
37.6935 76597.0
37.7034 195347.0
37.7132 262952.0
37.7231 243546.0
37.7329 137949.0
37.7428 55479.0
37.7526 26415.0
37.7625 16513.0
37.7723 15902.0
37.7822 21949.0
37.792 47755.0
37.8018 100640.0
37.8117 129084.0
37.8215 115697.0
37.8314 65521.0
37.8412 27839.0
37.8511 13322.0
37.8609 7836.0
37.8708 5307.0
37.8806 4012.0
37.8905 3250.0
37.9003 2793.0
37.9102 2409.0
37.92 2137.0
37.9299 1831.0
37.9397 1667.0
37.9496 1480.0
37.9594 1350.0
37.9693 1135.0
37.9791 1106.0
37.989 1068.0
37.9988 1019.0
38.0087 957.0
38.0185 876.0
38.0283 806.0
38.0382 764.0
38.048 684.0
38.0579 723.0
38.0677 615.0
38.0776 643.0
38.0874 609.0
38.0973 568.0
38.1071 524.0
38.117 573.0
38.1268 529.0
38.1367 502.0
38.1465 507.0
38.1564 444.0
38.1662 454.0
38.1761 451.0
38.1859 395.0
38.1958 427.0
38.2056 409.0
38.2155 403.0
38.2253 424.0
38.2351 365.0
38.245 333.0
38.2548 305.0
38.2647 292.0
38.2745 321.0
38.2844 312.0
38.2942 259.0
38.3041 285.0
38.3139 272.0
38.3238 210.0
38.3336 258.0
38.3435 201.0
38.3533 207.0
38.3632 214.0
38.373 186.0
38.3829 181.0
38.3927 174.0
38.4026 174.0
38.4124 171.0
38.4223 153.0
38.4321 161.0
38.442 152.0
38.4518 146.0
38.4616 159.0
38.4715 156.0
38.4813 153.0
38.4912 148.0
38.501 136.0
38.5109 133.0
38.5207 143.0
38.5306 147.0
38.5404 127.0
38.5503 127.0
38.5601 148.0
38.57 126.0
38.5798 112.0
38.5897 121.0
38.5995 116.0
38.6094 120.0
38.6192 126.0
38.6291 119.0
38.6389 116.0
38.6488 131.0
38.6586 102.0
38.6684 102.0
38.6783 102.0
38.6881 109.0
38.698 91.0
38.7078 99.0
38.7177 96.0
38.7275 87.0
38.7374 80.0
38.7472 92.0
38.7571 99.0
38.7669 93.0
38.7768 89.0
38.7866 82.0
38.7965 96.0
38.8063 79.0
38.8162 97.0
38.826 76.0
38.8359 95.0
38.8457 98.0
38.8556 85.0
38.8654 85.0
38.8753 87.0
38.8851 97.0
38.8949 87.0
38.9048 90.0
38.9146 78.0
38.9245 83.0
38.9343 73.0
38.9442 67.0
38.954 90.0
38.9639 78.0
38.9737 73.0
38.9836 84.0
38.9934 75.0
39.0033 76.0
39.0131 70.0
39.023 86.0
39.0328 77.0
39.0427 90.0
39.0525 83.0
39.0624 61.0
39.0722 71.0
39.0821 83.0
39.0919 95.0
39.1017 77.0
39.1116 67.0
39.1214 61.0
39.1313 65.0
39.1411 69.0
39.151 73.0
39.1608 95.0
39.1707 69.0
39.1805 80.0
39.1904 86.0
39.2002 69.0
39.2101 84.0
39.2199 60.0
39.2298 72.0
39.2396 74.0
39.2495 62.0
39.2593 61.0
39.2692 81.0
39.279 65.0
39.2889 68.0
39.2987 87.0
39.3085 75.0
39.3184 60.0
39.3282 59.0
39.3381 60.0
39.3479 69.0
39.3578 53.0
39.3676 57.0
39.3775 65.0
39.3873 68.0
39.3972 65.0
39.407 69.0
39.4169 69.0
39.4267 79.0
39.4366 62.0
39.4464 71.0
39.4563 66.0
39.4661 60.0
39.476 59.0
39.4858 61.0
39.4957 69.0
39.5055 61.0
39.5154 78.0
39.5252 80.0
39.535 54.0
39.5449 78.0
39.5547 67.0
39.5646 61.0
39.5744 66.0
39.5843 53.0
39.5941 62.0
39.604 71.0
39.6138 72.0
39.6237 65.0
39.6335 57.0
39.6434 66.0
39.6532 63.0
39.6631 60.0
39.6729 64.0
39.6828 44.0
39.6926 63.0
39.7025 66.0
39.7123 54.0
39.7222 42.0
39.732 61.0
39.7418 63.0
39.7517 67.0
39.7615 49.0
39.7714 58.0
39.7812 76.0
39.7911 65.0
39.8009 50.0
39.8108 70.0
39.8206 46.0
39.8305 50.0
39.8403 61.0
39.8502 69.0
39.86 63.0
39.8699 59.0
39.8797 58.0
39.8896 50.0
39.8994 60.0
39.9093 57.0
39.9191 51.0
39.929 68.0
39.9388 68.0
39.9487 70.0
39.9585 73.0
39.9683 61.0
39.9782 64.0
39.988 50.0
39.9979 72.0