File: data/W6724/XRD_Omega/W6724_Cr2O3_scan_omega_2deg_step_0.002deg0_4.xy
31.75700 722.0
31.75900 749.0
31.76100 739.0
31.76300 740.0
31.76500 783.0
31.76700 808.0
31.76900 748.0
31.77100 771.0
31.77300 749.0
31.77500 745.0
31.77700 780.0
31.77900 767.0
31.78100 815.0
31.78300 760.0
31.78500 729.0
31.78700 782.0
31.78900 798.0
31.79100 785.0
31.79300 808.0
31.79500 801.0
31.79700 782.0
31.79900 780.0
31.80100 823.0
31.80300 814.0
31.80500 875.0
31.80700 869.0
31.80900 805.0
31.81100 843.0
31.81300 856.0
31.81500 794.0
31.81700 903.0
31.81900 882.0
31.82100 892.0
31.82300 869.0
31.82500 881.0
31.82700 886.0
31.82900 916.0
31.83100 903.0
31.83300 892.0
31.83500 890.0
31.83700 882.0
31.83900 930.0
31.84100 900.0
31.84300 920.0
31.84500 938.0
31.84700 921.0
31.84900 944.0
31.85100 958.0
31.85300 918.0
31.85500 967.0
31.85700 963.0
31.85900 973.0
31.86100 955.0
31.86300 997.0
31.86500 989.0
31.86700 1070.0
31.86900 1095.0
31.87100 1080.0
31.87300 1019.0
31.87500 1008.0
31.87700 1093.0
31.87900 994.0
31.88100 1024.0
31.88300 1019.0
31.88500 1028.0
31.88700 1064.0
31.88900 1043.0
31.89100 1061.0
31.89300 1054.0
31.89500 1059.0
31.89700 1082.0
31.89900 1091.0
31.90100 1051.0
31.90300 1068.0
31.90500 1077.0
31.90700 1087.0
31.90900 1103.0
31.91100 1100.0
31.91300 1114.0
31.91500 1121.0
31.91700 1093.0
31.91900 1135.0
31.92100 1140.0
31.92300 1093.0
31.92500 1189.0
31.92700 1138.0
31.92900 1132.0
31.93100 1163.0
31.93300 1126.0
31.93500 1172.0
31.93700 1176.0
31.93900 1169.0
31.94100 1136.0
31.94300 1121.0
31.94500 1191.0
31.94700 1270.0
31.94900 1186.0
31.95100 1236.0
31.95300 1209.0
31.95500 1272.0
31.95700 1295.0
31.95900 1335.0
31.96100 1296.0
31.96300 1261.0
31.96500 1262.0
31.96700 1269.0
31.96900 1252.0
31.97100 1320.0
31.97300 1282.0
31.97500 1293.0
31.97700 1245.0
31.97900 1290.0
31.98100 1256.0
31.98300 1316.0
31.98500 1280.0
31.98700 1375.0
31.98900 1363.0
31.99100 1304.0
31.99300 1319.0
31.99500 1354.0
31.99700 1285.0
31.99900 1424.0
32.00100 1442.0
32.00300 1378.0
32.00500 1378.0
32.00700 1367.0
32.00900 1356.0
32.01100 1383.0
32.01300 1428.0
32.01500 1401.0
32.01700 1454.0
32.01900 1444.0
32.02100 1399.0
32.02300 1497.0
32.02500 1449.0
32.02700 1487.0
32.02900 1492.0
32.03100 1497.0
32.03300 1490.0
32.03500 1562.0
32.03700 1618.0
32.03900 1456.0
32.04100 1570.0
32.04300 1514.0
32.04500 1619.0
32.04700 1538.0
32.04900 1575.0
32.05100 1584.0
32.05300 1615.0
32.05500 1651.0
32.05700 1595.0
32.05900 1623.0
32.06100 1609.0
32.06300 1591.0
32.06500 1591.0
32.06700 1609.0
32.06900 1641.0
32.07100 1619.0
32.07300 1592.0
32.07500 1683.0
32.07700 1709.0
32.07900 1578.0
32.08100 1647.0
32.08300 1671.0
32.08500 1670.0
32.08700 1685.0
32.08900 1664.0
32.09100 1661.0
32.09300 1718.0
32.09500 1675.0
32.09700 1771.0
32.09900 1701.0
32.10100 1730.0
32.10300 1805.0
32.10500 1813.0
32.10700 1798.0
32.10900 1865.0
32.11100 1810.0
32.11300 1810.0
32.11500 1863.0
32.11700 1801.0
32.11900 1834.0
32.12100 1949.0
32.12300 1873.0
32.12500 1810.0
32.12700 1851.0
32.12900 1988.0
32.13100 1928.0
32.13300 1929.0
32.13500 1947.0
32.13700 1970.0
32.13900 2020.0
32.14100 1992.0
32.14300 1894.0
32.14500 2052.0
32.14700 1987.0
32.14900 2065.0
32.15100 1929.0
32.15300 2016.0
32.15500 2103.0
32.15700 2074.0
32.15900 2109.0
32.16100 2188.0
32.16300 2060.0
32.16500 2091.0
32.16700 2164.0
32.16900 2102.0
32.17100 2158.0
32.17300 2151.0
32.17500 2090.0
32.17700 2166.0
32.17900 2208.0
32.18100 2215.0
32.18300 2244.0
32.18500 2225.0
32.18700 2212.0
32.18900 2200.0
32.19100 2302.0
32.19300 2274.0
32.19500 2327.0
32.19700 2360.0
32.19900 2239.0
32.20100 2291.0
32.20300 2238.0
32.20500 2346.0
32.20700 2402.0
32.20900 2285.0
32.21100 2388.0
32.21300 2342.0
32.21500 2420.0
32.21700 2376.0
32.21900 2348.0
32.22100 2472.0
32.22300 2518.0
32.22500 2403.0
32.22700 2450.0
32.22900 2496.0
32.23100 2475.0
32.23300 2399.0
32.23500 2576.0
32.23700 2487.0
32.23900 2514.0
32.24100 2572.0
32.24300 2464.0
32.24500 2524.0
32.24700 2575.0
32.24900 2596.0
32.25100 2619.0
32.25300 2577.0
32.25500 2578.0
32.25700 2610.0
32.25900 2615.0
32.26100 2718.0
32.26300 2696.0
32.26500 2750.0
32.26700 2755.0
32.26900 2689.0
32.27100 2821.0
32.27300 2775.0
32.27500 2766.0
32.27700 2797.0
32.27900 2713.0
32.28100 2756.0
32.28300 2781.0
32.28500 2802.0
32.28700 2828.0
32.28900 2930.0
32.29100 2932.0
32.29300 2961.0
32.29500 2895.0
32.29700 2942.0
32.29900 3048.0
32.30100 3007.0
32.30300 2967.0
32.30500 3022.0
32.30700 3058.0
32.30900 3109.0
32.31100 3165.0
32.31300 3032.0
32.31500 3073.0
32.31700 3192.0
32.31900 3192.0
32.32100 3114.0
32.32300 3249.0
32.32500 3106.0
32.32700 3163.0
32.32900 3173.0
32.33100 3175.0
32.33300 3236.0
32.33500 3231.0
32.33700 3242.0
32.33900 3219.0
32.34100 3406.0
32.34300 3338.0
32.34500 3280.0
32.34700 3320.0
32.34900 3318.0
32.35100 3340.0
32.35300 3440.0
32.35500 3378.0
32.35700 3499.0
32.35900 3386.0
32.36100 3425.0
32.36300 3479.0
32.36500 3431.0
32.36700 3573.0
32.36900 3541.0
32.37100 3688.0
32.37300 3647.0
32.37500 3562.0
32.37700 3576.0
32.37900 3581.0
32.38100 3590.0
32.38300 3671.0
32.38500 3622.0
32.38700 3697.0
32.38900 3787.0
32.39100 3815.0
32.39300 3779.0
32.39500 3897.0
32.39700 3877.0
32.39900 3829.0
32.40100 3861.0
32.40300 3797.0
32.40500 3893.0
32.40700 3861.0
32.40900 3902.0
32.41100 3997.0
32.41300 3864.0
32.41500 3946.0
32.41700 4026.0
32.41900 3876.0
32.42100 4097.0
32.42300 3885.0
32.42500 4040.0
32.42700 4102.0
32.42900 4101.0
32.43100 4166.0
32.43300 4113.0
32.43500 4132.0
32.43700 4357.0
32.43900 4267.0
32.44100 4175.0
32.44300 4182.0
32.44500 4179.0
32.44700 4415.0
32.44900 4323.0
32.45100 4377.0
32.45300 4208.0
32.45500 4354.0
32.45700 4262.0
32.45900 4362.0
32.46100 4500.0
32.46300 4485.0
32.46500 4462.0
32.46700 4523.0
32.46900 4477.0
32.47100 4548.0
32.47300 4476.0
32.47500 4351.0
32.47700 4570.0
32.47900 4542.0
32.48100 4716.0
32.48300 4603.0
32.48500 4759.0
32.48700 4768.0
32.48900 4806.0
32.49100 4774.0
32.49300 4699.0
32.49500 4829.0
32.49700 4773.0
32.49900 4925.0
32.50100 4868.0
32.50300 4919.0
32.50500 4913.0
32.50700 4964.0
32.50900 4905.0
32.51100 4961.0
32.51300 4913.0
32.51500 5013.0
32.51700 5075.0
32.51900 5113.0
32.52100 5113.0
32.52300 5128.0
32.52500 5076.0
32.52700 5193.0
32.52900 5065.0
32.53100 5406.0
32.53300 5242.0
32.53500 5310.0
32.53700 5213.0
32.53900 5324.0
32.54100 5358.0
32.54300 5331.0
32.54500 5282.0
32.54700 5387.0
32.54900 5347.0
32.55100 5460.0
32.55300 5217.0
32.55500 5467.0
32.55700 5531.0
32.55900 5463.0
32.56100 5318.0
32.56300 5579.0
32.56500 5539.0
32.56700 5542.0
32.56900 5467.0
32.57100 5626.0
32.57300 5538.0
32.57500 5597.0
32.57700 5652.0
32.57900 5580.0
32.58100 5697.0
32.58300 5677.0
32.58500 5623.0
32.58700 5605.0
32.58900 5627.0
32.59100 5862.0
32.59300 5678.0
32.59500 5724.0
32.59700 5866.0
32.59900 5892.0
32.60100 5765.0
32.60300 5907.0
32.60500 5943.0
32.60700 6077.0
32.60900 5949.0
32.61100 6010.0
32.61300 5955.0
32.61500 6038.0
32.61700 6129.0
32.61900 6164.0
32.62100 6110.0
32.62300 6103.0
32.62500 6049.0
32.62700 6158.0
32.62900 6138.0
32.63100 6241.0
32.63300 6068.0
32.63500 6045.0
32.63700 6360.0
32.63900 6232.0
32.64100 6407.0
32.64300 6256.0
32.64500 6272.0
32.64700 6300.0
32.64900 6224.0
32.65100 6239.0
32.65300 6373.0
32.65500 6481.0
32.65700 6215.0
32.65900 6322.0
32.66100 6287.0
32.66300 6211.0
32.66500 6345.0
32.66700 6335.0
32.66900 6326.0
32.67100 6469.0
32.67300 6436.0
32.67500 6504.0
32.67700 6422.0
32.67900 6488.0
32.68100 6401.0
32.68300 6456.0
32.68500 6509.0
32.68700 6525.0
32.68900 6614.0
32.69100 6462.0
32.69300 6667.0
32.69500 6617.0
32.69700 6579.0
32.69900 6478.0
32.70100 6600.0
32.70300 6550.0
32.70500 6565.0
32.70700 6545.0
32.70900 6616.0
32.71100 6627.0
32.71300 6763.0
32.71500 6638.0
32.71700 6666.0
32.71900 6584.0
32.72100 6650.0
32.72300 6633.0
32.72500 6601.0
32.72700 6436.0
32.72900 6756.0
32.73100 6566.0
32.73300 6745.0
32.73500 6480.0
32.73700 6718.0
32.73900 6666.0
32.74100 6541.0
32.74300 6404.0
32.74500 6655.0
32.74700 6706.0
32.74900 6715.0
32.75100 6596.0
32.75300 6539.0
32.75500 6813.0
32.75700 6859.0
32.75900 6901.0
32.76100 6628.0
32.76300 6758.0
32.76500 6802.0
32.76700 6847.0
32.76900 6644.0
32.77100 6707.0
32.77300 6637.0
32.77500 6634.0
32.77700 6724.0
32.77900 6520.0
32.78100 6522.0
32.78300 6572.0
32.78500 6662.0
32.78700 6656.0
32.78900 6451.0
32.79100 6566.0
32.79300 6544.0
32.79500 6571.0
32.79700 6643.0
32.79900 6602.0
32.80100 6625.0
32.80300 6559.0
32.80500 6378.0
32.80700 6527.0
32.80900 6425.0
32.81100 6625.0
32.81300 6468.0
32.81500 6441.0
32.81700 6398.0
32.81900 6593.0
32.82100 6493.0
32.82300 6529.0
32.82500 6369.0
32.82700 6424.0
32.82900 6339.0
32.83100 6406.0
32.83300 6383.0
32.83500 6264.0
32.83700 6312.0
32.83900 6339.0
32.84100 6266.0
32.84300 6272.0
32.84500 6338.0
32.84700 6424.0
32.84900 6413.0
32.85100 6472.0
32.85300 6368.0
32.85500 6212.0
32.85700 6216.0
32.85900 6265.0
32.86100 6009.0
32.86300 6218.0
32.86500 6022.0
32.86700 6099.0
32.86900 6033.0
32.87100 6040.0
32.87300 5982.0
32.87500 6027.0
32.87700 5982.0
32.87900 5975.0
32.88100 5966.0
32.88300 5862.0
32.88500 5675.0
32.88700 5946.0
32.88900 5872.0
32.89100 5719.0
32.89300 5892.0
32.89500 5870.0
32.89700 5849.0
32.89900 5842.0
32.90100 5781.0
32.90300 5716.0
32.90500 5662.0
32.90700 5699.0
32.90900 5617.0
32.91100 5633.0
32.91300 5623.0
32.91500 5804.0
32.91700 5592.0
32.91900 5431.0
32.92100 5540.0
32.92300 5472.0
32.92500 5454.0
32.92700 5484.0
32.92900 5466.0
32.93100 5396.0
32.93300 5384.0
32.93500 5318.0
32.93700 5532.0
32.93900 5405.0
32.94100 5352.0
32.94300 5291.0
32.94500 5049.0
32.94700 5229.0
32.94900 5196.0
32.95100 5144.0
32.95300 5030.0
32.95500 5018.0
32.95700 5076.0
32.95900 4964.0
32.96100 4973.0
32.96300 5126.0
32.96500 5005.0
32.96700 4972.0
32.96900 4951.0
32.97100 4888.0
32.97300 4988.0
32.97500 4930.0
32.97700 4842.0
32.97900 4871.0
32.98100 4844.0
32.98300 4695.0
32.98500 4814.0
32.98700 4617.0
32.98900 4551.0
32.99100 4684.0
32.99300 4518.0
32.99500 4647.0
32.99700 4524.0
32.99900 4540.0
33.00100 4502.0
33.00300 4656.0
33.00500 4482.0
33.00700 4424.0
33.00900 4428.0
33.01100 4509.0
33.01300 4398.0
33.01500 4386.0
33.01700 4392.0
33.01900 4363.0
33.02100 4265.0
33.02300 4258.0
33.02500 4243.0
33.02700 4169.0
33.02900 4166.0
33.03100 4099.0
33.03300 4298.0
33.03500 4110.0
33.03700 4181.0
33.03900 4093.0
33.04100 4117.0
33.04300 3951.0
33.04500 4107.0
33.04700 4029.0
33.04900 4007.0
33.05100 4042.0
33.05300 3874.0
33.05500 4018.0
33.05700 3860.0
33.05900 3901.0
33.06100 3909.0
33.06300 3825.0
33.06500 3870.0
33.06700 3805.0
33.06900 3837.0
33.07100 3745.0
33.07300 3820.0
33.07500 3673.0
33.07700 3619.0
33.07900 3567.0
33.08100 3603.0
33.08300 3603.0
33.08500 3616.0
33.08700 3580.0
33.08900 3549.0
33.09100 3486.0
33.09300 3537.0
33.09500 3374.0
33.09700 3407.0
33.09900 3425.0
33.10100 3371.0
33.10300 3257.0
33.10500 3257.0
33.10700 3257.0
33.10900 3267.0
33.11100 3188.0
33.11300 3117.0
33.11500 3074.0
33.11700 3101.0
33.11900 3093.0
33.12100 3053.0
33.12300 3028.0
33.12500 3036.0
33.12700 3010.0
33.12900 2914.0
33.13100 2940.0
33.13300 2988.0
33.13500 2855.0
33.13700 2804.0
33.13900 2849.0
33.14100 2864.0
33.14300 2833.0
33.14500 2905.0
33.14700 2882.0
33.14900 2744.0
33.15100 2757.0
33.15300 2730.0
33.15500 2744.0
33.15700 2702.0
33.15900 2654.0
33.16100 2695.0
33.16300 2608.0
33.16500 2552.0
33.16700 2607.0
33.16900 2582.0
33.17100 2481.0
33.17300 2612.0
33.17500 2608.0
33.17700 2504.0
33.17900 2476.0
33.18100 2495.0
33.18300 2504.0
33.18500 2457.0
33.18700 2482.0
33.18900 2405.0
33.19100 2415.0
33.19300 2435.0
33.19500 2397.0
33.19700 2416.0
33.19900 2336.0
33.20100 2274.0
33.20300 2356.0
33.20500 2317.0
33.20700 2252.0
33.20900 2177.0
33.21100 2279.0
33.21300 2319.0
33.21500 2206.0
33.21700 2207.0
33.21900 2194.0
33.22100 2144.0
33.22300 2177.0
33.22500 2184.0
33.22700 2214.0
33.22900 2093.0
33.23100 2178.0
33.23300 2068.0
33.23500 2097.0
33.23700 2060.0
33.23900 2044.0
33.24100 2055.0
33.24300 2002.0
33.24500 1960.0
33.24700 2030.0
33.24900 2059.0
33.25100 1924.0
33.25300 1998.0
33.25500 1927.0
33.25700 1887.0
33.25900 1927.0
33.26100 1980.0
33.26300 1902.0
33.26500 1833.0
33.26700 1864.0
33.26900 1834.0
33.27100 1842.0
33.27300 1788.0
33.27500 1780.0
33.27700 1822.0
33.27900 1810.0
33.28100 1807.0
33.28300 1813.0
33.28500 1776.0
33.28700 1753.0
33.28900 1770.0
33.29100 1676.0
33.29300 1728.0
33.29500 1663.0
33.29700 1781.0
33.29900 1761.0
33.30100 1680.0
33.30300 1611.0
33.30500 1633.0
33.30700 1611.0
33.30900 1540.0
33.31100 1593.0
33.31300 1636.0
33.31500 1658.0
33.31700 1575.0
33.31900 1582.0
33.32100 1581.0
33.32300 1493.0
33.32500 1512.0
33.32700 1556.0
33.32900 1518.0
33.33100 1473.0
33.33300 1544.0
33.33500 1491.0
33.33700 1475.0
33.33900 1482.0
33.34100 1506.0
33.34300 1452.0
33.34500 1502.0
33.34700 1428.0
33.34900 1382.0
33.35100 1399.0
33.35300 1416.0
33.35500 1369.0
33.35700 1387.0
33.35900 1424.0
33.36100 1362.0
33.36300 1422.0
33.36500 1394.0
33.36700 1372.0
33.36900 1355.0
33.37100 1365.0
33.37300 1299.0
33.37500 1289.0
33.37700 1347.0
33.37900 1285.0
33.38100 1332.0
33.38300 1368.0
33.38500 1244.0
33.38700 1300.0
33.38900 1270.0
33.39100 1315.0
33.39300 1245.0
33.39500 1235.0
33.39700 1197.0
33.39900 1195.0
33.40100 1222.0
33.40300 1166.0
33.40500 1194.0
33.40700 1126.0
33.40900 1193.0
33.41100 1149.0
33.41300 1099.0
33.41500 1136.0
33.41700 1181.0
33.41900 1119.0
33.42100 1089.0
33.42300 1114.0
33.42500 1087.0
33.42700 1165.0
33.42900 1101.0
33.43100 1129.0
33.43300 1133.0
33.43500 1064.0
33.43700 1057.0
33.43900 1050.0
33.44100 1087.0
33.44300 1023.0
33.44500 1030.0
33.44700 1030.0
33.44900 1076.0
33.45100 1069.0
33.45300 1068.0
33.45500 1049.0
33.45700 1038.0
33.45900 1020.0
33.46100 1028.0
33.46300 952.0
33.46500 948.0
33.46700 973.0
33.46900 952.0
33.47100 952.0
33.47300 959.0
33.47500 934.0
33.47700 971.0
33.47900 947.0
33.48100 979.0
33.48300 994.0
33.48500 916.0
33.48700 946.0
33.48900 919.0
33.49100 924.0
33.49300 951.0
33.49500 858.0
33.49700 915.0
33.49900 901.0
33.50100 889.0
33.50300 909.0
33.50500 927.0
33.50700 854.0
33.50900 870.0
33.51100 905.0
33.51300 835.0
33.51500 926.0
33.51700 835.0
33.51900 837.0
33.52100 874.0
33.52300 804.0
33.52500 883.0
33.52700 802.0
33.52900 852.0
33.53100 803.0
33.53300 793.0
33.53500 808.0
33.53700 773.0
33.53900 823.0
33.54100 744.0
33.54300 746.0
33.54500 767.0
33.54700 794.0
33.54900 749.0
33.55100 759.0
33.55300 846.0
33.55500 720.0
33.55700 727.0
33.55900 734.0
33.56100 747.0
33.56300 760.0
33.56500 716.0
33.56700 776.0
33.56900 731.0
33.57100 727.0
33.57300 729.0
33.57500 734.0
33.57700 703.0
33.57900 721.0
33.58100 709.0
33.58300 664.0
33.58500 700.0
33.58700 675.0
33.58900 733.0
33.59100 700.0
33.59300 687.0
33.59500 697.0
33.59700 703.0
33.59900 689.0
33.60100 692.0
33.60300 666.0
33.60500 672.0
33.60700 677.0
33.60900 687.0
33.61100 676.0
33.61300 676.0
33.61500 643.0
33.61700 629.0
33.61900 672.0
33.62100 611.0
33.62300 632.0
33.62500 680.0
33.62700 589.0
33.62900 636.0
33.63100 598.0
33.63300 634.0
33.63500 624.0
33.63700 624.0
33.63900 606.0
33.64100 580.0
33.64300 577.0
33.64500 649.0
33.64700 605.0
33.64900 589.0
33.65100 596.0
33.65300 555.0
33.65500 557.0
33.65700 593.0
33.65900 536.0
33.66100 586.0
33.66300 530.0
33.66500 596.0
33.66700 552.0
33.66900 609.0
33.67100 587.0
33.67300 569.0
33.67500 606.0
33.67700 576.0
33.67900 575.0
33.68100 554.0
33.68300 541.0
33.68500 571.0
33.68700 574.0
33.68900 557.0
33.69100 545.0
33.69300 514.0
33.69500 564.0
33.69700 579.0
33.69900 499.0
33.70100 517.0
33.70300 531.0
33.70500 518.0
33.70700 508.0
33.70900 553.0
33.71100 510.0
33.71300 519.0
33.71500 500.0
33.71700 520.0
33.71900 479.0
33.72100 479.0
33.72300 482.0
33.72500 499.0
33.72700 490.0
33.72900 477.0
33.73100 460.0
33.73300 477.0
33.73500 459.0
33.73700 487.0
33.73900 473.0
33.74100 500.0