File: data/W6817c/XRD_Omega/archive/W6817c_Omega-Scan_2deg_0.002_0_8_new.xy
18.86680 196.0
18.86880 223.0
18.87080 240.0
18.87280 236.0
18.87480 219.0
18.87680 242.0
18.87880 254.0
18.88080 237.0
18.88280 254.0
18.88480 237.0
18.88680 220.0
18.88880 234.0
18.89080 234.0
18.89280 219.0
18.89480 218.0
18.89680 262.0
18.89880 210.0
18.90080 234.0
18.90280 250.0
18.90480 228.0
18.90680 234.0
18.90880 244.0
18.91080 216.0
18.91280 223.0
18.91480 206.0
18.91680 235.0
18.91880 222.0
18.92080 227.0
18.92280 208.0
18.92480 209.0
18.92680 237.0
18.92880 242.0
18.93080 215.0
18.93280 243.0
18.93480 255.0
18.93680 229.0
18.93880 230.0
18.94080 219.0
18.94280 250.0
18.94480 235.0
18.94680 210.0
18.94880 240.0
18.95080 205.0
18.95280 228.0
18.95480 262.0
18.95680 235.0
18.95880 252.0
18.96080 242.0
18.96280 223.0
18.96480 247.0
18.96680 239.0
18.96880 223.0
18.97080 223.0
18.97280 226.0
18.97480 216.0
18.97680 234.0
18.97880 210.0
18.98080 229.0
18.98280 250.0
18.98480 248.0
18.98680 266.0
18.98880 248.0
18.99080 230.0
18.99280 223.0
18.99480 232.0
18.99680 259.0
18.99880 251.0
19.00080 273.0
19.00280 254.0
19.00480 257.0
19.00680 251.0
19.00880 255.0
19.01080 267.0
19.01280 261.0
19.01480 273.0
19.01680 255.0
19.01880 248.0
19.02080 257.0
19.02280 266.0
19.02480 277.0
19.02680 253.0
19.02880 272.0
19.03080 290.0
19.03280 276.0
19.03480 274.0
19.03680 261.0
19.03880 269.0
19.04080 289.0
19.04280 283.0
19.04480 253.0
19.04680 254.0
19.04880 278.0
19.05080 269.0
19.05280 265.0
19.05480 279.0
19.05680 240.0
19.05880 273.0
19.06080 277.0
19.06280 265.0
19.06480 280.0
19.06680 265.0
19.06880 270.0
19.07080 259.0
19.07280 262.0
19.07480 276.0
19.07680 306.0
19.07880 290.0
19.08080 293.0
19.08280 300.0
19.08480 291.0
19.08680 322.0
19.08880 280.0
19.09080 299.0
19.09280 273.0
19.09480 303.0
19.09680 280.0
19.09880 286.0
19.10080 311.0
19.10280 287.0
19.10480 295.0
19.10680 323.0
19.10880 296.0
19.11080 324.0
19.11280 327.0
19.11480 306.0
19.11680 294.0
19.11880 314.0
19.12080 332.0
19.12280 304.0
19.12480 309.0
19.12680 321.0
19.12880 338.0
19.13080 307.0
19.13280 334.0
19.13480 346.0
19.13680 324.0
19.13880 338.0
19.14080 292.0
19.14280 320.0
19.14480 326.0
19.14680 327.0
19.14880 354.0
19.15080 335.0
19.15280 340.0
19.15480 348.0
19.15680 364.0
19.15880 336.0
19.16080 365.0
19.16280 384.0
19.16480 359.0
19.16680 364.0
19.16880 342.0
19.17080 377.0
19.17280 371.0
19.17480 387.0
19.17680 408.0
19.17880 388.0
19.18080 366.0
19.18280 416.0
19.18480 409.0
19.18680 402.0
19.18880 398.0
19.19080 376.0
19.19280 472.0
19.19480 435.0
19.19680 476.0
19.19880 458.0
19.20080 445.0
19.20280 474.0
19.20480 500.0
19.20680 475.0
19.20880 529.0
19.21080 563.0
19.21280 549.0
19.21480 513.0
19.21680 574.0
19.21880 611.0
19.22080 537.0
19.22280 558.0
19.22480 563.0
19.22680 628.0
19.22880 578.0
19.23080 586.0
19.23280 614.0
19.23480 642.0
19.23680 600.0
19.23880 655.0
19.24080 626.0
19.24280 652.0
19.24480 686.0
19.24680 656.0
19.24880 662.0
19.25080 680.0
19.25280 657.0
19.25480 703.0
19.25680 682.0
19.25880 696.0
19.26080 671.0
19.26280 698.0
19.26480 712.0
19.26680 717.0
19.26880 674.0
19.27080 733.0
19.27280 718.0
19.27480 736.0
19.27680 748.0
19.27880 758.0
19.28080 728.0
19.28280 761.0
19.28480 752.0
19.28680 806.0
19.28880 813.0
19.29080 811.0
19.29280 816.0
19.29480 803.0
19.29680 851.0
19.29880 833.0
19.30080 915.0
19.30280 854.0
19.30480 867.0
19.30680 882.0
19.30880 859.0
19.31080 925.0
19.31280 935.0
19.31480 1001.0
19.31680 971.0
19.31880 1020.0
19.32080 946.0
19.32280 981.0
19.32480 958.0
19.32680 1088.0
19.32880 1040.0
19.33080 1064.0
19.33280 1071.0
19.33480 1115.0
19.33680 1137.0
19.33880 1083.0
19.34080 1097.0
19.34280 1140.0
19.34480 1104.0
19.34680 1196.0
19.34880 1120.0
19.35080 1212.0
19.35280 1196.0
19.35480 1210.0
19.35680 1213.0
19.35880 1276.0
19.36080 1148.0
19.36280 1174.0
19.36480 1288.0
19.36680 1263.0
19.36880 1282.0
19.37080 1237.0
19.37280 1267.0
19.37480 1281.0
19.37680 1321.0
19.37880 1403.0
19.38080 1355.0
19.38280 1342.0
19.38480 1352.0
19.38680 1364.0
19.38880 1519.0
19.39080 1482.0
19.39280 1408.0
19.39480 1472.0
19.39680 1530.0
19.39880 1527.0
19.40080 1551.0
19.40280 1489.0
19.40480 1619.0
19.40680 1548.0
19.40880 1642.0
19.41080 1680.0
19.41280 1707.0
19.41480 1638.0
19.41680 1765.0
19.41880 1716.0
19.42080 1875.0
19.42280 1808.0
19.42480 1796.0
19.42680 1852.0
19.42880 1861.0
19.43080 1870.0
19.43280 1894.0
19.43480 1862.0
19.43680 1926.0
19.43880 1955.0
19.44080 2015.0
19.44280 1939.0
19.44480 1951.0
19.44680 2033.0
19.44880 2025.0
19.45080 2037.0
19.45280 2069.0
19.45480 2120.0
19.45680 2124.0
19.45880 2146.0
19.46080 2068.0
19.46280 2098.0
19.46480 2148.0
19.46680 2127.0
19.46880 2200.0
19.47080 2200.0
19.47280 2214.0
19.47480 2216.0
19.47680 2202.0
19.47880 2183.0
19.48080 2134.0
19.48280 2112.0
19.48480 2090.0
19.48680 2130.0
19.48880 2128.0
19.49080 2170.0
19.49280 2086.0
19.49480 2091.0
19.49680 2076.0
19.49880 2146.0
19.50080 2103.0
19.50280 2198.0
19.50480 2065.0
19.50680 2051.0
19.50880 2061.0
19.51080 1988.0
19.51280 1999.0
19.51480 1943.0
19.51680 2039.0
19.51880 1908.0
19.52080 1876.0
19.52280 1943.0
19.52480 1920.0
19.52680 1876.0
19.52880 1858.0
19.53080 1849.0
19.53280 1834.0
19.53480 1857.0
19.53680 1739.0
19.53880 1718.0
19.54080 1741.0
19.54280 1749.0
19.54480 1825.0
19.54680 1725.0
19.54880 1606.0
19.55080 1683.0
19.55280 1669.0
19.55480 1589.0
19.55680 1579.0
19.55880 1584.0
19.56080 1538.0
19.56280 1550.0
19.56480 1440.0
19.56680 1467.0
19.56880 1486.0
19.57080 1429.0
19.57280 1398.0
19.57480 1344.0
19.57680 1383.0
19.57880 1368.0
19.58080 1288.0
19.58280 1284.0
19.58480 1276.0
19.58680 1264.0
19.58880 1306.0
19.59080 1182.0
19.59280 1195.0
19.59480 1160.0
19.59680 1149.0
19.59880 1140.0
19.60080 1166.0
19.60280 1068.0
19.60480 1112.0
19.60680 1052.0
19.60880 1002.0
19.61080 1070.0
19.61280 1045.0
19.61480 1065.0
19.61680 1007.0
19.61880 1011.0
19.62080 1004.0
19.62280 1009.0
19.62480 957.0
19.62680 891.0
19.62880 941.0
19.63080 902.0
19.63280 890.0
19.63480 875.0
19.63680 840.0
19.63880 856.0
19.64080 774.0
19.64280 807.0
19.64480 792.0
19.64680 820.0
19.64880 822.0
19.65080 803.0
19.65280 788.0
19.65480 758.0
19.65680 760.0
19.65880 751.0
19.66080 706.0
19.66280 722.0
19.66480 711.0
19.66680 701.0
19.66880 710.0
19.67080 654.0
19.67280 659.0
19.67480 679.0
19.67680 651.0
19.67880 624.0
19.68080 654.0
19.68280 674.0
19.68480 620.0
19.68680 579.0
19.68880 596.0
19.69080 611.0
19.69280 572.0
19.69480 639.0
19.69680 539.0
19.69880 575.0
19.70080 558.0
19.70280 551.0
19.70480 597.0
19.70680 561.0
19.70880 564.0
19.71080 538.0
19.71280 559.0
19.71480 553.0
19.71680 515.0
19.71880 466.0
19.72080 518.0
19.72280 510.0
19.72480 498.0
19.72680 501.0
19.72880 491.0
19.73080 465.0
19.73280 479.0
19.73480 487.0
19.73680 487.0
19.73880 456.0
19.74080 503.0
19.74280 506.0
19.74480 449.0
19.74680 405.0
19.74880 436.0
19.75080 449.0
19.75280 399.0
19.75480 412.0
19.75680 417.0
19.75880 432.0
19.76080 414.0
19.76280 455.0
19.76480 440.0
19.76680 425.0
19.76880 417.0
19.77080 386.0
19.77280 445.0
19.77480 410.0
19.77680 397.0
19.77880 394.0
19.78080 379.0
19.78280 423.0
19.78480 472.0
19.78680 412.0
19.78880 359.0
19.79080 367.0
19.79280 397.0
19.79480 402.0
19.79680 343.0
19.79880 368.0
19.80080 373.0
19.80280 318.0
19.80480 382.0
19.80680 345.0
19.80880 393.0
19.81080 376.0
19.81280 360.0
19.81480 394.0
19.81680 374.0
19.81880 416.0
19.82080 353.0
19.82280 379.0
19.82480 354.0
19.82680 369.0
19.82880 360.0
19.83080 440.0
19.83280 420.0
19.83480 403.0
19.83680 446.0
19.83880 456.0
19.84080 442.0
19.84280 520.0
19.84480 503.0
19.84680 518.0
19.84880 589.0
19.85080 605.0
19.85280 582.0
19.85480 580.0
19.85680 568.0
19.85880 596.0
19.86080 518.0
19.86280 555.0
19.86480 563.0
19.86680 523.0
19.86880 475.0
19.87080 518.0
19.87280 514.0
19.87480 492.0
19.87680 458.0
19.87880 464.0
19.88080 402.0
19.88280 437.0
19.88480 414.0
19.88680 400.0
19.88880 422.0
19.89080 399.0
19.89280 392.0
19.89480 387.0
19.89680 362.0
19.89880 416.0
19.90080 349.0
19.90280 353.0
19.90480 361.0
19.90680 365.0
19.90880 363.0
19.91080 362.0
19.91280 373.0
19.91480 358.0
19.91680 363.0
19.91880 320.0
19.92080 371.0
19.92280 376.0
19.92480 343.0
19.92680 343.0
19.92880 371.0
19.93080 364.0
19.93280 347.0
19.93480 341.0
19.93680 303.0
19.93880 353.0
19.94080 323.0
19.94280 330.0
19.94480 313.0
19.94680 307.0
19.94880 283.0
19.95080 306.0
19.95280 314.0
19.95480 288.0
19.95680 278.0
19.95880 290.0
19.96080 295.0
19.96280 287.0
19.96480 274.0
19.96680 298.0
19.96880 290.0
19.97080 323.0
19.97280 318.0
19.97480 315.0
19.97680 295.0
19.97880 260.0
19.98080 306.0
19.98280 350.0
19.98480 325.0
19.98680 303.0
19.98880 322.0
19.99080 287.0
19.99280 303.0
19.99480 326.0
19.99680 320.0
19.99880 342.0
20.00080 311.0
20.00280 342.0
20.00480 324.0
20.00680 335.0
20.00880 365.0
20.01080 295.0
20.01280 355.0
20.01480 304.0
20.01680 297.0
20.01880 315.0
20.02080 301.0
20.02280 296.0
20.02480 286.0
20.02680 271.0
20.02880 280.0
20.03080 262.0
20.03280 259.0
20.03480 287.0
20.03680 267.0
20.03880 258.0
20.04080 269.0
20.04280 293.0
20.04480 272.0
20.04680 255.0
20.04880 267.0
20.05080 294.0
20.05280 278.0
20.05480 260.0
20.05680 239.0
20.05880 244.0
20.06080 248.0
20.06280 274.0
20.06480 311.0
20.06680 217.0
20.06880 238.0
20.07080 254.0
20.07280 284.0
20.07480 245.0
20.07680 266.0
20.07880 238.0
20.08080 223.0
20.08280 233.0
20.08480 219.0
20.08680 225.0
20.08880 259.0
20.09080 281.0
20.09280 223.0
20.09480 241.0
20.09680 248.0
20.09880 244.0
20.10080 234.0
20.10280 241.0
20.10480 239.0
20.10680 240.0
20.10880 234.0
20.11080 202.0
20.11280 261.0
20.11480 238.0
20.11680 223.0
20.11880 238.0
20.12080 240.0
20.12280 231.0
20.12480 248.0
20.12680 221.0
20.12880 270.0
20.13080 244.0
20.13280 237.0
20.13480 231.0
20.13680 223.0
20.13880 225.0
20.14080 210.0
20.14280 226.0
20.14480 242.0
20.14680 230.0
20.14880 233.0
20.15080 256.0
20.15280 219.0
20.15480 204.0
20.15680 251.0
20.15880 225.0
20.16080 227.0
20.16280 194.0
20.16480 231.0
20.16680 197.0
20.16880 243.0
20.17080 209.0
20.17280 254.0
20.17480 235.0
20.17680 251.0
20.17880 235.0
20.18080 268.0
20.18280 238.0
20.18480 248.0
20.18680 225.0
20.18880 233.0
20.19080 235.0
20.19280 245.0
20.19480 218.0
20.19680 241.0
20.19880 239.0
20.20080 225.0
20.20280 236.0
20.20480 225.0
20.20680 217.0
20.20880 240.0
20.21080 242.0
20.21280 238.0
20.21480 258.0
20.21680 247.0
20.21880 248.0
20.22080 252.0
20.22280 226.0
20.22480 212.0
20.22680 228.0
20.22880 243.0
20.23080 230.0
20.23280 242.0
20.23480 210.0
20.23680 231.0
20.23880 247.0
20.24080 211.0
20.24280 205.0
20.24480 245.0
20.24680 243.0
20.24880 248.0
20.25080 233.0
20.25280 238.0
20.25480 202.0
20.25680 258.0
20.25880 257.0
20.26080 231.0
20.26280 215.0
20.26480 206.0
20.26680 228.0
20.26880 229.0
20.27080 211.0
20.27280 205.0
20.27480 197.0
20.27680 245.0
20.27880 238.0
20.28080 251.0
20.28280 223.0
20.28480 236.0
20.28680 241.0
20.28880 227.0
20.29080 228.0
20.29280 234.0
20.29480 260.0
20.29680 225.0
20.29880 218.0
20.30080 213.0
20.30280 236.0
20.30480 200.0
20.30680 241.0
20.30880 214.0
20.31080 233.0
20.31280 238.0
20.31480 241.0
20.31680 211.0
20.31880 238.0
20.32080 232.0
20.32280 243.0
20.32480 224.0
20.32680 245.0
20.32880 246.0
20.33080 235.0
20.33280 206.0
20.33480 249.0
20.33680 240.0
20.33880 245.0
20.34080 248.0
20.34280 244.0
20.34480 233.0
20.34680 247.0
20.34880 247.0
20.35080 273.0
20.35280 252.0
20.35480 243.0
20.35680 235.0
20.35880 248.0
20.36080 252.0
20.36280 227.0
20.36480 244.0
20.36680 252.0
20.36880 216.0
20.37080 217.0
20.37280 240.0
20.37480 261.0
20.37680 260.0
20.37880 261.0
20.38080 215.0
20.38280 238.0
20.38480 257.0
20.38680 243.0
20.38880 247.0
20.39080 211.0
20.39280 243.0
20.39480 218.0
20.39680 228.0
20.39880 264.0
20.40080 251.0
20.40280 229.0
20.40480 234.0
20.40680 242.0
20.40880 248.0
20.41080 247.0
20.41280 246.0
20.41480 263.0
20.41680 229.0
20.41880 262.0
20.42080 256.0
20.42280 270.0
20.42480 257.0
20.42680 271.0
20.42880 298.0
20.43080 265.0
20.43280 247.0
20.43480 236.0
20.43680 284.0
20.43880 308.0
20.44080 258.0
20.44280 262.0
20.44480 258.0
20.44680 259.0
20.44880 278.0
20.45080 238.0
20.45280 270.0
20.45480 240.0
20.45680 261.0
20.45880 252.0
20.46080 228.0
20.46280 242.0
20.46480 230.0
20.46680 231.0
20.46880 226.0
20.47080 220.0
20.47280 210.0
20.47480 197.0
20.47680 199.0
20.47880 229.0
20.48080 208.0
20.48280 187.0
20.48480 232.0
20.48680 197.0
20.48880 192.0
20.49080 171.0
20.49280 181.0
20.49480 205.0
20.49680 211.0
20.49880 193.0
20.50080 168.0
20.50280 188.0
20.50480 167.0
20.50680 176.0
20.50880 175.0
20.51080 194.0
20.51280 178.0
20.51480 190.0
20.51680 182.0
20.51880 186.0
20.52080 202.0
20.52280 183.0
20.52480 192.0
20.52680 220.0
20.52880 166.0
20.53080 164.0
20.53280 187.0
20.53480 196.0
20.53680 191.0
20.53880 190.0
20.54080 200.0
20.54280 183.0
20.54480 207.0
20.54680 211.0
20.54880 194.0
20.55080 181.0
20.55280 182.0
20.55480 201.0
20.55680 190.0
20.55880 210.0
20.56080 202.0
20.56280 201.0
20.56480 196.0
20.56680 195.0
20.56880 174.0
20.57080 171.0
20.57280 192.0
20.57480 175.0
20.57680 191.0
20.57880 167.0
20.58080 187.0
20.58280 186.0
20.58480 185.0
20.58680 166.0
20.58880 176.0
20.59080 178.0
20.59280 159.0
20.59480 181.0
20.59680 170.0
20.59880 206.0
20.60080 165.0
20.60280 177.0
20.60480 173.0
20.60680 189.0
20.60880 203.0
20.61080 196.0
20.61280 197.0
20.61480 184.0
20.61680 172.0
20.61880 184.0
20.62080 176.0
20.62280 160.0
20.62480 203.0
20.62680 186.0
20.62880 173.0
20.63080 179.0
20.63280 188.0
20.63480 182.0
20.63680 182.0
20.63880 190.0
20.64080 192.0
20.64280 186.0
20.64480 202.0
20.64680 169.0
20.64880 179.0
20.65080 186.0
20.65280 191.0
20.65480 184.0
20.65680 186.0
20.65880 181.0
20.66080 180.0
20.66280 198.0
20.66480 218.0
20.66680 204.0
20.66880 183.0
20.67080 196.0
20.67280 186.0
20.67480 211.0
20.67680 172.0
20.67880 202.0
20.68080 167.0
20.68280 177.0
20.68480 201.0
20.68680 184.0
20.68880 201.0
20.69080 184.0
20.69280 186.0
20.69480 179.0
20.69680 201.0
20.69880 197.0
20.70080 208.0
20.70280 181.0
20.70480 203.0
20.70680 184.0
20.70880 190.0
20.71080 215.0
20.71280 175.0
20.71480 196.0
20.71680 154.0
20.71880 178.0
20.72080 159.0