File: data/W6715/XRD_2ThetaOmega/phi0scan_2th-om_m_Cr2O3_55-75deg_PIXscan_4min_W6715_1.xy
55.0019 14.0
55.0166 16.0
55.0314 8.0
55.0462 7.0
55.0609 10.0
55.0757 10.0
55.0905 16.0
55.1053 11.0
55.12 9.0
55.1348 13.0
55.1496 10.0
55.1643 18.0
55.1791 10.0
55.1939 20.0
55.2087 17.0
55.2234 17.0
55.2382 12.0
55.253 12.0
55.2678 16.0
55.2825 15.0
55.2973 12.0
55.3121 11.0
55.3268 19.0
55.3416 14.0
55.3564 12.0
55.3712 15.0
55.3859 8.0
55.4007 17.0
55.4155 16.0
55.4302 12.0
55.445 15.0
55.4598 12.0
55.4746 15.0
55.4893 12.0
55.5041 22.0
55.5189 12.0
55.5336 10.0
55.5484 13.0
55.5632 16.0
55.578 15.0
55.5927 12.0
55.6075 12.0
55.6223 13.0
55.637 19.0
55.6518 14.0
55.6666 13.0
55.6814 13.0
55.6961 15.0
55.7109 11.0
55.7257 10.0
55.7404 11.0
55.7552 9.0
55.77 8.0
55.7848 12.0
55.7995 10.0
55.8143 11.0
55.8291 15.0
55.8438 11.0
55.8586 15.0
55.8734 15.0
55.8882 12.0
55.9029 6.0
55.9177 9.0
55.9325 12.0
55.9472 15.0
55.962 10.0
55.9768 16.0
55.9916 11.0
56.0063 14.0
56.0211 14.0
56.0359 14.0
56.0506 11.0
56.0654 11.0
56.0802 9.0
56.095 13.0
56.1097 20.0
56.1245 8.0
56.1393 14.0
56.154 16.0
56.1688 11.0
56.1836 10.0
56.1984 8.0
56.2131 12.0
56.2279 22.0
56.2427 13.0
56.2574 12.0
56.2722 16.0
56.287 9.0
56.3018 14.0
56.3165 11.0
56.3313 10.0
56.3461 8.0
56.3608 9.0
56.3756 12.0
56.3904 8.0
56.4052 16.0
56.4199 16.0
56.4347 16.0
56.4495 16.0
56.4642 24.0
56.479 18.0
56.4938 7.0
56.5086 18.0
56.5233 13.0
56.5381 13.0
56.5529 14.0
56.5676 15.0
56.5824 14.0
56.5972 9.0
56.612 18.0
56.6267 15.0
56.6415 15.0
56.6563 19.0
56.671 12.0
56.6858 9.0
56.7006 16.0
56.7154 20.0
56.7301 7.0
56.7449 7.0
56.7597 12.0
56.7745 17.0
56.7892 12.0
56.804 13.0
56.8188 16.0
56.8335 17.0
56.8483 9.0
56.8631 16.0
56.8779 10.0
56.8926 14.0
56.9074 19.0
56.9222 21.0
56.9369 15.0
56.9517 17.0
56.9665 12.0
56.9813 11.0
56.996 18.0
57.0108 8.0
57.0256 16.0
57.0403 10.0
57.0551 13.0
57.0699 12.0
57.0847 12.0
57.0994 14.0
57.1142 19.0
57.129 16.0
57.1437 12.0
57.1585 9.0
57.1733 18.0
57.1881 17.0
57.2028 19.0
57.2176 12.0
57.2324 19.0
57.2471 17.0
57.2619 22.0
57.2767 18.0
57.2915 23.0
57.3062 20.0
57.321 23.0
57.3358 19.0
57.3505 20.0
57.3653 27.0
57.3801 22.0
57.3949 18.0
57.4096 21.0
57.4244 29.0
57.4392 24.0
57.4539 21.0
57.4687 15.0
57.4835 16.0
57.4983 17.0
57.513 20.0
57.5278 23.0
57.5426 26.0
57.5573 19.0
57.5721 23.0
57.5869 13.0
57.6017 25.0
57.6164 19.0
57.6312 24.0
57.646 18.0
57.6607 13.0
57.6755 18.0
57.6903 18.0
57.7051 26.0
57.7198 23.0
57.7346 20.0
57.7494 21.0
57.7641 17.0
57.7789 18.0
57.7937 18.0
57.8085 15.0
57.8232 16.0
57.838 11.0
57.8528 20.0
57.8675 17.0
57.8823 17.0
57.8971 15.0
57.9119 13.0
57.9266 17.0
57.9414 7.0
57.9562 11.0
57.9709 22.0
57.9857 17.0
58.0005 19.0
58.0153 14.0
58.03 17.0
58.0448 21.0
58.0596 19.0
58.0743 14.0
58.0891 12.0
58.1039 8.0
58.1187 11.0
58.1334 13.0
58.1482 13.0
58.163 19.0
58.1777 13.0
58.1925 12.0
58.2073 10.0
58.2221 10.0
58.2368 18.0
58.2516 11.0
58.2664 19.0
58.2812 14.0
58.2959 19.0
58.3107 13.0
58.3255 18.0
58.3402 12.0
58.355 16.0
58.3698 6.0
58.3846 13.0
58.3993 18.0
58.4141 12.0
58.4289 12.0
58.4436 12.0
58.4584 9.0
58.4732 10.0
58.488 11.0
58.5027 17.0
58.5175 9.0
58.5323 9.0
58.547 14.0
58.5618 12.0
58.5766 8.0
58.5914 13.0
58.6061 13.0
58.6209 11.0
58.6357 21.0
58.6504 13.0
58.6652 8.0
58.68 12.0
58.6948 19.0
58.7095 23.0
58.7243 12.0
58.7391 13.0
58.7538 12.0
58.7686 14.0
58.7834 15.0
58.7982 13.0
58.8129 13.0
58.8277 15.0
58.8425 13.0
58.8572 16.0
58.872 10.0
58.8868 6.0
58.9016 11.0
58.9163 10.0
58.9311 10.0
58.9459 14.0
58.9606 14.0
58.9754 12.0
58.9902 16.0
59.005 18.0
59.0197 14.0
59.0345 12.0
59.0493 12.0
59.064 16.0
59.0788 12.0
59.0936 11.0
59.1084 15.0
59.1231 15.0
59.1379 20.0
59.1527 19.0
59.1674 7.0
59.1822 13.0
59.197 20.0
59.2118 12.0
59.2265 14.0
59.2413 14.0
59.2561 11.0
59.2708 17.0
59.2856 17.0
59.3004 19.0
59.3152 14.0
59.3299 18.0
59.3447 14.0
59.3595 11.0
59.3742 12.0
59.389 18.0
59.4038 11.0
59.4186 12.0
59.4333 13.0
59.4481 13.0
59.4629 11.0
59.4776 13.0
59.4924 16.0
59.5072 9.0
59.522 9.0
59.5367 14.0
59.5515 12.0
59.5663 14.0
59.581 11.0
59.5958 14.0
59.6106 11.0
59.6254 12.0
59.6401 17.0
59.6549 5.0
59.6697 13.0
59.6844 11.0
59.6992 14.0
59.714 12.0
59.7288 10.0
59.7435 5.0
59.7583 17.0
59.7731 13.0
59.7878 14.0
59.8026 14.0
59.8174 18.0
59.8322 15.0
59.8469 8.0
59.8617 15.0
59.8765 14.0
59.8913 22.0
59.906 12.0
59.9208 15.0
59.9356 11.0
59.9503 20.0
59.9651 12.0
59.9799 10.0
59.9947 14.0
60.0094 7.0
60.0242 11.0
60.039 8.0
60.0537 14.0
60.0685 17.0
60.0833 6.0
60.0981 18.0
60.1128 18.0
60.1276 19.0
60.1424 14.0
60.1571 15.0
60.1719 8.0
60.1867 17.0
60.2015 9.0
60.2162 18.0
60.231 8.0
60.2458 15.0
60.2605 16.0
60.2753 20.0
60.2901 11.0
60.3049 20.0
60.3196 28.0
60.3344 17.0
60.3492 17.0
60.3639 25.0
60.3787 21.0
60.3935 17.0
60.4083 17.0
60.423 17.0
60.4378 22.0
60.4526 17.0
60.4673 20.0
60.4821 16.0
60.4969 14.0
60.5117 18.0
60.5264 21.0
60.5412 20.0
60.556 22.0
60.5707 16.0
60.5855 16.0
60.6003 26.0
60.6151 23.0
60.6298 23.0
60.6446 35.0
60.6594 32.0
60.6741 33.0
60.6889 45.0
60.7037 64.0
60.7185 95.0
60.7332 155.0
60.748 295.0
60.7628 470.0
60.7775 630.0
60.7923 673.0
60.8071 576.0
60.8219 410.0
60.8366 282.0
60.8514 269.0
60.8662 194.0
60.8809 203.0
60.8957 118.0
60.9105 96.0
60.9253 69.0
60.94 61.0
60.9548 49.0
60.9696 39.0
60.9843 54.0
60.9991 31.0
61.0139 21.0
61.0287 45.0
61.0434 28.0
61.0582 24.0
61.073 35.0
61.0877 26.0
61.1025 24.0
61.1173 27.0
61.1321 29.0
61.1468 28.0
61.1616 27.0
61.1764 42.0
61.1911 26.0
61.2059 25.0
61.2207 22.0
61.2355 27.0
61.2502 22.0
61.265 23.0
61.2798 13.0
61.2945 19.0
61.3093 27.0
61.3241 15.0
61.3389 23.0
61.3536 22.0
61.3684 27.0
61.3832 16.0
61.398 24.0
61.4127 21.0
61.4275 29.0
61.4423 24.0
61.457 32.0
61.4718 14.0
61.4866 19.0
61.5014 19.0
61.5161 21.0
61.5309 28.0
61.5457 22.0
61.5604 23.0
61.5752 22.0
61.59 23.0
61.6048 19.0
61.6195 32.0
61.6343 19.0
61.6491 29.0
61.6638 26.0
61.6786 18.0
61.6934 19.0
61.7082 20.0
61.7229 19.0
61.7377 29.0
61.7525 19.0
61.7672 20.0
61.782 14.0
61.7968 27.0
61.8116 29.0
61.8263 30.0
61.8411 20.0
61.8559 25.0
61.8706 27.0
61.8854 19.0
61.9002 12.0
61.915 17.0
61.9297 22.0
61.9445 20.0
61.9593 23.0
61.974 20.0
61.9888 23.0
62.0036 27.0
62.0184 18.0
62.0331 20.0
62.0479 24.0
62.0627 18.0
62.0774 26.0
62.0922 25.0
62.107 22.0
62.1218 27.0
62.1365 28.0
62.1513 25.0
62.1661 27.0
62.1808 22.0
62.1956 27.0
62.2104 17.0
62.2252 31.0
62.2399 25.0
62.2547 37.0
62.2695 22.0
62.2842 28.0
62.299 27.0
62.3138 22.0
62.3286 33.0
62.3433 41.0
62.3581 30.0
62.3729 24.0
62.3876 30.0
62.4024 35.0
62.4172 31.0
62.432 19.0
62.4467 36.0
62.4615 31.0
62.4763 30.0
62.491 25.0
62.5058 22.0
62.5206 27.0
62.5354 32.0
62.5501 32.0
62.5649 34.0
62.5797 43.0
62.5944 29.0
62.6092 40.0
62.624 31.0
62.6388 30.0
62.6535 34.0
62.6683 44.0
62.6831 45.0
62.6978 39.0
62.7126 41.0
62.7274 44.0
62.7422 43.0
62.7569 42.0
62.7717 38.0
62.7865 31.0
62.8012 38.0
62.816 41.0
62.8308 44.0
62.8456 42.0
62.8603 46.0
62.8751 43.0
62.8899 47.0
62.9047 58.0
62.9194 41.0
62.9342 48.0
62.949 43.0
62.9637 38.0
62.9785 46.0
62.9933 50.0
63.0081 55.0
63.0228 44.0
63.0376 56.0
63.0524 50.0
63.0671 54.0
63.0819 45.0
63.0967 52.0
63.1115 55.0
63.1262 58.0
63.141 45.0
63.1558 63.0
63.1705 56.0
63.1853 47.0
63.2001 51.0
63.2149 60.0
63.2296 72.0
63.2444 62.0
63.2592 63.0
63.2739 75.0
63.2887 66.0
63.3035 62.0
63.3183 73.0
63.333 88.0
63.3478 64.0
63.3626 84.0
63.3773 84.0
63.3921 91.0
63.4069 86.0
63.4217 92.0
63.4364 80.0
63.4512 103.0
63.466 86.0
63.4807 99.0
63.4955 101.0
63.5103 107.0
63.5251 126.0
63.5398 114.0
63.5546 115.0
63.5694 146.0
63.5841 123.0
63.5989 135.0
63.6137 119.0
63.6285 156.0
63.6432 148.0
63.658 165.0
63.6728 168.0
63.6875 164.0
63.7023 201.0
63.7171 210.0
63.7319 220.0
63.7466 245.0
63.7614 239.0
63.7762 260.0
63.7909 291.0
63.8057 265.0
63.8205 299.0
63.8353 320.0
63.85 334.0
63.8648 367.0
63.8796 399.0
63.8943 425.0
63.9091 436.0
63.9239 444.0
63.9387 485.0
63.9534 514.0
63.9682 580.0
63.983 604.0
63.9977 616.0
64.0125 650.0
64.0273 725.0
64.0421 778.0
64.0568 842.0
64.0716 854.0
64.0864 940.0
64.1011 980.0
64.1159 1093.0
64.1307 1137.0
64.1455 1193.0
64.1602 1286.0
64.175 1297.0
64.1898 1398.0
64.2045 1603.0
64.2193 1587.0
64.2341 1716.0
64.2489 1815.0
64.2636 1843.0
64.2784 1907.0
64.2932 1872.0
64.3079 1947.0
64.3227 1973.0
64.3375 2101.0
64.3523 2047.0
64.367 2023.0
64.3818 1941.0
64.3966 1898.0
64.4114 1815.0
64.4261 1848.0
64.4409 1792.0
64.4557 1657.0
64.4704 1637.0
64.4852 1541.0
64.5 1533.0
64.5148 1505.0
64.5295 1348.0
64.5443 1355.0
64.5591 1194.0
64.5738 1176.0
64.5886 1016.0
64.6034 962.0
64.6182 944.0
64.6329 886.0
64.6477 863.0
64.6625 807.0
64.6772 700.0
64.692 681.0
64.7068 598.0
64.7216 613.0
64.7363 556.0
64.7511 523.0
64.7659 488.0
64.7806 421.0
64.7954 424.0
64.8102 390.0
64.825 393.0
64.8397 339.0
64.8545 360.0
64.8693 330.0
64.884 309.0
64.8988 286.0
64.9136 285.0
64.9284 283.0
64.9431 244.0
64.9579 225.0
64.9727 227.0
64.9874 223.0
65.0022 207.0
65.017 191.0
65.0318 201.0
65.0465 162.0
65.0613 172.0
65.0761 181.0
65.0908 160.0
65.1056 149.0
65.1204 134.0
65.1352 150.0
65.1499 131.0
65.1647 134.0
65.1795 122.0
65.1942 135.0
65.209 128.0
65.2238 108.0
65.2386 104.0
65.2533 118.0
65.2681 95.0
65.2829 114.0
65.2976 112.0
65.3124 95.0
65.3272 92.0
65.342 93.0
65.3567 84.0
65.3715 76.0
65.3863 84.0
65.401 100.0
65.4158 96.0
65.4306 83.0
65.4454 80.0
65.4601 91.0
65.4749 80.0
65.4897 66.0
65.5044 78.0
65.5192 84.0
65.534 69.0
65.5488 63.0
65.5635 66.0
65.5783 57.0
65.5931 63.0
65.6078 66.0
65.6226 67.0
65.6374 67.0
65.6522 60.0
65.6669 70.0
65.6817 62.0
65.6965 72.0
65.7112 52.0
65.726 72.0
65.7408 74.0
65.7556 61.0
65.7703 56.0
65.7851 64.0
65.7999 58.0
65.8146 63.0
65.8294 63.0
65.8442 60.0
65.859 67.0
65.8737 72.0
65.8885 52.0
65.9033 68.0
65.9181 46.0
65.9328 64.0
65.9476 81.0
65.9624 78.0
65.9771 61.0
65.9919 59.0
66.0067 56.0
66.0215 46.0
66.0362 52.0
66.051 67.0
66.0658 69.0
66.0805 78.0
66.0953 55.0
66.1101 69.0
66.1249 73.0
66.1396 60.0
66.1544 62.0
66.1692 65.0
66.1839 64.0
66.1987 61.0
66.2135 93.0
66.2283 90.0
66.243 74.0
66.2578 78.0
66.2726 70.0
66.2873 79.0
66.3021 82.0
66.3169 101.0
66.3317 75.0
66.3464 67.0
66.3612 70.0
66.376 92.0
66.3907 78.0
66.4055 88.0
66.4203 97.0
66.4351 81.0
66.4498 81.0
66.4646 84.0
66.4794 84.0
66.4941 83.0
66.5089 84.0
66.5237 87.0
66.5385 79.0
66.5532 88.0
66.568 89.0
66.5828 97.0
66.5975 110.0
66.6123 100.0
66.6271 97.0
66.6419 109.0
66.6566 98.0
66.6714 118.0
66.6862 99.0
66.7009 100.0
66.7157 99.0
66.7305 141.0
66.7453 108.0
66.76 111.0
66.7748 118.0
66.7896 101.0
66.8043 128.0
66.8191 105.0
66.8339 122.0
66.8487 125.0
66.8634 112.0
66.8782 127.0
66.893 125.0
66.9077 124.0
66.9225 144.0
66.9373 143.0
66.9521 127.0
66.9668 154.0
66.9816 142.0
66.9964 156.0
67.0111 120.0
67.0259 163.0
67.0407 121.0
67.0555 141.0
67.0702 154.0
67.085 150.0
67.0998 133.0
67.1145 152.0
67.1293 161.0
67.1441 144.0
67.1589 166.0
67.1736 179.0
67.1884 184.0
67.2032 167.0
67.2179 184.0
67.2327 189.0
67.2475 167.0
67.2623 200.0
67.277 184.0
67.2918 199.0
67.3066 200.0
67.3213 209.0
67.3361 209.0
67.3509 202.0
67.3657 263.0
67.3804 285.0
67.3952 266.0
67.41 228.0
67.4248 265.0
67.4395 307.0
67.4543 298.0
67.4691 340.0
67.4838 339.0
67.4986 314.0
67.5134 293.0
67.5282 336.0
67.5429 363.0
67.5577 418.0
67.5725 378.0
67.5872 380.0
67.602 398.0
67.6168 460.0
67.6316 469.0
67.6463 505.0
67.6611 555.0
67.6759 638.0
67.6906 682.0
67.7054 804.0
67.7202 980.0
67.735 1076.0
67.7497 1247.0
67.7645 1337.0
67.7793 1350.0
67.794 1504.0
67.8088 1399.0
67.8236 1498.0
67.8384 1398.0
67.8531 1377.0
67.8679 1446.0
67.8827 1418.0
67.8974 1531.0
67.9122 1680.0
67.927 1837.0
67.9418 2077.0
67.9565 2493.0
67.9713 2933.0
67.9861 3649.0
68.0008 4615.0
68.0156 6010.0
68.0304 8694.0
68.0452 13198.0
68.0599 23222.0
68.0747 55947.0
68.0895 117001.0
68.1042 148437.0
68.119 149002.0
68.1338 104381.0
68.1486 50502.0
68.1633 25477.0
68.1781 14519.0
68.1929 10099.0
68.2076 8247.0
68.2224 7987.0
68.2372 9690.0
68.252 14987.0
68.2667 29984.0
68.2815 56929.0
68.2963 74312.0
68.311 74942.0
68.3258 55714.0
68.3406 29603.0
68.3554 15035.0
68.3701 8772.0
68.3849 5513.0
68.3997 4014.0
68.4144 3036.0
68.4292 2653.0
68.444 2146.0
68.4588 1845.0
68.4735 1738.0
68.4883 1544.0
68.5031 1414.0
68.5178 1318.0
68.5326 1114.0
68.5474 1102.0
68.5622 1001.0
68.5769 899.0
68.5917 884.0
68.6065 790.0
68.6212 755.0
68.636 703.0
68.6508 672.0
68.6656 646.0
68.6803 597.0
68.6951 591.0
68.7099 622.0
68.7246 532.0
68.7394 527.0
68.7542 500.0
68.769 441.0
68.7837 482.0
68.7985 454.0
68.8133 423.0
68.828 434.0
68.8428 393.0
68.8576 344.0
68.8724 377.0
68.8871 352.0
68.9019 353.0
68.9167 348.0
68.9315 341.0
68.9462 287.0
68.961 310.0
68.9758 287.0
68.9905 306.0
69.0053 265.0
69.0201 299.0
69.0349 295.0
69.0496 256.0
69.0644 211.0
69.0792 203.0
69.0939 257.0
69.1087 263.0
69.1235 193.0
69.1383 202.0
69.153 199.0
69.1678 180.0
69.1826 182.0
69.1973 175.0
69.2121 196.0
69.2269 171.0
69.2417 175.0
69.2564 167.0
69.2712 144.0
69.286 142.0
69.3007 163.0
69.3155 154.0
69.3303 141.0
69.3451 158.0
69.3598 156.0
69.3746 134.0
69.3894 159.0
69.4041 121.0
69.4189 144.0
69.4337 148.0
69.4485 117.0
69.4632 133.0
69.478 107.0
69.4928 108.0
69.5075 106.0
69.5223 112.0
69.5371 115.0
69.5519 110.0
69.5666 105.0
69.5814 105.0
69.5962 118.0
69.6109 101.0
69.6257 98.0
69.6405 103.0
69.6553 95.0
69.67 102.0
69.6848 100.0
69.6996 86.0
69.7143 91.0
69.7291 106.0
69.7439 80.0
69.7587 71.0
69.7734 81.0
69.7882 81.0
69.803 73.0
69.8177 78.0
69.8325 96.0
69.8473 74.0
69.8621 82.0
69.8768 67.0
69.8916 69.0
69.9064 95.0
69.9211 66.0
69.9359 69.0
69.9507 61.0
69.9655 51.0
69.9802 67.0
69.995 54.0
70.0098 57.0
70.0245 71.0
70.0393 64.0
70.0541 54.0
70.0689 46.0
70.0836 54.0
70.0984 46.0
70.1132 47.0
70.1279 58.0
70.1427 41.0
70.1575 40.0
70.1723 40.0
70.187 43.0
70.2018 62.0
70.2166 49.0
70.2313 46.0
70.2461 52.0
70.2609 47.0
70.2757 47.0
70.2904 51.0
70.3052 38.0
70.32 53.0
70.3347 40.0
70.3495 36.0
70.3643 41.0
70.3791 33.0
70.3938 38.0
70.4086 49.0
70.4234 45.0
70.4382 49.0
70.4529 31.0
70.4677 33.0
70.4825 30.0
70.4972 41.0
70.512 39.0
70.5268 29.0
70.5416 36.0
70.5563 31.0
70.5711 33.0
70.5859 30.0
70.6006 42.0
70.6154 26.0
70.6302 35.0
70.645 38.0
70.6597 31.0
70.6745 29.0
70.6893 33.0
70.704 35.0
70.7188 34.0
70.7336 22.0
70.7484 29.0
70.7631 26.0
70.7779 32.0
70.7927 32.0
70.8074 27.0
70.8222 24.0
70.837 37.0
70.8518 30.0
70.8665 25.0
70.8813 20.0
70.8961 16.0
70.9108 29.0
70.9256 32.0
70.9404 29.0
70.9552 25.0
70.9699 37.0
70.9847 19.0
70.9995 14.0
71.0142 33.0
71.029 22.0
71.0438 24.0
71.0586 39.0
71.0733 23.0
71.0881 36.0
71.1029 26.0
71.1176 28.0
71.1324 24.0
71.1472 22.0
71.162 37.0
71.1767 27.0
71.1915 24.0
71.2063 26.0
71.221 26.0
71.2358 35.0
71.2506 24.0
71.2654 27.0
71.2801 26.0
71.2949 24.0
71.3097 21.0
71.3244 21.0
71.3392 25.0
71.354 23.0
71.3688 20.0
71.3835 32.0
71.3983 18.0
71.4131 27.0
71.4278 26.0
71.4426 23.0
71.4574 18.0
71.4722 25.0
71.4869 21.0
71.5017 22.0
71.5165 23.0
71.5312 21.0
71.546 22.0
71.5608 19.0
71.5756 21.0
71.5903 18.0
71.6051 22.0
71.6199 28.0
71.6346 24.0
71.6494 27.0
71.6642 26.0
71.679 29.0
71.6937 20.0
71.7085 20.0
71.7233 17.0
71.738 24.0
71.7528 15.0
71.7676 19.0
71.7824 16.0
71.7971 18.0
71.8119 27.0
71.8267 19.0
71.8414 17.0
71.8562 17.0
71.871 13.0
71.8858 25.0
71.9005 17.0
71.9153 18.0
71.9301 23.0
71.9449 20.0
71.9596 13.0
71.9744 20.0
71.9892 26.0
72.0039 11.0
72.0187 24.0
72.0335 22.0
72.0483 18.0
72.063 16.0
72.0778 22.0
72.0926 24.0
72.1073 18.0
72.1221 15.0
72.1369 20.0
72.1517 27.0
72.1664 21.0
72.1812 21.0
72.196 17.0
72.2107 13.0
72.2255 18.0
72.2403 22.0
72.2551 22.0
72.2698 24.0
72.2846 22.0
72.2994 22.0
72.3141 17.0
72.3289 20.0
72.3437 23.0
72.3585 15.0
72.3732 20.0
72.388 19.0
72.4028 23.0
72.4175 13.0
72.4323 13.0
72.4471 15.0
72.4619 13.0
72.4766 19.0
72.4914 13.0
72.5062 29.0
72.5209 10.0
72.5357 17.0
72.5505 13.0
72.5653 18.0
72.58 16.0
72.5948 8.0
72.6096 18.0
72.6243 15.0
72.6391 15.0
72.6539 24.0
72.6687 17.0
72.6834 14.0
72.6982 16.0
72.713 19.0
72.7277 16.0
72.7425 16.0
72.7573 20.0
72.7721 15.0
72.7868 18.0
72.8016 15.0
72.8164 16.0
72.8311 15.0
72.8459 14.0
72.8607 13.0
72.8755 19.0
72.8902 27.0
72.905 22.0
72.9198 12.0
72.9345 22.0
72.9493 19.0
72.9641 10.0
72.9789 23.0
72.9936 22.0
73.0084 16.0
73.0232 13.0
73.0379 14.0
73.0527 15.0
73.0675 19.0
73.0823 14.0
73.097 13.0
73.1118 12.0
73.1266 14.0
73.1413 23.0
73.1561 18.0
73.1709 22.0
73.1857 9.0
73.2004 12.0
73.2152 19.0
73.23 13.0
73.2447 12.0
73.2595 13.0
73.2743 20.0
73.2891 15.0
73.3038 24.0
73.3186 14.0
73.3334 22.0
73.3481 15.0
73.3629 22.0
73.3777 13.0
73.3925 8.0
73.4072 15.0
73.422 17.0
73.4368 17.0
73.4516 18.0
73.4663 16.0
73.4811 19.0
73.4959 10.0
73.5106 13.0
73.5254 11.0
73.5402 15.0
73.555 15.0
73.5697 12.0
73.5845 13.0
73.5993 5.0
73.614 15.0
73.6288 13.0
73.6436 12.0
73.6584 14.0
73.6731 18.0
73.6879 14.0
73.7027 13.0
73.7174 17.0
73.7322 14.0
73.747 21.0
73.7618 11.0
73.7765 15.0
73.7913 12.0
73.8061 19.0
73.8208 20.0
73.8356 17.0
73.8504 11.0
73.8652 18.0
73.8799 18.0
73.8947 16.0
73.9095 14.0
73.9242 20.0
73.939 17.0
73.9538 13.0
73.9686 19.0
73.9833 14.0
73.9981 14.0
74.0129 20.0
74.0276 13.0
74.0424 28.0
74.0572 17.0
74.072 14.0
74.0867 16.0
74.1015 17.0
74.1163 15.0
74.131 14.0
74.1458 15.0
74.1606 16.0
74.1754 19.0
74.1901 16.0
74.2049 8.0
74.2197 14.0
74.2344 12.0
74.2492 14.0
74.264 15.0
74.2788 16.0
74.2935 13.0
74.3083 29.0
74.3231 20.0
74.3378 17.0
74.3526 11.0
74.3674 15.0
74.3822 19.0
74.3969 18.0
74.4117 9.0
74.4265 14.0
74.4412 8.0
74.456 12.0
74.4708 12.0
74.4856 12.0
74.5003 12.0
74.5151 3.0
74.5299 10.0
74.5446 19.0
74.5594 17.0
74.5742 10.0
74.589 10.0
74.6037 15.0
74.6185 14.0
74.6333 15.0
74.648 15.0
74.6628 10.0
74.6776 22.0
74.6924 17.0
74.7071 13.0
74.7219 17.0
74.7367 14.0
74.7514 15.0
74.7662 16.0
74.781 17.0
74.7958 10.0
74.8105 11.0
74.8253 10.0
74.8401 19.0
74.8548 14.0
74.8696 13.0
74.8844 20.0
74.8992 17.0
74.9139 11.0
74.9287 14.0
74.9435 12.0
74.9583 14.0
74.973 14.0
74.9878 8.0
74.9976 17.0