File: data/W6715/XRD_2ThetaOmega/phi180scan_2th-om_m_Cr2O3_55-75deg_PIXscan_4min_W6715_3.xy
55.0019 14.0
55.0166 10.0
55.0314 16.0
55.0462 21.0
55.0609 8.0
55.0757 10.0
55.0905 12.0
55.1053 16.0
55.12 17.0
55.1348 13.0
55.1496 19.0
55.1643 14.0
55.1791 19.0
55.1939 11.0
55.2087 15.0
55.2234 10.0
55.2382 12.0
55.253 14.0
55.2678 11.0
55.2825 13.0
55.2973 13.0
55.3121 22.0
55.3268 8.0
55.3416 12.0
55.3564 23.0
55.3712 8.0
55.3859 10.0
55.4007 12.0
55.4155 13.0
55.4302 16.0
55.445 18.0
55.4598 10.0
55.4746 12.0
55.4893 15.0
55.5041 12.0
55.5189 15.0
55.5336 13.0
55.5484 20.0
55.5632 14.0
55.578 12.0
55.5927 22.0
55.6075 14.0
55.6223 14.0
55.637 17.0
55.6518 11.0
55.6666 12.0
55.6814 19.0
55.6961 12.0
55.7109 16.0
55.7257 12.0
55.7404 11.0
55.7552 16.0
55.77 14.0
55.7848 13.0
55.7995 17.0
55.8143 11.0
55.8291 9.0
55.8438 16.0
55.8586 14.0
55.8734 10.0
55.8882 9.0
55.9029 15.0
55.9177 12.0
55.9325 17.0
55.9472 17.0
55.962 17.0
55.9768 8.0
55.9916 14.0
56.0063 9.0
56.0211 18.0
56.0359 12.0
56.0506 18.0
56.0654 18.0
56.0802 10.0
56.095 10.0
56.1097 8.0
56.1245 15.0
56.1393 13.0
56.154 11.0
56.1688 13.0
56.1836 17.0
56.1984 13.0
56.2131 17.0
56.2279 18.0
56.2427 18.0
56.2574 14.0
56.2722 18.0
56.287 11.0
56.3018 20.0
56.3165 15.0
56.3313 20.0
56.3461 8.0
56.3608 12.0
56.3756 19.0
56.3904 17.0
56.4052 11.0
56.4199 6.0
56.4347 10.0
56.4495 16.0
56.4642 15.0
56.479 12.0
56.4938 19.0
56.5086 11.0
56.5233 17.0
56.5381 22.0
56.5529 12.0
56.5676 14.0
56.5824 11.0
56.5972 10.0
56.612 15.0
56.6267 12.0
56.6415 10.0
56.6563 11.0
56.671 11.0
56.6858 13.0
56.7006 19.0
56.7154 16.0
56.7301 12.0
56.7449 16.0
56.7597 14.0
56.7745 11.0
56.7892 9.0
56.804 13.0
56.8188 17.0
56.8335 16.0
56.8483 15.0
56.8631 14.0
56.8779 17.0
56.8926 12.0
56.9074 14.0
56.9222 16.0
56.9369 15.0
56.9517 17.0
56.9665 13.0
56.9813 23.0
56.996 15.0
57.0108 10.0
57.0256 12.0
57.0403 17.0
57.0551 12.0
57.0699 14.0
57.0847 24.0
57.0994 16.0
57.1142 9.0
57.129 11.0
57.1437 19.0
57.1585 8.0
57.1733 19.0
57.1881 11.0
57.2028 19.0
57.2176 10.0
57.2324 25.0
57.2471 13.0
57.2619 14.0
57.2767 9.0
57.2915 19.0
57.3062 19.0
57.321 18.0
57.3358 21.0
57.3505 26.0
57.3653 22.0
57.3801 22.0
57.3949 12.0
57.4096 11.0
57.4244 13.0
57.4392 27.0
57.4539 14.0
57.4687 21.0
57.4835 15.0
57.4983 23.0
57.513 16.0
57.5278 14.0
57.5426 25.0
57.5573 18.0
57.5721 14.0
57.5869 20.0
57.6017 15.0
57.6164 19.0
57.6312 15.0
57.646 20.0
57.6607 17.0
57.6755 21.0
57.6903 25.0
57.7051 19.0
57.7198 20.0
57.7346 9.0
57.7494 13.0
57.7641 19.0
57.7789 19.0
57.7937 12.0
57.8085 13.0
57.8232 12.0
57.838 17.0
57.8528 9.0
57.8675 13.0
57.8823 12.0
57.8971 10.0
57.9119 13.0
57.9266 14.0
57.9414 10.0
57.9562 17.0
57.9709 16.0
57.9857 10.0
58.0005 22.0
58.0153 18.0
58.03 15.0
58.0448 12.0
58.0596 13.0
58.0743 13.0
58.0891 15.0
58.1039 8.0
58.1187 14.0
58.1334 11.0
58.1482 9.0
58.163 13.0
58.1777 11.0
58.1925 12.0
58.2073 23.0
58.2221 10.0
58.2368 7.0
58.2516 17.0
58.2664 14.0
58.2812 11.0
58.2959 13.0
58.3107 10.0
58.3255 24.0
58.3402 12.0
58.355 8.0
58.3698 10.0
58.3846 13.0
58.3993 8.0
58.4141 15.0
58.4289 12.0
58.4436 9.0
58.4584 10.0
58.4732 8.0
58.488 19.0
58.5027 12.0
58.5175 13.0
58.5323 18.0
58.547 11.0
58.5618 16.0
58.5766 10.0
58.5914 19.0
58.6061 15.0
58.6209 9.0
58.6357 17.0
58.6504 14.0
58.6652 15.0
58.68 15.0
58.6948 14.0
58.7095 7.0
58.7243 8.0
58.7391 16.0
58.7538 14.0
58.7686 9.0
58.7834 12.0
58.7982 10.0
58.8129 10.0
58.8277 13.0
58.8425 16.0
58.8572 10.0
58.872 11.0
58.8868 10.0
58.9016 12.0
58.9163 12.0
58.9311 15.0
58.9459 13.0
58.9606 15.0
58.9754 13.0
58.9902 10.0
59.005 10.0
59.0197 23.0
59.0345 13.0
59.0493 9.0
59.064 17.0
59.0788 13.0
59.0936 15.0
59.1084 11.0
59.1231 18.0
59.1379 14.0
59.1527 21.0
59.1674 18.0
59.1822 13.0
59.197 14.0
59.2118 15.0
59.2265 17.0
59.2413 14.0
59.2561 16.0
59.2708 15.0
59.2856 13.0
59.3004 9.0
59.3152 13.0
59.3299 9.0
59.3447 14.0
59.3595 20.0
59.3742 16.0
59.389 17.0
59.4038 11.0
59.4186 18.0
59.4333 16.0
59.4481 11.0
59.4629 16.0
59.4776 15.0
59.4924 12.0
59.5072 17.0
59.522 7.0
59.5367 9.0
59.5515 15.0
59.5663 14.0
59.581 11.0
59.5958 9.0
59.6106 19.0
59.6254 17.0
59.6401 11.0
59.6549 18.0
59.6697 11.0
59.6844 14.0
59.6992 8.0
59.714 19.0
59.7288 18.0
59.7435 23.0
59.7583 18.0
59.7731 7.0
59.7878 14.0
59.8026 9.0
59.8174 12.0
59.8322 14.0
59.8469 16.0
59.8617 17.0
59.8765 9.0
59.8913 11.0
59.906 6.0
59.9208 10.0
59.9356 15.0
59.9503 8.0
59.9651 13.0
59.9799 14.0
59.9947 22.0
60.0094 11.0
60.0242 16.0
60.039 6.0
60.0537 13.0
60.0685 14.0
60.0833 21.0
60.0981 15.0
60.1128 18.0
60.1276 16.0
60.1424 17.0
60.1571 19.0
60.1719 15.0
60.1867 9.0
60.2015 13.0
60.2162 28.0
60.231 14.0
60.2458 15.0
60.2605 26.0
60.2753 23.0
60.2901 22.0
60.3049 18.0
60.3196 18.0
60.3344 29.0
60.3492 20.0
60.3639 13.0
60.3787 19.0
60.3935 13.0
60.4083 14.0
60.423 27.0
60.4378 22.0
60.4526 20.0
60.4673 17.0
60.4821 17.0
60.4969 20.0
60.5117 20.0
60.5264 19.0
60.5412 16.0
60.556 21.0
60.5707 15.0
60.5855 32.0
60.6003 27.0
60.6151 19.0
60.6298 33.0
60.6446 30.0
60.6594 22.0
60.6741 32.0
60.6889 62.0
60.7037 60.0
60.7185 82.0
60.7332 128.0
60.748 194.0
60.7628 399.0
60.7775 583.0
60.7923 690.0
60.8071 659.0
60.8219 486.0
60.8366 348.0
60.8514 273.0
60.8662 262.0
60.8809 185.0
60.8957 159.0
60.9105 131.0
60.9253 78.0
60.94 68.0
60.9548 46.0
60.9696 48.0
60.9843 40.0
60.9991 42.0
61.0139 26.0
61.0287 33.0
61.0434 36.0
61.0582 25.0
61.073 30.0
61.0877 31.0
61.1025 27.0
61.1173 18.0
61.1321 38.0
61.1468 28.0
61.1616 31.0
61.1764 27.0
61.1911 26.0
61.2059 27.0
61.2207 21.0
61.2355 25.0
61.2502 20.0
61.265 21.0
61.2798 21.0
61.2945 24.0
61.3093 22.0
61.3241 27.0
61.3389 22.0
61.3536 24.0
61.3684 13.0
61.3832 24.0
61.398 19.0
61.4127 18.0
61.4275 23.0
61.4423 22.0
61.457 26.0
61.4718 22.0
61.4866 27.0
61.5014 28.0
61.5161 19.0
61.5309 27.0
61.5457 17.0
61.5604 23.0
61.5752 20.0
61.59 16.0
61.6048 17.0
61.6195 20.0
61.6343 18.0
61.6491 16.0
61.6638 29.0
61.6786 16.0
61.6934 24.0
61.7082 22.0
61.7229 21.0
61.7377 26.0
61.7525 21.0
61.7672 26.0
61.782 24.0
61.7968 19.0
61.8116 19.0
61.8263 26.0
61.8411 39.0
61.8559 19.0
61.8706 17.0
61.8854 28.0
61.9002 23.0
61.915 27.0
61.9297 24.0
61.9445 24.0
61.9593 26.0
61.974 19.0
61.9888 24.0
62.0036 24.0
62.0184 12.0
62.0331 19.0
62.0479 26.0
62.0627 27.0
62.0774 26.0
62.0922 25.0
62.107 15.0
62.1218 32.0
62.1365 17.0
62.1513 20.0
62.1661 23.0
62.1808 35.0
62.1956 31.0
62.2104 26.0
62.2252 38.0
62.2399 30.0
62.2547 23.0
62.2695 28.0
62.2842 23.0
62.299 24.0
62.3138 20.0
62.3286 28.0
62.3433 34.0
62.3581 26.0
62.3729 24.0
62.3876 31.0
62.4024 27.0
62.4172 33.0
62.432 30.0
62.4467 33.0
62.4615 41.0
62.4763 34.0
62.491 41.0
62.5058 40.0
62.5206 35.0
62.5354 26.0
62.5501 27.0
62.5649 22.0
62.5797 37.0
62.5944 29.0
62.6092 33.0
62.624 35.0
62.6388 30.0
62.6535 29.0
62.6683 24.0
62.6831 33.0
62.6978 21.0
62.7126 33.0
62.7274 46.0
62.7422 30.0
62.7569 36.0
62.7717 39.0
62.7865 43.0
62.8012 44.0
62.816 48.0
62.8308 37.0
62.8456 47.0
62.8603 36.0
62.8751 44.0
62.8899 35.0
62.9047 45.0
62.9194 40.0
62.9342 54.0
62.949 39.0
62.9637 46.0
62.9785 41.0
62.9933 39.0
63.0081 48.0
63.0228 42.0
63.0376 47.0
63.0524 45.0
63.0671 52.0
63.0819 48.0
63.0967 45.0
63.1115 54.0
63.1262 51.0
63.141 52.0
63.1558 53.0
63.1705 61.0
63.1853 51.0
63.2001 55.0
63.2149 52.0
63.2296 63.0
63.2444 50.0
63.2592 56.0
63.2739 70.0
63.2887 68.0
63.3035 60.0
63.3183 53.0
63.333 62.0
63.3478 61.0
63.3626 75.0
63.3773 79.0
63.3921 63.0
63.4069 93.0
63.4217 86.0
63.4364 84.0
63.4512 96.0
63.466 87.0
63.4807 93.0
63.4955 97.0
63.5103 107.0
63.5251 108.0
63.5398 125.0
63.5546 94.0
63.5694 123.0
63.5841 132.0
63.5989 127.0
63.6137 122.0
63.6285 135.0
63.6432 146.0
63.658 134.0
63.6728 145.0
63.6875 184.0
63.7023 177.0
63.7171 185.0
63.7319 200.0
63.7466 206.0
63.7614 212.0
63.7762 211.0
63.7909 234.0
63.8057 270.0
63.8205 257.0
63.8353 308.0
63.85 288.0
63.8648 327.0
63.8796 326.0
63.8943 377.0
63.9091 359.0
63.9239 392.0
63.9387 450.0
63.9534 444.0
63.9682 510.0
63.983 533.0
63.9977 591.0
64.0125 597.0
64.0273 619.0
64.0421 699.0
64.0568 730.0
64.0716 718.0
64.0864 824.0
64.1011 818.0
64.1159 933.0
64.1307 958.0
64.1455 1019.0
64.1602 1109.0
64.175 1215.0
64.1898 1206.0
64.2045 1345.0
64.2193 1358.0
64.2341 1463.0
64.2489 1467.0
64.2636 1517.0
64.2784 1553.0
64.2932 1604.0
64.3079 1681.0
64.3227 1736.0
64.3375 1713.0
64.3523 1724.0
64.367 1751.0
64.3818 1621.0
64.3966 1602.0
64.4114 1618.0
64.4261 1526.0
64.4409 1491.0
64.4557 1460.0
64.4704 1433.0
64.4852 1427.0
64.5 1337.0
64.5148 1298.0
64.5295 1220.0
64.5443 1168.0
64.5591 1115.0
64.5738 1097.0
64.5886 971.0
64.6034 967.0
64.6182 853.0
64.6329 817.0
64.6477 769.0
64.6625 665.0
64.6772 656.0
64.692 651.0
64.7068 552.0
64.7216 523.0
64.7363 521.0
64.7511 438.0
64.7659 440.0
64.7806 451.0
64.7954 396.0
64.8102 368.0
64.825 344.0
64.8397 332.0
64.8545 296.0
64.8693 288.0
64.884 303.0
64.8988 264.0
64.9136 255.0
64.9284 258.0
64.9431 205.0
64.9579 238.0
64.9727 200.0
64.9874 195.0
65.0022 192.0
65.017 196.0
65.0318 167.0
65.0465 148.0
65.0613 157.0
65.0761 158.0
65.0908 150.0
65.1056 155.0
65.1204 150.0
65.1352 147.0
65.1499 116.0
65.1647 125.0
65.1795 115.0
65.1942 102.0
65.209 126.0
65.2238 117.0
65.2386 114.0
65.2533 117.0
65.2681 110.0
65.2829 98.0
65.2976 114.0
65.3124 97.0
65.3272 97.0
65.342 71.0
65.3567 96.0
65.3715 82.0
65.3863 84.0
65.401 93.0
65.4158 88.0
65.4306 74.0
65.4454 99.0
65.4601 79.0
65.4749 67.0
65.4897 87.0
65.5044 80.0
65.5192 80.0
65.534 72.0
65.5488 76.0
65.5635 61.0
65.5783 58.0
65.5931 76.0
65.6078 56.0
65.6226 79.0
65.6374 81.0
65.6522 72.0
65.6669 70.0
65.6817 48.0
65.6965 51.0
65.7112 66.0
65.726 74.0
65.7408 70.0
65.7556 76.0
65.7703 68.0
65.7851 70.0
65.7999 72.0
65.8146 54.0
65.8294 60.0
65.8442 50.0
65.859 78.0
65.8737 62.0
65.8885 70.0
65.9033 69.0
65.9181 58.0
65.9328 60.0
65.9476 70.0
65.9624 63.0
65.9771 62.0
65.9919 75.0
66.0067 67.0
66.0215 75.0
66.0362 66.0
66.051 68.0
66.0658 72.0
66.0805 69.0
66.0953 81.0
66.1101 61.0
66.1249 79.0
66.1396 68.0
66.1544 68.0
66.1692 72.0
66.1839 85.0
66.1987 79.0
66.2135 72.0
66.2283 85.0
66.243 76.0
66.2578 89.0
66.2726 82.0
66.2873 80.0
66.3021 75.0
66.3169 87.0
66.3317 78.0
66.3464 96.0
66.3612 102.0
66.376 74.0
66.3907 95.0
66.4055 102.0
66.4203 88.0
66.4351 75.0
66.4498 96.0
66.4646 97.0
66.4794 78.0
66.4941 95.0
66.5089 91.0
66.5237 100.0
66.5385 98.0
66.5532 113.0
66.568 98.0
66.5828 84.0
66.5975 100.0
66.6123 96.0
66.6271 110.0
66.6419 102.0
66.6566 101.0
66.6714 103.0
66.6862 108.0
66.7009 104.0
66.7157 115.0
66.7305 104.0
66.7453 126.0
66.76 109.0
66.7748 106.0
66.7896 117.0
66.8043 125.0
66.8191 128.0
66.8339 102.0
66.8487 110.0
66.8634 138.0
66.8782 105.0
66.893 122.0
66.9077 119.0
66.9225 131.0
66.9373 124.0
66.9521 123.0
66.9668 135.0
66.9816 140.0
66.9964 139.0
67.0111 128.0
67.0259 151.0
67.0407 153.0
67.0555 142.0
67.0702 156.0
67.085 166.0
67.0998 164.0
67.1145 152.0
67.1293 132.0
67.1441 174.0
67.1589 161.0
67.1736 155.0
67.1884 161.0
67.2032 173.0
67.2179 170.0
67.2327 172.0
67.2475 178.0
67.2623 198.0
67.277 189.0
67.2918 193.0
67.3066 170.0
67.3213 190.0
67.3361 209.0
67.3509 188.0
67.3657 195.0
67.3804 255.0
67.3952 196.0
67.41 272.0
67.4248 259.0
67.4395 283.0
67.4543 255.0
67.4691 271.0
67.4838 318.0
67.4986 321.0
67.5134 303.0
67.5282 376.0
67.5429 387.0
67.5577 367.0
67.5725 395.0
67.5872 428.0
67.602 414.0
67.6168 425.0
67.6316 488.0
67.6463 499.0
67.6611 551.0
67.6759 570.0
67.6906 708.0
67.7054 805.0
67.7202 958.0
67.735 1044.0
67.7497 1155.0
67.7645 1327.0
67.7793 1399.0
67.794 1541.0
67.8088 1504.0
67.8236 1510.0
67.8384 1488.0
67.8531 1438.0
67.8679 1418.0
67.8827 1471.0
67.8974 1486.0
67.9122 1621.0
67.927 1936.0
67.9418 2028.0
67.9565 2311.0
67.9713 2722.0
67.9861 3368.0
68.0008 4234.0
68.0156 5630.0
68.0304 7622.0
68.0452 11077.0
68.0599 18582.0
68.0747 39097.0
68.0895 94526.0
68.1042 145758.0
68.119 158453.0
68.1338 132156.0
68.1486 68183.0
68.1633 33208.0
68.1781 18210.0
68.1929 11649.0
68.2076 8878.0
68.2224 8061.0
68.2372 8917.0
68.252 12553.0
68.2667 22854.0
68.2815 46859.0
68.2963 72028.0
68.311 80000.0
68.3258 67295.0
68.3406 40334.0
68.3554 20021.0
68.3701 11137.0
68.3849 6567.0
68.3997 4676.0
68.4144 3501.0
68.4292 2844.0
68.444 2368.0
68.4588 1968.0
68.4735 1858.0
68.4883 1697.0
68.5031 1409.0
68.5178 1327.0
68.5326 1214.0
68.5474 1035.0
68.5622 1031.0
68.5769 915.0
68.5917 927.0
68.6065 894.0
68.6212 801.0
68.636 769.0
68.6508 724.0
68.6656 661.0
68.6803 640.0
68.6951 611.0
68.7099 584.0
68.7246 562.0
68.7394 559.0
68.7542 525.0
68.769 499.0
68.7837 481.0
68.7985 442.0
68.8133 411.0
68.828 426.0
68.8428 382.0
68.8576 394.0
68.8724 373.0
68.8871 355.0
68.9019 321.0
68.9167 349.0
68.9315 340.0
68.9462 316.0
68.961 338.0
68.9758 282.0
68.9905 318.0
69.0053 318.0
69.0201 265.0
69.0349 302.0
69.0496 275.0
69.0644 200.0
69.0792 271.0
69.0939 273.0
69.1087 267.0
69.1235 260.0
69.1383 218.0
69.153 199.0
69.1678 201.0
69.1826 178.0
69.1973 174.0
69.2121 175.0
69.2269 200.0
69.2417 197.0
69.2564 186.0
69.2712 174.0
69.286 165.0
69.3007 160.0
69.3155 163.0
69.3303 152.0
69.3451 147.0
69.3598 130.0
69.3746 153.0
69.3894 157.0
69.4041 151.0
69.4189 133.0
69.4337 128.0
69.4485 129.0
69.4632 124.0
69.478 129.0
69.4928 125.0
69.5075 113.0
69.5223 123.0
69.5371 122.0
69.5519 118.0
69.5666 106.0
69.5814 95.0
69.5962 109.0
69.6109 109.0
69.6257 104.0
69.6405 112.0
69.6553 105.0
69.67 93.0
69.6848 89.0
69.6996 115.0
69.7143 81.0
69.7291 87.0
69.7439 76.0
69.7587 92.0
69.7734 83.0
69.7882 67.0
69.803 83.0
69.8177 71.0
69.8325 77.0
69.8473 68.0
69.8621 85.0
69.8768 77.0
69.8916 60.0
69.9064 75.0
69.9211 75.0
69.9359 77.0
69.9507 65.0
69.9655 72.0
69.9802 78.0
69.995 82.0
70.0098 72.0
70.0245 62.0
70.0393 64.0
70.0541 63.0
70.0689 61.0
70.0836 88.0
70.0984 60.0
70.1132 61.0
70.1279 54.0
70.1427 49.0
70.1575 42.0
70.1723 29.0
70.187 55.0
70.2018 45.0
70.2166 43.0
70.2313 42.0
70.2461 41.0
70.2609 55.0
70.2757 42.0
70.2904 44.0
70.3052 42.0
70.32 52.0
70.3347 34.0
70.3495 36.0
70.3643 41.0
70.3791 45.0
70.3938 47.0
70.4086 33.0
70.4234 44.0
70.4382 30.0
70.4529 37.0
70.4677 35.0
70.4825 38.0
70.4972 46.0
70.512 36.0
70.5268 36.0
70.5416 40.0
70.5563 34.0
70.5711 30.0
70.5859 33.0
70.6006 38.0
70.6154 37.0
70.6302 39.0
70.645 31.0
70.6597 34.0
70.6745 31.0
70.6893 33.0
70.704 27.0
70.7188 25.0
70.7336 35.0
70.7484 37.0
70.7631 34.0
70.7779 33.0
70.7927 27.0
70.8074 37.0
70.8222 24.0
70.837 22.0
70.8518 33.0
70.8665 24.0
70.8813 39.0
70.8961 44.0
70.9108 26.0
70.9256 38.0
70.9404 27.0
70.9552 20.0
70.9699 33.0
70.9847 27.0
70.9995 26.0
71.0142 44.0
71.029 18.0
71.0438 20.0
71.0586 26.0
71.0733 26.0
71.0881 34.0
71.1029 41.0
71.1176 26.0
71.1324 27.0
71.1472 29.0
71.162 28.0
71.1767 30.0
71.1915 28.0
71.2063 22.0
71.221 23.0
71.2358 24.0
71.2506 20.0
71.2654 25.0
71.2801 28.0
71.2949 20.0
71.3097 34.0
71.3244 25.0
71.3392 29.0
71.354 27.0
71.3688 21.0
71.3835 20.0
71.3983 24.0
71.4131 24.0
71.4278 27.0
71.4426 24.0
71.4574 29.0
71.4722 31.0
71.4869 24.0
71.5017 19.0
71.5165 26.0
71.5312 16.0
71.546 25.0
71.5608 21.0
71.5756 19.0
71.5903 18.0
71.6051 20.0
71.6199 28.0
71.6346 18.0
71.6494 22.0
71.6642 13.0
71.679 26.0
71.6937 26.0
71.7085 17.0
71.7233 20.0
71.738 20.0
71.7528 27.0
71.7676 21.0
71.7824 23.0
71.7971 28.0
71.8119 22.0
71.8267 20.0
71.8414 17.0
71.8562 22.0
71.871 23.0
71.8858 22.0
71.9005 18.0
71.9153 23.0
71.9301 24.0
71.9449 17.0
71.9596 29.0
71.9744 30.0
71.9892 22.0
72.0039 15.0
72.0187 18.0
72.0335 15.0
72.0483 14.0
72.063 21.0
72.0778 16.0
72.0926 20.0
72.1073 20.0
72.1221 22.0
72.1369 13.0
72.1517 18.0
72.1664 23.0
72.1812 18.0
72.196 29.0
72.2107 16.0
72.2255 18.0
72.2403 17.0
72.2551 21.0
72.2698 27.0
72.2846 12.0
72.2994 21.0
72.3141 23.0
72.3289 15.0
72.3437 22.0
72.3585 23.0
72.3732 14.0
72.388 18.0
72.4028 15.0
72.4175 12.0
72.4323 16.0
72.4471 19.0
72.4619 22.0
72.4766 26.0
72.4914 24.0
72.5062 15.0
72.5209 13.0
72.5357 17.0
72.5505 26.0
72.5653 14.0
72.58 21.0
72.5948 12.0
72.6096 17.0
72.6243 18.0
72.6391 21.0
72.6539 21.0
72.6687 20.0
72.6834 9.0
72.6982 14.0
72.713 19.0
72.7277 25.0
72.7425 24.0
72.7573 19.0
72.7721 15.0
72.7868 10.0
72.8016 23.0
72.8164 17.0
72.8311 18.0
72.8459 15.0
72.8607 18.0
72.8755 24.0
72.8902 12.0
72.905 18.0
72.9198 22.0
72.9345 13.0
72.9493 19.0
72.9641 15.0
72.9789 15.0
72.9936 19.0
73.0084 18.0
73.0232 25.0
73.0379 16.0
73.0527 19.0
73.0675 11.0
73.0823 14.0
73.097 21.0
73.1118 23.0
73.1266 17.0
73.1413 12.0
73.1561 22.0
73.1709 21.0
73.1857 18.0
73.2004 16.0
73.2152 13.0
73.23 20.0
73.2447 14.0
73.2595 15.0
73.2743 19.0
73.2891 21.0
73.3038 21.0
73.3186 17.0
73.3334 13.0
73.3481 22.0
73.3629 16.0
73.3777 20.0
73.3925 16.0
73.4072 18.0
73.422 20.0
73.4368 6.0
73.4516 19.0
73.4663 15.0
73.4811 13.0
73.4959 16.0
73.5106 11.0
73.5254 28.0
73.5402 11.0
73.555 17.0
73.5697 9.0
73.5845 14.0
73.5993 14.0
73.614 6.0
73.6288 16.0
73.6436 18.0
73.6584 14.0
73.6731 17.0
73.6879 18.0
73.7027 16.0
73.7174 17.0
73.7322 15.0
73.747 13.0
73.7618 15.0
73.7765 27.0
73.7913 10.0
73.8061 17.0
73.8208 14.0
73.8356 15.0
73.8504 18.0
73.8652 17.0
73.8799 22.0
73.8947 18.0
73.9095 20.0
73.9242 14.0
73.939 16.0
73.9538 16.0
73.9686 15.0
73.9833 10.0
73.9981 13.0
74.0129 15.0
74.0276 17.0
74.0424 15.0
74.0572 16.0
74.072 18.0
74.0867 16.0
74.1015 19.0
74.1163 8.0
74.131 17.0
74.1458 21.0
74.1606 18.0
74.1754 21.0
74.1901 15.0
74.2049 14.0
74.2197 13.0
74.2344 18.0
74.2492 27.0
74.264 15.0
74.2788 20.0
74.2935 17.0
74.3083 10.0
74.3231 14.0
74.3378 6.0
74.3526 11.0
74.3674 10.0
74.3822 19.0
74.3969 15.0
74.4117 13.0
74.4265 14.0
74.4412 14.0
74.456 13.0
74.4708 14.0
74.4856 23.0
74.5003 18.0
74.5151 12.0
74.5299 19.0
74.5446 13.0
74.5594 20.0
74.5742 16.0
74.589 14.0
74.6037 12.0
74.6185 19.0
74.6333 20.0
74.648 25.0
74.6628 16.0
74.6776 15.0
74.6924 11.0
74.7071 20.0
74.7219 9.0
74.7367 12.0
74.7514 13.0
74.7662 12.0
74.781 14.0
74.7958 13.0
74.8105 15.0
74.8253 20.0
74.8401 12.0
74.8548 13.0
74.8696 13.0
74.8844 9.0
74.8992 14.0
74.9139 21.0
74.9287 19.0
74.9435 9.0
74.9583 11.0
74.973 16.0
74.9878 12.0
74.9976 14.0