File: data/W6715/XRD_2ThetaOmega/phi270scan_2th-om_m_Cr2O3_55-75deg_PIXscan_4min_W6715_4.xy
55.0019 15.0
55.0166 15.0
55.0314 14.0
55.0462 14.0
55.0609 7.0
55.0757 19.0
55.0905 15.0
55.1053 12.0
55.12 7.0
55.1348 14.0
55.1496 10.0
55.1643 11.0
55.1791 9.0
55.1939 9.0
55.2087 12.0
55.2234 6.0
55.2382 11.0
55.253 11.0
55.2678 18.0
55.2825 7.0
55.2973 13.0
55.3121 12.0
55.3268 9.0
55.3416 16.0
55.3564 12.0
55.3712 12.0
55.3859 12.0
55.4007 16.0
55.4155 17.0
55.4302 15.0
55.445 10.0
55.4598 12.0
55.4746 12.0
55.4893 18.0
55.5041 11.0
55.5189 11.0
55.5336 10.0
55.5484 6.0
55.5632 18.0
55.578 10.0
55.5927 11.0
55.6075 13.0
55.6223 12.0
55.637 18.0
55.6518 15.0
55.6666 15.0
55.6814 13.0
55.6961 13.0
55.7109 14.0
55.7257 12.0
55.7404 9.0
55.7552 12.0
55.77 10.0
55.7848 19.0
55.7995 9.0
55.8143 16.0
55.8291 15.0
55.8438 11.0
55.8586 8.0
55.8734 16.0
55.8882 9.0
55.9029 9.0
55.9177 11.0
55.9325 15.0
55.9472 14.0
55.962 7.0
55.9768 12.0
55.9916 14.0
56.0063 8.0
56.0211 8.0
56.0359 10.0
56.0506 11.0
56.0654 13.0
56.0802 16.0
56.095 9.0
56.1097 13.0
56.1245 8.0
56.1393 13.0
56.154 6.0
56.1688 10.0
56.1836 11.0
56.1984 14.0
56.2131 9.0
56.2279 9.0
56.2427 15.0
56.2574 8.0
56.2722 17.0
56.287 11.0
56.3018 7.0
56.3165 11.0
56.3313 8.0
56.3461 14.0
56.3608 12.0
56.3756 9.0
56.3904 7.0
56.4052 8.0
56.4199 26.0
56.4347 5.0
56.4495 11.0
56.4642 7.0
56.479 15.0
56.4938 12.0
56.5086 11.0
56.5233 15.0
56.5381 10.0
56.5529 8.0
56.5676 13.0
56.5824 9.0
56.5972 19.0
56.612 14.0
56.6267 8.0
56.6415 12.0
56.6563 9.0
56.671 14.0
56.6858 4.0
56.7006 5.0
56.7154 9.0
56.7301 16.0
56.7449 13.0
56.7597 11.0
56.7745 19.0
56.7892 12.0
56.804 7.0
56.8188 8.0
56.8335 13.0
56.8483 15.0
56.8631 13.0
56.8779 13.0
56.8926 13.0
56.9074 13.0
56.9222 12.0
56.9369 17.0
56.9517 12.0
56.9665 10.0
56.9813 11.0
56.996 9.0
57.0108 17.0
57.0256 8.0
57.0403 7.0
57.0551 18.0
57.0699 11.0
57.0847 15.0
57.0994 11.0
57.1142 17.0
57.129 14.0
57.1437 15.0
57.1585 12.0
57.1733 18.0
57.1881 12.0
57.2028 6.0
57.2176 25.0
57.2324 24.0
57.2471 20.0
57.2619 21.0
57.2767 24.0
57.2915 18.0
57.3062 26.0
57.321 19.0
57.3358 23.0
57.3505 25.0
57.3653 35.0
57.3801 25.0
57.3949 21.0
57.4096 16.0
57.4244 24.0
57.4392 24.0
57.4539 26.0
57.4687 22.0
57.4835 31.0
57.4983 27.0
57.513 26.0
57.5278 20.0
57.5426 26.0
57.5573 36.0
57.5721 30.0
57.5869 31.0
57.6017 29.0
57.6164 25.0
57.6312 22.0
57.646 25.0
57.6607 15.0
57.6755 28.0
57.6903 33.0
57.7051 22.0
57.7198 13.0
57.7346 29.0
57.7494 24.0
57.7641 22.0
57.7789 18.0
57.7937 20.0
57.8085 16.0
57.8232 15.0
57.838 14.0
57.8528 16.0
57.8675 22.0
57.8823 17.0
57.8971 14.0
57.9119 16.0
57.9266 18.0
57.9414 13.0
57.9562 12.0
57.9709 12.0
57.9857 11.0
58.0005 10.0
58.0153 15.0
58.03 18.0
58.0448 12.0
58.0596 17.0
58.0743 8.0
58.0891 16.0
58.1039 16.0
58.1187 18.0
58.1334 23.0
58.1482 14.0
58.163 13.0
58.1777 10.0
58.1925 6.0
58.2073 15.0
58.2221 13.0
58.2368 8.0
58.2516 8.0
58.2664 16.0
58.2812 13.0
58.2959 13.0
58.3107 17.0
58.3255 14.0
58.3402 9.0
58.355 9.0
58.3698 11.0
58.3846 18.0
58.3993 19.0
58.4141 11.0
58.4289 14.0
58.4436 16.0
58.4584 14.0
58.4732 18.0
58.488 16.0
58.5027 16.0
58.5175 13.0
58.5323 17.0
58.547 15.0
58.5618 10.0
58.5766 14.0
58.5914 11.0
58.6061 13.0
58.6209 14.0
58.6357 10.0
58.6504 18.0
58.6652 16.0
58.68 13.0
58.6948 12.0
58.7095 7.0
58.7243 13.0
58.7391 15.0
58.7538 10.0
58.7686 6.0
58.7834 13.0
58.7982 7.0
58.8129 14.0
58.8277 17.0
58.8425 7.0
58.8572 16.0
58.872 12.0
58.8868 11.0
58.9016 12.0
58.9163 17.0
58.9311 10.0
58.9459 11.0
58.9606 14.0
58.9754 21.0
58.9902 17.0
59.005 11.0
59.0197 14.0
59.0345 17.0
59.0493 16.0
59.064 10.0
59.0788 14.0
59.0936 15.0
59.1084 14.0
59.1231 21.0
59.1379 10.0
59.1527 14.0
59.1674 10.0
59.1822 12.0
59.197 16.0
59.2118 11.0
59.2265 12.0
59.2413 12.0
59.2561 15.0
59.2708 14.0
59.2856 11.0
59.3004 7.0
59.3152 10.0
59.3299 7.0
59.3447 11.0
59.3595 15.0
59.3742 10.0
59.389 15.0
59.4038 14.0
59.4186 10.0
59.4333 18.0
59.4481 16.0
59.4629 13.0
59.4776 8.0
59.4924 13.0
59.5072 11.0
59.522 16.0
59.5367 10.0
59.5515 14.0
59.5663 17.0
59.581 11.0
59.5958 6.0
59.6106 12.0
59.6254 10.0
59.6401 23.0
59.6549 16.0
59.6697 7.0
59.6844 20.0
59.6992 10.0
59.714 4.0
59.7288 17.0
59.7435 9.0
59.7583 7.0
59.7731 9.0
59.7878 10.0
59.8026 12.0
59.8174 18.0
59.8322 16.0
59.8469 18.0
59.8617 15.0
59.8765 14.0
59.8913 13.0
59.906 15.0
59.9208 12.0
59.9356 15.0
59.9503 13.0
59.9651 16.0
59.9799 15.0
59.9947 14.0
60.0094 17.0
60.0242 12.0
60.039 9.0
60.0537 14.0
60.0685 17.0
60.0833 12.0
60.0981 10.0
60.1128 8.0
60.1276 13.0
60.1424 12.0
60.1571 19.0
60.1719 18.0
60.1867 10.0
60.2015 11.0
60.2162 16.0
60.231 19.0
60.2458 23.0
60.2605 21.0
60.2753 20.0
60.2901 22.0
60.3049 16.0
60.3196 18.0
60.3344 16.0
60.3492 16.0
60.3639 17.0
60.3787 21.0
60.3935 19.0
60.4083 22.0
60.423 23.0
60.4378 17.0
60.4526 20.0
60.4673 21.0
60.4821 22.0
60.4969 18.0
60.5117 21.0
60.5264 18.0
60.5412 28.0
60.556 24.0
60.5707 25.0
60.5855 17.0
60.6003 21.0
60.6151 21.0
60.6298 26.0
60.6446 27.0
60.6594 32.0
60.6741 44.0
60.6889 56.0
60.7037 54.0
60.7185 86.0
60.7332 118.0
60.748 201.0
60.7628 450.0
60.7775 648.0
60.7923 673.0
60.8071 616.0
60.8219 464.0
60.8366 334.0
60.8514 277.0
60.8662 229.0
60.8809 159.0
60.8957 146.0
60.9105 120.0
60.9253 104.0
60.94 59.0
60.9548 45.0
60.9696 41.0
60.9843 41.0
60.9991 27.0
61.0139 43.0
61.0287 43.0
61.0434 31.0
61.0582 19.0
61.073 30.0
61.0877 29.0
61.1025 33.0
61.1173 30.0
61.1321 23.0
61.1468 23.0
61.1616 24.0
61.1764 31.0
61.1911 23.0
61.2059 25.0
61.2207 25.0
61.2355 11.0
61.2502 17.0
61.265 20.0
61.2798 22.0
61.2945 17.0
61.3093 20.0
61.3241 28.0
61.3389 21.0
61.3536 27.0
61.3684 28.0
61.3832 25.0
61.398 17.0
61.4127 32.0
61.4275 20.0
61.4423 18.0
61.457 22.0
61.4718 20.0
61.4866 17.0
61.5014 23.0
61.5161 25.0
61.5309 19.0
61.5457 21.0
61.5604 25.0
61.5752 28.0
61.59 17.0
61.6048 21.0
61.6195 20.0
61.6343 21.0
61.6491 17.0
61.6638 29.0
61.6786 25.0
61.6934 18.0
61.7082 24.0
61.7229 22.0
61.7377 15.0
61.7525 27.0
61.7672 21.0
61.782 31.0
61.7968 26.0
61.8116 22.0
61.8263 24.0
61.8411 20.0
61.8559 21.0
61.8706 18.0
61.8854 21.0
61.9002 17.0
61.915 36.0
61.9297 31.0
61.9445 22.0
61.9593 25.0
61.974 19.0
61.9888 15.0
62.0036 27.0
62.0184 25.0
62.0331 22.0
62.0479 17.0
62.0627 30.0
62.0774 34.0
62.0922 20.0
62.107 25.0
62.1218 23.0
62.1365 28.0
62.1513 34.0
62.1661 29.0
62.1808 31.0
62.1956 27.0
62.2104 27.0
62.2252 28.0
62.2399 24.0
62.2547 27.0
62.2695 32.0
62.2842 37.0
62.299 30.0
62.3138 39.0
62.3286 24.0
62.3433 30.0
62.3581 32.0
62.3729 30.0
62.3876 30.0
62.4024 23.0
62.4172 39.0
62.432 32.0
62.4467 40.0
62.4615 29.0
62.4763 30.0
62.491 36.0
62.5058 32.0
62.5206 44.0
62.5354 33.0
62.5501 35.0
62.5649 31.0
62.5797 32.0
62.5944 33.0
62.6092 34.0
62.624 39.0
62.6388 29.0
62.6535 32.0
62.6683 45.0
62.6831 61.0
62.6978 46.0
62.7126 40.0
62.7274 41.0
62.7422 36.0
62.7569 48.0
62.7717 40.0
62.7865 45.0
62.8012 43.0
62.816 36.0
62.8308 51.0
62.8456 48.0
62.8603 52.0
62.8751 52.0
62.8899 45.0
62.9047 55.0
62.9194 52.0
62.9342 49.0
62.949 58.0
62.9637 55.0
62.9785 52.0
62.9933 63.0
63.0081 62.0
63.0228 46.0
63.0376 50.0
63.0524 74.0
63.0671 59.0
63.0819 68.0
63.0967 63.0
63.1115 53.0
63.1262 75.0
63.141 73.0
63.1558 70.0
63.1705 71.0
63.1853 84.0
63.2001 72.0
63.2149 76.0
63.2296 84.0
63.2444 62.0
63.2592 92.0
63.2739 93.0
63.2887 96.0
63.3035 83.0
63.3183 87.0
63.333 104.0
63.3478 105.0
63.3626 104.0
63.3773 113.0
63.3921 104.0
63.4069 125.0
63.4217 127.0
63.4364 128.0
63.4512 111.0
63.466 125.0
63.4807 132.0
63.4955 132.0
63.5103 161.0
63.5251 167.0
63.5398 152.0
63.5546 144.0
63.5694 151.0
63.5841 188.0
63.5989 222.0
63.6137 209.0
63.6285 189.0
63.6432 206.0
63.658 234.0
63.6728 261.0
63.6875 276.0
63.7023 272.0
63.7171 292.0
63.7319 339.0
63.7466 338.0
63.7614 343.0
63.7762 415.0
63.7909 426.0
63.8057 434.0
63.8205 454.0
63.8353 500.0
63.85 489.0
63.8648 579.0
63.8796 619.0
63.8943 613.0
63.9091 663.0
63.9239 701.0
63.9387 822.0
63.9534 827.0
63.9682 984.0
63.983 968.0
63.9977 1066.0
64.0125 1171.0
64.0273 1233.0
64.0421 1348.0
64.0568 1449.0
64.0716 1574.0
64.0864 1686.0
64.1011 1729.0
64.1159 1900.0
64.1307 2080.0
64.1455 2184.0
64.1602 2400.0
64.175 2488.0
64.1898 2562.0
64.2045 2857.0
64.2193 3030.0
64.2341 3185.0
64.2489 3256.0
64.2636 3461.0
64.2784 3549.0
64.2932 3534.0
64.3079 3723.0
64.3227 3791.0
64.3375 3820.0
64.3523 3780.0
64.367 3779.0
64.3818 3790.0
64.3966 3623.0
64.4114 3533.0
64.4261 3536.0
64.4409 3324.0
64.4557 3070.0
64.4704 3027.0
64.4852 3073.0
64.5 2905.0
64.5148 2688.0
64.5295 2567.0
64.5443 2517.0
64.5591 2277.0
64.5738 2214.0
64.5886 2004.0
64.6034 1833.0
64.6182 1687.0
64.6329 1626.0
64.6477 1436.0
64.6625 1386.0
64.6772 1366.0
64.692 1155.0
64.7068 1100.0
64.7216 1014.0
64.7363 939.0
64.7511 926.0
64.7659 824.0
64.7806 782.0
64.7954 738.0
64.8102 720.0
64.825 610.0
64.8397 572.0
64.8545 563.0
64.8693 520.0
64.884 536.0
64.8988 494.0
64.9136 473.0
64.9284 436.0
64.9431 418.0
64.9579 381.0
64.9727 392.0
64.9874 357.0
65.0022 359.0
65.017 350.0
65.0318 297.0
65.0465 302.0
65.0613 281.0
65.0761 255.0
65.0908 278.0
65.1056 240.0
65.1204 245.0
65.1352 233.0
65.1499 202.0
65.1647 184.0
65.1795 181.0
65.1942 180.0
65.209 162.0
65.2238 180.0
65.2386 167.0
65.2533 158.0
65.2681 164.0
65.2829 150.0
65.2976 158.0
65.3124 130.0
65.3272 162.0
65.342 128.0
65.3567 144.0
65.3715 128.0
65.3863 117.0
65.401 125.0
65.4158 103.0
65.4306 131.0
65.4454 100.0
65.4601 109.0
65.4749 113.0
65.4897 95.0
65.5044 97.0
65.5192 105.0
65.534 85.0
65.5488 80.0
65.5635 102.0
65.5783 106.0
65.5931 87.0
65.6078 83.0
65.6226 77.0
65.6374 66.0
65.6522 90.0
65.6669 83.0
65.6817 78.0
65.6965 77.0
65.7112 77.0
65.726 58.0
65.7408 87.0
65.7556 66.0
65.7703 71.0
65.7851 83.0
65.7999 78.0
65.8146 67.0
65.8294 73.0
65.8442 68.0
65.859 75.0
65.8737 69.0
65.8885 74.0
65.9033 68.0
65.9181 75.0
65.9328 67.0
65.9476 82.0
65.9624 75.0
65.9771 58.0
65.9919 76.0
66.0067 68.0
66.0215 83.0
66.0362 78.0
66.051 77.0
66.0658 62.0
66.0805 65.0
66.0953 72.0
66.1101 67.0
66.1249 76.0
66.1396 73.0
66.1544 76.0
66.1692 72.0
66.1839 84.0
66.1987 71.0
66.2135 66.0
66.2283 73.0
66.243 80.0
66.2578 77.0
66.2726 73.0
66.2873 109.0
66.3021 78.0
66.3169 81.0
66.3317 90.0
66.3464 91.0
66.3612 80.0
66.376 91.0
66.3907 85.0
66.4055 84.0
66.4203 88.0
66.4351 100.0
66.4498 89.0
66.4646 86.0
66.4794 84.0
66.4941 95.0
66.5089 88.0
66.5237 88.0
66.5385 116.0
66.5532 98.0
66.568 90.0
66.5828 87.0
66.5975 104.0
66.6123 108.0
66.6271 107.0
66.6419 114.0
66.6566 109.0
66.6714 110.0
66.6862 95.0
66.7009 90.0
66.7157 109.0
66.7305 142.0
66.7453 110.0
66.76 118.0
66.7748 120.0
66.7896 106.0
66.8043 106.0
66.8191 103.0
66.8339 115.0
66.8487 121.0
66.8634 141.0
66.8782 131.0
66.893 142.0
66.9077 131.0
66.9225 117.0
66.9373 128.0
66.9521 145.0
66.9668 138.0
66.9816 123.0
66.9964 157.0
67.0111 162.0
67.0259 133.0
67.0407 153.0
67.0555 148.0
67.0702 158.0
67.085 145.0
67.0998 168.0
67.1145 152.0
67.1293 175.0
67.1441 158.0
67.1589 170.0
67.1736 148.0
67.1884 150.0
67.2032 184.0
67.2179 184.0
67.2327 190.0
67.2475 178.0
67.2623 202.0
67.277 203.0
67.2918 214.0
67.3066 185.0
67.3213 217.0
67.3361 207.0
67.3509 266.0
67.3657 275.0
67.3804 265.0
67.3952 272.0
67.41 279.0
67.4248 299.0
67.4395 291.0
67.4543 302.0
67.4691 305.0
67.4838 320.0
67.4986 305.0
67.5134 327.0
67.5282 352.0
67.5429 386.0
67.5577 355.0
67.5725 376.0
67.5872 371.0
67.602 450.0
67.6168 476.0
67.6316 451.0
67.6463 520.0
67.6611 565.0
67.6759 645.0
67.6906 711.0
67.7054 790.0
67.7202 926.0
67.735 1058.0
67.7497 1195.0
67.7645 1272.0
67.7793 1359.0
67.794 1473.0
67.8088 1514.0
67.8236 1494.0
67.8384 1508.0
67.8531 1420.0
67.8679 1396.0
67.8827 1409.0
67.8974 1505.0
67.9122 1656.0
67.927 1774.0
67.9418 2016.0
67.9565 2342.0
67.9713 2821.0
67.9861 3516.0
68.0008 4468.0
68.0156 5595.0
68.0304 7722.0
68.0452 11430.0
68.0599 19602.0
68.0747 42191.0
68.0895 100109.0
68.1042 144752.0
68.119 154181.0
68.1338 123643.0
68.1486 63002.0
68.1633 30960.0
68.1781 17262.0
68.1929 11134.0
68.2076 8514.0
68.2224 8074.0
68.2372 9155.0
68.252 12951.0
68.2667 23865.0
68.2815 48617.0
68.2963 70701.0
68.311 76307.0
68.3258 62933.0
68.3406 36019.0
68.3554 18037.0
68.3701 9964.0
68.3849 6135.0
68.3997 4389.0
68.4144 3248.0
68.4292 2721.0
68.444 2273.0
68.4588 1990.0
68.4735 1732.0
68.4883 1653.0
68.5031 1429.0
68.5178 1247.0
68.5326 1155.0
68.5474 1130.0
68.5622 979.0
68.5769 910.0
68.5917 857.0
68.6065 798.0
68.6212 698.0
68.636 713.0
68.6508 701.0
68.6656 687.0
68.6803 606.0
68.6951 592.0
68.7099 545.0
68.7246 522.0
68.7394 517.0
68.7542 498.0
68.769 475.0
68.7837 433.0
68.7985 368.0
68.8133 376.0
68.828 424.0
68.8428 400.0
68.8576 348.0
68.8724 361.0
68.8871 317.0
68.9019 338.0
68.9167 347.0
68.9315 330.0
68.9462 329.0
68.961 302.0
68.9758 315.0
68.9905 280.0
69.0053 296.0
69.0201 288.0
69.0349 214.0
69.0496 263.0
69.0644 268.0
69.0792 216.0
69.0939 214.0
69.1087 203.0
69.1235 176.0
69.1383 198.0
69.153 190.0
69.1678 189.0
69.1826 197.0
69.1973 202.0
69.2121 187.0
69.2269 163.0
69.2417 163.0
69.2564 169.0
69.2712 172.0
69.286 180.0
69.3007 163.0
69.3155 151.0
69.3303 144.0
69.3451 173.0
69.3598 127.0
69.3746 120.0
69.3894 131.0
69.4041 128.0
69.4189 116.0
69.4337 111.0
69.4485 106.0
69.4632 129.0
69.478 109.0
69.4928 124.0
69.5075 115.0
69.5223 97.0
69.5371 106.0
69.5519 87.0
69.5666 93.0
69.5814 80.0
69.5962 102.0
69.6109 85.0
69.6257 78.0
69.6405 80.0
69.6553 81.0
69.67 83.0
69.6848 79.0
69.6996 78.0
69.7143 72.0
69.7291 81.0
69.7439 80.0
69.7587 92.0
69.7734 79.0
69.7882 74.0
69.803 67.0
69.8177 75.0
69.8325 56.0
69.8473 54.0
69.8621 73.0
69.8768 53.0
69.8916 49.0
69.9064 63.0
69.9211 65.0
69.9359 72.0
69.9507 51.0
69.9655 64.0
69.9802 49.0
69.995 53.0
70.0098 67.0
70.0245 60.0
70.0393 49.0
70.0541 49.0
70.0689 64.0
70.0836 50.0
70.0984 39.0
70.1132 34.0
70.1279 52.0
70.1427 46.0
70.1575 43.0
70.1723 41.0
70.187 40.0
70.2018 41.0
70.2166 47.0
70.2313 45.0
70.2461 40.0
70.2609 42.0
70.2757 35.0
70.2904 32.0
70.3052 46.0
70.32 39.0
70.3347 33.0
70.3495 39.0
70.3643 34.0
70.3791 37.0
70.3938 38.0
70.4086 46.0
70.4234 31.0
70.4382 33.0
70.4529 45.0
70.4677 24.0
70.4825 33.0
70.4972 44.0
70.512 30.0
70.5268 38.0
70.5416 27.0
70.5563 34.0
70.5711 24.0
70.5859 27.0
70.6006 29.0
70.6154 34.0
70.6302 43.0
70.645 26.0
70.6597 25.0
70.6745 22.0
70.6893 41.0
70.704 31.0
70.7188 35.0
70.7336 23.0
70.7484 37.0
70.7631 28.0
70.7779 35.0
70.7927 33.0
70.8074 25.0
70.8222 18.0
70.837 34.0
70.8518 35.0
70.8665 31.0
70.8813 24.0
70.8961 23.0
70.9108 36.0
70.9256 32.0
70.9404 30.0
70.9552 29.0
70.9699 32.0
70.9847 30.0
70.9995 25.0
71.0142 28.0
71.029 22.0
71.0438 25.0
71.0586 17.0
71.0733 26.0
71.0881 24.0
71.1029 21.0
71.1176 29.0
71.1324 26.0
71.1472 25.0
71.162 22.0
71.1767 19.0
71.1915 24.0
71.2063 36.0
71.221 20.0
71.2358 37.0
71.2506 31.0
71.2654 18.0
71.2801 26.0
71.2949 30.0
71.3097 17.0
71.3244 24.0
71.3392 22.0
71.354 25.0
71.3688 15.0
71.3835 27.0
71.3983 17.0
71.4131 20.0
71.4278 18.0
71.4426 24.0
71.4574 22.0
71.4722 19.0
71.4869 19.0
71.5017 19.0
71.5165 17.0
71.5312 17.0
71.546 24.0
71.5608 19.0
71.5756 23.0
71.5903 18.0
71.6051 21.0
71.6199 18.0
71.6346 21.0
71.6494 19.0
71.6642 21.0
71.679 19.0
71.6937 16.0
71.7085 25.0
71.7233 22.0
71.738 19.0
71.7528 13.0
71.7676 19.0
71.7824 15.0
71.7971 17.0
71.8119 17.0
71.8267 27.0
71.8414 21.0
71.8562 18.0
71.871 21.0
71.8858 15.0
71.9005 26.0
71.9153 18.0
71.9301 17.0
71.9449 11.0
71.9596 22.0
71.9744 20.0
71.9892 15.0
72.0039 16.0
72.0187 13.0
72.0335 10.0
72.0483 25.0
72.063 21.0
72.0778 20.0
72.0926 21.0
72.1073 17.0
72.1221 17.0
72.1369 22.0
72.1517 22.0
72.1664 26.0
72.1812 15.0
72.196 21.0
72.2107 22.0
72.2255 13.0
72.2403 16.0
72.2551 18.0
72.2698 16.0
72.2846 14.0
72.2994 18.0
72.3141 21.0
72.3289 14.0
72.3437 15.0
72.3585 17.0
72.3732 24.0
72.388 17.0
72.4028 18.0
72.4175 21.0
72.4323 16.0
72.4471 19.0
72.4619 14.0
72.4766 13.0
72.4914 17.0
72.5062 18.0
72.5209 27.0
72.5357 15.0
72.5505 12.0
72.5653 16.0
72.58 11.0
72.5948 12.0
72.6096 20.0
72.6243 11.0
72.6391 11.0
72.6539 15.0
72.6687 21.0
72.6834 19.0
72.6982 11.0
72.713 14.0
72.7277 16.0
72.7425 15.0
72.7573 9.0
72.7721 20.0
72.7868 21.0
72.8016 11.0
72.8164 18.0
72.8311 17.0
72.8459 15.0
72.8607 15.0
72.8755 15.0
72.8902 18.0
72.905 17.0
72.9198 13.0
72.9345 14.0
72.9493 13.0
72.9641 19.0
72.9789 14.0
72.9936 15.0
73.0084 24.0
73.0232 18.0
73.0379 14.0
73.0527 13.0
73.0675 21.0
73.0823 15.0
73.097 18.0
73.1118 12.0
73.1266 11.0
73.1413 14.0
73.1561 13.0
73.1709 18.0
73.1857 16.0
73.2004 24.0
73.2152 17.0
73.23 9.0
73.2447 16.0
73.2595 17.0
73.2743 10.0
73.2891 14.0
73.3038 15.0
73.3186 11.0
73.3334 16.0
73.3481 17.0
73.3629 18.0
73.3777 17.0
73.3925 18.0
73.4072 16.0
73.422 16.0
73.4368 11.0
73.4516 12.0
73.4663 16.0
73.4811 12.0
73.4959 14.0
73.5106 11.0
73.5254 14.0
73.5402 10.0
73.555 20.0
73.5697 4.0
73.5845 14.0
73.5993 8.0
73.614 21.0
73.6288 21.0
73.6436 16.0
73.6584 11.0
73.6731 7.0
73.6879 14.0
73.7027 13.0
73.7174 9.0
73.7322 15.0
73.747 12.0
73.7618 16.0
73.7765 17.0
73.7913 15.0
73.8061 20.0
73.8208 19.0
73.8356 16.0
73.8504 14.0
73.8652 19.0
73.8799 16.0
73.8947 13.0
73.9095 17.0
73.9242 14.0
73.939 13.0
73.9538 19.0
73.9686 15.0
73.9833 6.0
73.9981 19.0
74.0129 10.0
74.0276 16.0
74.0424 6.0
74.0572 16.0
74.072 9.0
74.0867 14.0
74.1015 14.0
74.1163 18.0
74.131 14.0
74.1458 18.0
74.1606 9.0
74.1754 9.0
74.1901 10.0
74.2049 6.0
74.2197 22.0
74.2344 12.0
74.2492 18.0
74.264 15.0
74.2788 14.0
74.2935 19.0
74.3083 14.0
74.3231 8.0
74.3378 11.0
74.3526 9.0
74.3674 11.0
74.3822 21.0
74.3969 13.0
74.4117 16.0
74.4265 11.0
74.4412 14.0
74.456 7.0
74.4708 13.0
74.4856 8.0
74.5003 11.0
74.5151 13.0
74.5299 13.0
74.5446 14.0
74.5594 12.0
74.5742 12.0
74.589 12.0
74.6037 10.0
74.6185 4.0
74.6333 14.0
74.648 9.0
74.6628 11.0
74.6776 9.0
74.6924 16.0
74.7071 18.0
74.7219 13.0
74.7367 20.0
74.7514 4.0
74.7662 18.0
74.781 15.0
74.7958 13.0
74.8105 9.0
74.8253 8.0
74.8401 8.0
74.8548 17.0
74.8696 11.0
74.8844 16.0
74.8992 11.0
74.9139 15.0
74.9287 10.0
74.9435 13.0
74.9583 10.0
74.973 0.0
74.9878 12.0
74.9976 14.0