File: data/W6715/XRD_2ThetaOmega/phi90scan_2th-om_m_Cr2O3_55-75deg_PIXscan_4min_W6715_2.xy
55.0019 14.0
55.0166 10.0
55.0314 10.0
55.0462 10.0
55.0609 10.0
55.0757 6.0
55.0905 12.0
55.1053 15.0
55.12 12.0
55.1348 16.0
55.1496 14.0
55.1643 22.0
55.1791 18.0
55.1939 12.0
55.2087 15.0
55.2234 10.0
55.2382 10.0
55.253 3.0
55.2678 5.0
55.2825 20.0
55.2973 11.0
55.3121 11.0
55.3268 11.0
55.3416 9.0
55.3564 14.0
55.3712 13.0
55.3859 10.0
55.4007 8.0
55.4155 9.0
55.4302 13.0
55.445 14.0
55.4598 10.0
55.4746 9.0
55.4893 6.0
55.5041 13.0
55.5189 20.0
55.5336 13.0
55.5484 10.0
55.5632 11.0
55.578 10.0
55.5927 11.0
55.6075 11.0
55.6223 10.0
55.637 8.0
55.6518 13.0
55.6666 12.0
55.6814 14.0
55.6961 9.0
55.7109 11.0
55.7257 9.0
55.7404 10.0
55.7552 7.0
55.77 13.0
55.7848 9.0
55.7995 6.0
55.8143 16.0
55.8291 18.0
55.8438 17.0
55.8586 6.0
55.8734 14.0
55.8882 14.0
55.9029 14.0
55.9177 14.0
55.9325 13.0
55.9472 9.0
55.962 14.0
55.9768 15.0
55.9916 8.0
56.0063 12.0
56.0211 8.0
56.0359 16.0
56.0506 12.0
56.0654 14.0
56.0802 11.0
56.095 14.0
56.1097 7.0
56.1245 8.0
56.1393 9.0
56.154 13.0
56.1688 8.0
56.1836 18.0
56.1984 8.0
56.2131 5.0
56.2279 7.0
56.2427 7.0
56.2574 13.0
56.2722 14.0
56.287 10.0
56.3018 10.0
56.3165 11.0
56.3313 12.0
56.3461 14.0
56.3608 5.0
56.3756 12.0
56.3904 14.0
56.4052 4.0
56.4199 14.0
56.4347 6.0
56.4495 12.0
56.4642 10.0
56.479 6.0
56.4938 8.0
56.5086 15.0
56.5233 8.0
56.5381 12.0
56.5529 12.0
56.5676 13.0
56.5824 15.0
56.5972 10.0
56.612 20.0
56.6267 11.0
56.6415 15.0
56.6563 13.0
56.671 4.0
56.6858 8.0
56.7006 10.0
56.7154 12.0
56.7301 13.0
56.7449 12.0
56.7597 8.0
56.7745 6.0
56.7892 16.0
56.804 11.0
56.8188 9.0
56.8335 14.0
56.8483 15.0
56.8631 8.0
56.8779 12.0
56.8926 12.0
56.9074 6.0
56.9222 18.0
56.9369 8.0
56.9517 18.0
56.9665 24.0
56.9813 11.0
56.996 10.0
57.0108 13.0
57.0256 19.0
57.0403 14.0
57.0551 14.0
57.0699 14.0
57.0847 18.0
57.0994 11.0
57.1142 18.0
57.129 11.0
57.1437 12.0
57.1585 13.0
57.1733 16.0
57.1881 13.0
57.2028 16.0
57.2176 15.0
57.2324 19.0
57.2471 9.0
57.2619 20.0
57.2767 14.0
57.2915 22.0
57.3062 19.0
57.321 17.0
57.3358 27.0
57.3505 26.0
57.3653 20.0
57.3801 19.0
57.3949 27.0
57.4096 29.0
57.4244 23.0
57.4392 38.0
57.4539 33.0
57.4687 29.0
57.4835 22.0
57.4983 41.0
57.513 29.0
57.5278 36.0
57.5426 22.0
57.5573 23.0
57.5721 17.0
57.5869 20.0
57.6017 23.0
57.6164 26.0
57.6312 26.0
57.646 26.0
57.6607 16.0
57.6755 26.0
57.6903 19.0
57.7051 16.0
57.7198 15.0
57.7346 20.0
57.7494 8.0
57.7641 21.0
57.7789 12.0
57.7937 11.0
57.8085 19.0
57.8232 11.0
57.838 6.0
57.8528 18.0
57.8675 17.0
57.8823 13.0
57.8971 16.0
57.9119 19.0
57.9266 15.0
57.9414 15.0
57.9562 15.0
57.9709 9.0
57.9857 13.0
58.0005 15.0
58.0153 15.0
58.03 22.0
58.0448 11.0
58.0596 10.0
58.0743 18.0
58.0891 12.0
58.1039 19.0
58.1187 11.0
58.1334 7.0
58.1482 9.0
58.163 18.0
58.1777 13.0
58.1925 12.0
58.2073 11.0
58.2221 14.0
58.2368 12.0
58.2516 17.0
58.2664 20.0
58.2812 16.0
58.2959 21.0
58.3107 14.0
58.3255 20.0
58.3402 12.0
58.355 8.0
58.3698 12.0
58.3846 19.0
58.3993 19.0
58.4141 15.0
58.4289 13.0
58.4436 15.0
58.4584 22.0
58.4732 15.0
58.488 8.0
58.5027 13.0
58.5175 12.0
58.5323 13.0
58.547 13.0
58.5618 16.0
58.5766 12.0
58.5914 12.0
58.6061 16.0
58.6209 8.0
58.6357 14.0
58.6504 10.0
58.6652 17.0
58.68 10.0
58.6948 17.0
58.7095 15.0
58.7243 12.0
58.7391 15.0
58.7538 12.0
58.7686 18.0
58.7834 13.0
58.7982 16.0
58.8129 8.0
58.8277 9.0
58.8425 13.0
58.8572 13.0
58.872 5.0
58.8868 12.0
58.9016 16.0
58.9163 18.0
58.9311 7.0
58.9459 13.0
58.9606 7.0
58.9754 7.0
58.9902 7.0
59.005 15.0
59.0197 9.0
59.0345 10.0
59.0493 13.0
59.064 7.0
59.0788 16.0
59.0936 7.0
59.1084 7.0
59.1231 13.0
59.1379 10.0
59.1527 12.0
59.1674 12.0
59.1822 6.0
59.197 8.0
59.2118 9.0
59.2265 12.0
59.2413 16.0
59.2561 11.0
59.2708 21.0
59.2856 15.0
59.3004 12.0
59.3152 10.0
59.3299 12.0
59.3447 5.0
59.3595 10.0
59.3742 15.0
59.389 10.0
59.4038 12.0
59.4186 17.0
59.4333 7.0
59.4481 11.0
59.4629 17.0
59.4776 12.0
59.4924 10.0
59.5072 10.0
59.522 3.0
59.5367 17.0
59.5515 14.0
59.5663 10.0
59.581 12.0
59.5958 14.0
59.6106 12.0
59.6254 13.0
59.6401 14.0
59.6549 11.0
59.6697 12.0
59.6844 6.0
59.6992 6.0
59.714 8.0
59.7288 6.0
59.7435 14.0
59.7583 12.0
59.7731 6.0
59.7878 18.0
59.8026 11.0
59.8174 9.0
59.8322 14.0
59.8469 7.0
59.8617 10.0
59.8765 10.0
59.8913 14.0
59.906 10.0
59.9208 16.0
59.9356 15.0
59.9503 13.0
59.9651 7.0
59.9799 16.0
59.9947 8.0
60.0094 15.0
60.0242 15.0
60.039 13.0
60.0537 7.0
60.0685 14.0
60.0833 11.0
60.0981 14.0
60.1128 13.0
60.1276 10.0
60.1424 11.0
60.1571 12.0
60.1719 12.0
60.1867 10.0
60.2015 20.0
60.2162 15.0
60.231 18.0
60.2458 25.0
60.2605 16.0
60.2753 18.0
60.2901 21.0
60.3049 20.0
60.3196 10.0
60.3344 11.0
60.3492 19.0
60.3639 24.0
60.3787 10.0
60.3935 19.0
60.4083 11.0
60.423 24.0
60.4378 24.0
60.4526 16.0
60.4673 18.0
60.4821 24.0
60.4969 20.0
60.5117 22.0
60.5264 20.0
60.5412 19.0
60.556 20.0
60.5707 17.0
60.5855 18.0
60.6003 19.0
60.6151 18.0
60.6298 28.0
60.6446 27.0
60.6594 33.0
60.6741 32.0
60.6889 40.0
60.7037 63.0
60.7185 106.0
60.7332 153.0
60.748 299.0
60.7628 456.0
60.7775 625.0
60.7923 614.0
60.8071 543.0
60.8219 372.0
60.8366 226.0
60.8514 201.0
60.8662 215.0
60.8809 187.0
60.8957 122.0
60.9105 101.0
60.9253 74.0
60.94 62.0
60.9548 55.0
60.9696 38.0
60.9843 32.0
60.9991 42.0
61.0139 39.0
61.0287 32.0
61.0434 37.0
61.0582 40.0
61.073 24.0
61.0877 24.0
61.1025 27.0
61.1173 30.0
61.1321 25.0
61.1468 27.0
61.1616 21.0
61.1764 27.0
61.1911 17.0
61.2059 20.0
61.2207 37.0
61.2355 19.0
61.2502 21.0
61.265 22.0
61.2798 25.0
61.2945 19.0
61.3093 23.0
61.3241 14.0
61.3389 22.0
61.3536 29.0
61.3684 26.0
61.3832 17.0
61.398 30.0
61.4127 21.0
61.4275 17.0
61.4423 14.0
61.457 28.0
61.4718 19.0
61.4866 19.0
61.5014 18.0
61.5161 24.0
61.5309 18.0
61.5457 14.0
61.5604 26.0
61.5752 14.0
61.59 27.0
61.6048 20.0
61.6195 20.0
61.6343 23.0
61.6491 21.0
61.6638 26.0
61.6786 19.0
61.6934 20.0
61.7082 22.0
61.7229 19.0
61.7377 18.0
61.7525 25.0
61.7672 23.0
61.782 20.0
61.7968 30.0
61.8116 21.0
61.8263 20.0
61.8411 26.0
61.8559 10.0
61.8706 32.0
61.8854 25.0
61.9002 18.0
61.915 23.0
61.9297 23.0
61.9445 25.0
61.9593 22.0
61.974 25.0
61.9888 31.0
62.0036 23.0
62.0184 21.0
62.0331 23.0
62.0479 21.0
62.0627 19.0
62.0774 21.0
62.0922 20.0
62.107 26.0
62.1218 30.0
62.1365 30.0
62.1513 32.0
62.1661 24.0
62.1808 20.0
62.1956 26.0
62.2104 23.0
62.2252 20.0
62.2399 39.0
62.2547 36.0
62.2695 24.0
62.2842 26.0
62.299 29.0
62.3138 31.0
62.3286 26.0
62.3433 27.0
62.3581 26.0
62.3729 21.0
62.3876 35.0
62.4024 28.0
62.4172 33.0
62.432 30.0
62.4467 31.0
62.4615 36.0
62.4763 36.0
62.491 31.0
62.5058 31.0
62.5206 38.0
62.5354 39.0
62.5501 42.0
62.5649 31.0
62.5797 38.0
62.5944 31.0
62.6092 29.0
62.624 31.0
62.6388 29.0
62.6535 31.0
62.6683 34.0
62.6831 30.0
62.6978 37.0
62.7126 44.0
62.7274 33.0
62.7422 37.0
62.7569 43.0
62.7717 52.0
62.7865 37.0
62.8012 40.0
62.816 34.0
62.8308 45.0
62.8456 37.0
62.8603 45.0
62.8751 39.0
62.8899 37.0
62.9047 46.0
62.9194 49.0
62.9342 42.0
62.949 36.0
62.9637 54.0
62.9785 44.0
62.9933 45.0
63.0081 49.0
63.0228 57.0
63.0376 51.0
63.0524 46.0
63.0671 67.0
63.0819 51.0
63.0967 69.0
63.1115 63.0
63.1262 61.0
63.141 71.0
63.1558 78.0
63.1705 66.0
63.1853 70.0
63.2001 81.0
63.2149 74.0
63.2296 83.0
63.2444 70.0
63.2592 70.0
63.2739 67.0
63.2887 83.0
63.3035 84.0
63.3183 90.0
63.333 88.0
63.3478 97.0
63.3626 91.0
63.3773 92.0
63.3921 110.0
63.4069 95.0
63.4217 105.0
63.4364 119.0
63.4512 118.0
63.466 140.0
63.4807 136.0
63.4955 130.0
63.5103 147.0
63.5251 152.0
63.5398 170.0
63.5546 152.0
63.5694 163.0
63.5841 176.0
63.5989 183.0
63.6137 198.0
63.6285 187.0
63.6432 222.0
63.658 231.0
63.6728 212.0
63.6875 218.0
63.7023 293.0
63.7171 293.0
63.7319 316.0
63.7466 356.0
63.7614 341.0
63.7762 382.0
63.7909 404.0
63.8057 443.0
63.8205 431.0
63.8353 478.0
63.85 527.0
63.8648 518.0
63.8796 599.0
63.8943 603.0
63.9091 723.0
63.9239 715.0
63.9387 814.0
63.9534 853.0
63.9682 908.0
63.983 959.0
63.9977 1000.0
64.0125 1063.0
64.0273 1228.0
64.0421 1321.0
64.0568 1372.0
64.0716 1463.0
64.0864 1618.0
64.1011 1727.0
64.1159 1775.0
64.1307 1902.0
64.1455 2136.0
64.1602 2113.0
64.175 2297.0
64.1898 2495.0
64.2045 2659.0
64.2193 2860.0
64.2341 2917.0
64.2489 2984.0
64.2636 3332.0
64.2784 3298.0
64.2932 3462.0
64.3079 3566.0
64.3227 3624.0
64.3375 3753.0
64.3523 3634.0
64.367 3494.0
64.3818 3468.0
64.3966 3446.0
64.4114 3258.0
64.4261 3210.0
64.4409 3074.0
64.4557 2978.0
64.4704 2863.0
64.4852 2799.0
64.5 2611.0
64.5148 2603.0
64.5295 2385.0
64.5443 2249.0
64.5591 2213.0
64.5738 2096.0
64.5886 1914.0
64.6034 1810.0
64.6182 1601.0
64.6329 1496.0
64.6477 1369.0
64.6625 1283.0
64.6772 1166.0
64.692 1103.0
64.7068 1037.0
64.7216 944.0
64.7363 921.0
64.7511 860.0
64.7659 790.0
64.7806 713.0
64.7954 707.0
64.8102 601.0
64.825 594.0
64.8397 581.0
64.8545 532.0
64.8693 538.0
64.884 493.0
64.8988 508.0
64.9136 439.0
64.9284 426.0
64.9431 409.0
64.9579 377.0
64.9727 340.0
64.9874 346.0
65.0022 332.0
65.017 298.0
65.0318 333.0
65.0465 261.0
65.0613 284.0
65.0761 244.0
65.0908 278.0
65.1056 215.0
65.1204 200.0
65.1352 218.0
65.1499 211.0
65.1647 194.0
65.1795 185.0
65.1942 143.0
65.209 180.0
65.2238 146.0
65.2386 157.0
65.2533 145.0
65.2681 154.0
65.2829 131.0
65.2976 142.0
65.3124 125.0
65.3272 110.0
65.342 118.0
65.3567 126.0
65.3715 136.0
65.3863 133.0
65.401 110.0
65.4158 120.0
65.4306 113.0
65.4454 100.0
65.4601 113.0
65.4749 102.0
65.4897 98.0
65.5044 111.0
65.5192 104.0
65.534 94.0
65.5488 93.0
65.5635 98.0
65.5783 72.0
65.5931 82.0
65.6078 87.0
65.6226 83.0
65.6374 81.0
65.6522 80.0
65.6669 75.0
65.6817 88.0
65.6965 83.0
65.7112 64.0
65.726 75.0
65.7408 54.0
65.7556 64.0
65.7703 76.0
65.7851 66.0
65.7999 73.0
65.8146 76.0
65.8294 71.0
65.8442 83.0
65.859 67.0
65.8737 74.0
65.8885 59.0
65.9033 75.0
65.9181 60.0
65.9328 82.0
65.9476 67.0
65.9624 73.0
65.9771 59.0
65.9919 76.0
66.0067 69.0
66.0215 80.0
66.0362 62.0
66.051 79.0
66.0658 65.0
66.0805 59.0
66.0953 63.0
66.1101 73.0
66.1249 74.0
66.1396 66.0
66.1544 83.0
66.1692 64.0
66.1839 64.0
66.1987 59.0
66.2135 77.0
66.2283 74.0
66.243 70.0
66.2578 76.0
66.2726 80.0
66.2873 80.0
66.3021 82.0
66.3169 78.0
66.3317 87.0
66.3464 70.0
66.3612 81.0
66.376 87.0
66.3907 80.0
66.4055 79.0
66.4203 82.0
66.4351 80.0
66.4498 80.0
66.4646 89.0
66.4794 76.0
66.4941 92.0
66.5089 77.0
66.5237 92.0
66.5385 86.0
66.5532 79.0
66.568 87.0
66.5828 82.0
66.5975 89.0
66.6123 98.0
66.6271 93.0
66.6419 96.0
66.6566 106.0
66.6714 89.0
66.6862 96.0
66.7009 93.0
66.7157 121.0
66.7305 110.0
66.7453 110.0
66.76 111.0
66.7748 123.0
66.7896 109.0
66.8043 100.0
66.8191 104.0
66.8339 100.0
66.8487 121.0
66.8634 110.0
66.8782 120.0
66.893 127.0
66.9077 126.0
66.9225 127.0
66.9373 145.0
66.9521 131.0
66.9668 136.0
66.9816 162.0
66.9964 141.0
67.0111 124.0
67.0259 130.0
67.0407 147.0
67.0555 124.0
67.0702 143.0
67.085 147.0
67.0998 152.0
67.1145 156.0
67.1293 145.0
67.1441 175.0
67.1589 144.0
67.1736 174.0
67.1884 162.0
67.2032 185.0
67.2179 166.0
67.2327 185.0
67.2475 192.0
67.2623 177.0
67.277 190.0
67.2918 200.0
67.3066 211.0
67.3213 203.0
67.3361 202.0
67.3509 209.0
67.3657 205.0
67.3804 265.0
67.3952 277.0
67.41 299.0
67.4248 264.0
67.4395 288.0
67.4543 289.0
67.4691 299.0
67.4838 330.0
67.4986 352.0
67.5134 301.0
67.5282 337.0
67.5429 357.0
67.5577 365.0
67.5725 388.0
67.5872 375.0
67.602 412.0
67.6168 428.0
67.6316 454.0
67.6463 502.0
67.6611 525.0
67.6759 630.0
67.6906 695.0
67.7054 776.0
67.7202 889.0
67.735 1127.0
67.7497 1176.0
67.7645 1345.0
67.7793 1410.0
67.794 1420.0
67.8088 1369.0
67.8236 1453.0
67.8384 1383.0
67.8531 1378.0
67.8679 1380.0
67.8827 1426.0
67.8974 1570.0
67.9122 1622.0
67.927 1837.0
67.9418 2055.0
67.9565 2442.0
67.9713 2938.0
67.9861 3607.0
68.0008 4597.0
68.0156 5989.0
68.0304 8565.0
68.0452 13008.0
68.0599 23781.0
68.0747 56674.0
68.0895 117595.0
68.1042 147745.0
68.119 146258.0
68.1338 99559.0
68.1486 47250.0
68.1633 24136.0
68.1781 14086.0
68.1929 9841.0
68.2076 8008.0
68.2224 8146.0
68.2372 9774.0
68.252 15224.0
68.2667 30429.0
68.2815 56616.0
68.2963 72821.0
68.311 73341.0
68.3258 52925.0
68.3406 28293.0
68.3554 14362.0
68.3701 8064.0
68.3849 5418.0
68.3997 3919.0
68.4144 2983.0
68.4292 2526.0
68.444 2139.0
68.4588 1843.0
68.4735 1630.0
68.4883 1496.0
68.5031 1339.0
68.5178 1183.0
68.5326 1153.0
68.5474 1108.0
68.5622 980.0
68.5769 874.0
68.5917 866.0
68.6065 812.0
68.6212 771.0
68.636 737.0
68.6508 681.0
68.6656 633.0
68.6803 619.0
68.6951 586.0
68.7099 584.0
68.7246 526.0
68.7394 527.0
68.7542 445.0
68.769 430.0
68.7837 423.0
68.7985 422.0
68.8133 448.0
68.828 400.0
68.8428 350.0
68.8576 393.0
68.8724 372.0
68.8871 354.0
68.9019 349.0
68.9167 347.0
68.9315 318.0
68.9462 303.0
68.961 312.0
68.9758 280.0
68.9905 330.0
69.0053 348.0
69.0201 289.0
69.0349 266.0
69.0496 281.0
69.0644 268.0
69.0792 261.0
69.0939 202.0
69.1087 210.0
69.1235 206.0
69.1383 211.0
69.153 192.0
69.1678 201.0
69.1826 179.0
69.1973 197.0
69.2121 201.0
69.2269 174.0
69.2417 185.0
69.2564 193.0
69.2712 180.0
69.286 169.0
69.3007 135.0
69.3155 152.0
69.3303 158.0
69.3451 171.0
69.3598 162.0
69.3746 141.0
69.3894 121.0
69.4041 129.0
69.4189 147.0
69.4337 123.0
69.4485 135.0
69.4632 142.0
69.478 142.0
69.4928 140.0
69.5075 112.0
69.5223 118.0
69.5371 113.0
69.5519 112.0
69.5666 104.0
69.5814 116.0
69.5962 106.0
69.6109 95.0
69.6257 102.0
69.6405 118.0
69.6553 105.0
69.67 104.0
69.6848 98.0
69.6996 101.0
69.7143 77.0
69.7291 99.0
69.7439 88.0
69.7587 100.0
69.7734 66.0
69.7882 88.0
69.803 82.0
69.8177 80.0
69.8325 85.0
69.8473 84.0
69.8621 71.0
69.8768 76.0
69.8916 72.0
69.9064 86.0
69.9211 75.0
69.9359 51.0
69.9507 63.0
69.9655 59.0
69.9802 75.0
69.995 60.0
70.0098 53.0
70.0245 61.0
70.0393 54.0
70.0541 68.0
70.0689 53.0
70.0836 57.0
70.0984 59.0
70.1132 55.0
70.1279 49.0
70.1427 45.0
70.1575 59.0
70.1723 45.0
70.187 44.0
70.2018 57.0
70.2166 43.0
70.2313 42.0
70.2461 30.0
70.2609 34.0
70.2757 39.0
70.2904 38.0
70.3052 39.0
70.32 45.0
70.3347 48.0
70.3495 46.0
70.3643 42.0
70.3791 36.0
70.3938 43.0
70.4086 55.0
70.4234 41.0
70.4382 35.0
70.4529 34.0
70.4677 40.0
70.4825 45.0
70.4972 47.0
70.512 42.0
70.5268 54.0
70.5416 36.0
70.5563 36.0
70.5711 29.0
70.5859 25.0
70.6006 34.0
70.6154 41.0
70.6302 35.0
70.645 38.0
70.6597 34.0
70.6745 36.0
70.6893 27.0
70.704 26.0
70.7188 30.0
70.7336 37.0
70.7484 31.0
70.7631 27.0
70.7779 27.0
70.7927 27.0
70.8074 22.0
70.8222 28.0
70.837 32.0
70.8518 37.0
70.8665 28.0
70.8813 24.0
70.8961 32.0
70.9108 28.0
70.9256 35.0
70.9404 23.0
70.9552 22.0
70.9699 31.0
70.9847 22.0
70.9995 30.0
71.0142 21.0
71.029 34.0
71.0438 32.0
71.0586 21.0
71.0733 21.0
71.0881 36.0
71.1029 30.0
71.1176 20.0
71.1324 23.0
71.1472 23.0
71.162 15.0
71.1767 28.0
71.1915 26.0
71.2063 17.0
71.221 33.0
71.2358 21.0
71.2506 27.0
71.2654 24.0
71.2801 26.0
71.2949 16.0
71.3097 24.0
71.3244 28.0
71.3392 30.0
71.354 20.0
71.3688 20.0
71.3835 22.0
71.3983 28.0
71.4131 19.0
71.4278 19.0
71.4426 15.0
71.4574 23.0
71.4722 23.0
71.4869 23.0
71.5017 16.0
71.5165 20.0
71.5312 22.0
71.546 18.0
71.5608 34.0
71.5756 19.0
71.5903 17.0
71.6051 18.0
71.6199 10.0
71.6346 26.0
71.6494 18.0
71.6642 18.0
71.679 21.0
71.6937 18.0
71.7085 19.0
71.7233 24.0
71.738 16.0
71.7528 15.0
71.7676 19.0
71.7824 14.0
71.7971 15.0
71.8119 25.0
71.8267 23.0
71.8414 19.0
71.8562 22.0
71.871 22.0
71.8858 20.0
71.9005 15.0
71.9153 10.0
71.9301 16.0
71.9449 19.0
71.9596 21.0
71.9744 20.0
71.9892 13.0
72.0039 15.0
72.0187 17.0
72.0335 15.0
72.0483 19.0
72.063 21.0
72.0778 12.0
72.0926 20.0
72.1073 18.0
72.1221 21.0
72.1369 20.0
72.1517 20.0
72.1664 20.0
72.1812 15.0
72.196 25.0
72.2107 18.0
72.2255 25.0
72.2403 15.0
72.2551 22.0
72.2698 20.0
72.2846 23.0
72.2994 19.0
72.3141 13.0
72.3289 22.0
72.3437 11.0
72.3585 20.0
72.3732 16.0
72.388 17.0
72.4028 20.0
72.4175 16.0
72.4323 17.0
72.4471 18.0
72.4619 17.0
72.4766 17.0
72.4914 11.0
72.5062 13.0
72.5209 15.0
72.5357 16.0
72.5505 22.0
72.5653 12.0
72.58 17.0
72.5948 13.0
72.6096 19.0
72.6243 22.0
72.6391 18.0
72.6539 15.0
72.6687 19.0
72.6834 19.0
72.6982 15.0
72.713 14.0
72.7277 13.0
72.7425 16.0
72.7573 17.0
72.7721 15.0
72.7868 19.0
72.8016 20.0
72.8164 17.0
72.8311 20.0
72.8459 13.0
72.8607 25.0
72.8755 27.0
72.8902 19.0
72.905 19.0
72.9198 11.0
72.9345 14.0
72.9493 20.0
72.9641 17.0
72.9789 15.0
72.9936 21.0
73.0084 14.0
73.0232 12.0
73.0379 15.0
73.0527 22.0
73.0675 16.0
73.0823 20.0
73.097 17.0
73.1118 16.0
73.1266 18.0
73.1413 8.0
73.1561 17.0
73.1709 13.0
73.1857 15.0
73.2004 21.0
73.2152 17.0
73.23 13.0
73.2447 20.0
73.2595 12.0
73.2743 15.0
73.2891 16.0
73.3038 23.0
73.3186 15.0
73.3334 19.0
73.3481 19.0
73.3629 21.0
73.3777 17.0
73.3925 16.0
73.4072 17.0
73.422 7.0
73.4368 16.0
73.4516 10.0
73.4663 14.0
73.4811 15.0
73.4959 11.0
73.5106 16.0
73.5254 14.0
73.5402 15.0
73.555 16.0
73.5697 15.0
73.5845 8.0
73.5993 8.0
73.614 11.0
73.6288 18.0
73.6436 22.0
73.6584 23.0
73.6731 8.0
73.6879 14.0
73.7027 12.0
73.7174 13.0
73.7322 10.0
73.747 10.0
73.7618 15.0
73.7765 11.0
73.7913 9.0
73.8061 12.0
73.8208 9.0
73.8356 12.0
73.8504 11.0
73.8652 9.0
73.8799 21.0
73.8947 14.0
73.9095 24.0
73.9242 17.0
73.939 15.0
73.9538 12.0
73.9686 7.0
73.9833 10.0
73.9981 10.0
74.0129 20.0
74.0276 15.0
74.0424 8.0
74.0572 19.0
74.072 16.0
74.0867 21.0
74.1015 22.0
74.1163 13.0
74.131 16.0
74.1458 8.0
74.1606 15.0
74.1754 13.0
74.1901 6.0
74.2049 11.0
74.2197 16.0
74.2344 10.0
74.2492 9.0
74.264 15.0
74.2788 14.0
74.2935 6.0
74.3083 15.0
74.3231 13.0
74.3378 12.0
74.3526 15.0
74.3674 15.0
74.3822 12.0
74.3969 12.0
74.4117 13.0
74.4265 8.0
74.4412 6.0
74.456 14.0
74.4708 10.0
74.4856 12.0
74.5003 9.0
74.5151 10.0
74.5299 4.0
74.5446 14.0
74.5594 15.0
74.5742 12.0
74.589 16.0
74.6037 10.0
74.6185 10.0
74.6333 22.0
74.648 11.0
74.6628 16.0
74.6776 15.0
74.6924 12.0
74.7071 11.0
74.7219 11.0
74.7367 12.0
74.7514 11.0
74.7662 15.0
74.781 13.0
74.7958 16.0
74.8105 15.0
74.8253 10.0
74.8401 10.0
74.8548 16.0
74.8696 9.0
74.8844 11.0
74.8992 13.0
74.9139 13.0
74.9287 5.0
74.9435 13.0
74.9583 20.0
74.973 11.0
74.9878 12.0
74.9976 18.0