File: data/W6715/XRD_2ThetaOmega/W6715_absolute_2th-om_58-72deg-20min_1.xy
58.0028 280.0
58.0127 255.0
58.0225 258.0
58.0324 264.0
58.0422 299.0
58.0521 307.0
58.0619 260.0
58.0718 264.0
58.0816 247.0
58.0915 236.0
58.1013 265.0
58.1112 258.0
58.121 236.0
58.1309 257.0
58.1407 249.0
58.1505 236.0
58.1604 204.0
58.1702 255.0
58.1801 269.0
58.1899 258.0
58.1998 245.0
58.2096 240.0
58.2195 214.0
58.2293 235.0
58.2392 257.0
58.249 270.0
58.2589 270.0
58.2687 223.0
58.2786 268.0
58.2884 258.0
58.2983 278.0
58.3081 272.0
58.318 244.0
58.3278 238.0
58.3377 256.0
58.3475 270.0
58.3573 292.0
58.3672 274.0
58.377 276.0
58.3869 241.0
58.3967 228.0
58.4066 260.0
58.4164 240.0
58.4263 263.0
58.4361 274.0
58.446 273.0
58.4558 270.0
58.4657 248.0
58.4755 239.0
58.4854 288.0
58.4952 286.0
58.5051 279.0
58.5149 240.0
58.5248 277.0
58.5346 237.0
58.5445 246.0
58.5543 269.0
58.5642 256.0
58.574 259.0
58.5838 263.0
58.5937 250.0
58.6035 274.0
58.6134 270.0
58.6232 266.0
58.6331 265.0
58.6429 269.0
58.6528 265.0
58.6626 230.0
58.6725 241.0
58.6823 245.0
58.6922 260.0
58.702 255.0
58.7119 257.0
58.7217 230.0
58.7316 249.0
58.7414 265.0
58.7513 261.0
58.7611 231.0
58.771 246.0
58.7808 268.0
58.7906 246.0
58.8005 260.0
58.8103 258.0
58.8202 239.0
58.83 279.0
58.8399 273.0
58.8497 274.0
58.8596 269.0
58.8694 245.0
58.8793 248.0
58.8891 267.0
58.899 271.0
58.9088 262.0
58.9187 247.0
58.9285 231.0
58.9384 291.0
58.9482 273.0
58.9581 274.0
58.9679 235.0
58.9778 244.0
58.9876 244.0
58.9974 271.0
59.0073 257.0
59.0171 238.0
59.027 267.0
59.0368 241.0
59.0467 246.0
59.0565 246.0
59.0664 256.0
59.0762 229.0
59.0861 266.0
59.0959 262.0
59.1058 213.0
59.1156 267.0
59.1255 259.0
59.1353 231.0
59.1452 291.0
59.155 262.0
59.1649 233.0
59.1747 277.0
59.1846 240.0
59.1944 221.0
59.2043 236.0
59.2141 221.0
59.2239 273.0
59.2338 223.0
59.2436 278.0
59.2535 270.0
59.2633 245.0
59.2732 246.0
59.283 257.0
59.2929 249.0
59.3027 240.0
59.3126 236.0
59.3224 239.0
59.3323 256.0
59.3421 247.0
59.352 293.0
59.3618 218.0
59.3717 272.0
59.3815 259.0
59.3914 246.0
59.4012 223.0
59.4111 272.0
59.4209 248.0
59.4307 288.0
59.4406 272.0
59.4504 237.0
59.4603 260.0
59.4701 229.0
59.48 237.0
59.4898 212.0
59.4997 242.0
59.5095 236.0
59.5194 285.0
59.5292 282.0
59.5391 275.0
59.5489 281.0
59.5588 268.0
59.5686 243.0
59.5785 266.0
59.5883 227.0
59.5982 271.0
59.608 241.0
59.6179 264.0
59.6277 265.0
59.6376 267.0
59.6474 265.0
59.6572 267.0
59.6671 256.0
59.6769 285.0
59.6868 271.0
59.6966 264.0
59.7065 226.0
59.7163 269.0
59.7262 282.0
59.736 257.0
59.7459 260.0
59.7557 272.0
59.7656 282.0
59.7754 239.0
59.7853 285.0
59.7951 276.0
59.805 279.0
59.8148 227.0
59.8247 265.0
59.8345 292.0
59.8444 249.0
59.8542 257.0
59.864 244.0
59.8739 261.0
59.8837 278.0
59.8936 235.0
59.9034 256.0
59.9133 267.0
59.9231 290.0
59.933 263.0
59.9428 262.0
59.9527 273.0
59.9625 240.0
59.9724 276.0
59.9822 256.0
59.9921 246.0
60.0019 273.0
60.0118 284.0
60.0216 213.0
60.0315 240.0
60.0413 229.0
60.0512 249.0
60.061 265.0
60.0709 280.0
60.0807 280.0
60.0905 262.0
60.1004 242.0
60.1102 307.0
60.1201 287.0
60.1299 274.0
60.1398 245.0
60.1496 277.0
60.1595 259.0
60.1693 266.0
60.1792 275.0
60.189 257.0
60.1989 264.0
60.2087 301.0
60.2186 240.0
60.2284 290.0
60.2383 284.0
60.2481 303.0
60.258 290.0
60.2678 293.0
60.2777 320.0
60.2875 321.0
60.2973 289.0
60.3072 275.0
60.317 263.0
60.3269 288.0
60.3367 313.0
60.3466 310.0
60.3564 307.0
60.3663 269.0
60.3761 306.0
60.386 276.0
60.3958 294.0
60.4057 282.0
60.4155 278.0
60.4254 278.0
60.4352 294.0
60.4451 273.0
60.4549 267.0
60.4648 290.0
60.4746 291.0
60.4845 317.0
60.4943 285.0
60.5041 260.0
60.514 317.0
60.5238 290.0
60.5337 281.0
60.5435 308.0
60.5534 266.0
60.5632 283.0
60.5731 292.0
60.5829 300.0
60.5928 274.0
60.6026 328.0
60.6125 305.0
60.6223 312.0
60.6322 327.0
60.642 298.0
60.6519 311.0
60.6617 366.0
60.6716 331.0
60.6814 365.0
60.6913 384.0
60.7011 399.0
60.711 402.0
60.7208 438.0
60.7306 503.0
60.7405 559.0
60.7503 761.0
60.7602 931.0
60.77 1184.0
60.7799 1618.0
60.7897 1889.0
60.7996 2305.0
60.8094 2371.0
60.8193 2392.0
60.8291 2246.0
60.839 2032.0
60.8488 1747.0
60.8587 1479.0
60.8685 1371.0
60.8784 1233.0
60.8882 1123.0
60.8981 1196.0
60.9079 1074.0
60.9178 939.0
60.9276 806.0
60.9374 668.0
60.9473 565.0
60.9571 542.0
60.967 485.0
60.9768 447.0
60.9867 443.0
60.9965 401.0
61.0064 389.0
61.0162 406.0
61.0261 383.0
61.0359 370.0
61.0458 382.0
61.0556 380.0
61.0655 358.0
61.0753 347.0
61.0852 403.0
61.095 365.0
61.1049 353.0
61.1147 359.0
61.1246 342.0
61.1344 383.0
61.1443 366.0
61.1541 343.0
61.1639 369.0
61.1738 376.0
61.1836 362.0
61.1935 375.0
61.2033 382.0
61.2132 364.0
61.223 396.0
61.2329 373.0
61.2427 386.0
61.2526 403.0
61.2624 359.0
61.2723 376.0
61.2821 410.0
61.292 417.0
61.3018 417.0
61.3117 402.0
61.3215 408.0
61.3314 367.0
61.3412 398.0
61.3511 426.0
61.3609 406.0
61.3707 419.0
61.3806 351.0
61.3904 406.0
61.4003 382.0
61.4101 401.0
61.42 404.0
61.4298 380.0
61.4397 392.0
61.4495 388.0
61.4594 418.0
61.4692 386.0
61.4791 375.0
61.4889 394.0
61.4988 366.0
61.5086 399.0
61.5185 353.0
61.5283 366.0
61.5382 323.0
61.548 359.0
61.5579 352.0
61.5677 334.0
61.5776 326.0
61.5874 348.0
61.5972 369.0
61.6071 371.0
61.6169 337.0
61.6268 352.0
61.6366 358.0
61.6465 359.0
61.6563 304.0
61.6662 341.0
61.676 338.0
61.6859 329.0
61.6957 332.0
61.7056 327.0
61.7154 361.0
61.7253 320.0
61.7351 350.0
61.745 361.0
61.7548 309.0
61.7647 361.0
61.7745 333.0
61.7844 340.0
61.7942 339.0
61.804 304.0
61.8139 338.0
61.8237 327.0
61.8336 357.0
61.8434 331.0
61.8533 351.0
61.8631 360.0
61.873 301.0
61.8828 343.0
61.8927 346.0
61.9025 330.0
61.9124 351.0
61.9222 359.0
61.9321 312.0
61.9419 316.0
61.9518 325.0
61.9616 342.0
61.9715 333.0
61.9813 323.0
61.9912 310.0
62.001 342.0
62.0108 365.0
62.0207 342.0
62.0305 342.0
62.0404 333.0
62.0502 337.0
62.0601 321.0
62.0699 334.0
62.0798 354.0
62.0896 346.0
62.0995 334.0
62.1093 330.0
62.1192 315.0
62.129 337.0
62.1389 332.0
62.1487 341.0
62.1586 334.0
62.1684 360.0
62.1783 380.0
62.1881 343.0
62.198 336.0
62.2078 340.0
62.2177 347.0
62.2275 345.0
62.2373 383.0
62.2472 343.0
62.257 344.0
62.2669 362.0
62.2767 373.0
62.2866 327.0
62.2964 327.0
62.3063 357.0
62.3161 388.0
62.326 349.0
62.3358 342.0
62.3457 316.0
62.3555 357.0
62.3654 327.0
62.3752 321.0
62.3851 346.0
62.3949 351.0
62.4048 329.0
62.4146 362.0
62.4245 326.0
62.4343 313.0
62.4441 335.0
62.454 352.0
62.4638 376.0
62.4737 355.0
62.4835 345.0
62.4934 359.0
62.5032 378.0
62.5131 367.0
62.5229 356.0
62.5328 341.0
62.5426 356.0
62.5525 376.0
62.5623 334.0
62.5722 379.0
62.582 364.0
62.5919 346.0
62.6017 328.0
62.6116 382.0
62.6214 350.0
62.6313 373.0
62.6411 348.0
62.651 356.0
62.6608 343.0
62.6706 385.0
62.6805 383.0
62.6903 370.0
62.7002 354.0
62.71 384.0
62.7199 348.0
62.7297 383.0
62.7396 368.0
62.7494 411.0
62.7593 392.0
62.7691 388.0
62.779 385.0
62.7888 376.0
62.7987 435.0
62.8085 394.0
62.8184 397.0
62.8282 367.0
62.8381 388.0
62.8479 360.0
62.8578 403.0
62.8676 392.0
62.8774 413.0
62.8873 405.0
62.8971 428.0
62.907 382.0
62.9168 450.0
62.9267 438.0
62.9365 432.0
62.9464 446.0
62.9562 431.0
62.9661 423.0
62.9759 433.0
62.9858 443.0
62.9956 438.0
63.0055 423.0
63.0153 460.0
63.0252 434.0
63.035 450.0
63.0449 427.0
63.0547 416.0
63.0646 452.0
63.0744 484.0
63.0843 427.0
63.0941 475.0
63.1039 463.0
63.1138 483.0
63.1236 487.0
63.1335 482.0
63.1433 460.0
63.1532 485.0
63.163 501.0
63.1729 507.0
63.1827 515.0
63.1926 521.0
63.2024 488.0
63.2123 482.0
63.2221 532.0
63.232 505.0
63.2418 522.0
63.2517 530.0
63.2615 527.0
63.2714 579.0
63.2812 525.0
63.2911 590.0
63.3009 548.0
63.3107 620.0
63.3206 548.0
63.3304 572.0
63.3403 555.0
63.3501 580.0
63.36 607.0
63.3698 648.0
63.3797 607.0
63.3895 582.0
63.3994 697.0
63.4092 649.0
63.4191 597.0
63.4289 673.0
63.4388 690.0
63.4486 659.0
63.4585 713.0
63.4683 700.0
63.4782 719.0
63.488 749.0
63.4979 720.0
63.5077 751.0
63.5175 742.0
63.5274 751.0
63.5372 834.0
63.5471 826.0
63.5569 835.0
63.5668 895.0
63.5766 891.0
63.5865 847.0
63.5963 921.0
63.6062 912.0
63.616 922.0
63.6259 993.0
63.6357 987.0
63.6456 999.0
63.6554 1121.0
63.6653 1072.0
63.6751 1059.0
63.685 1146.0
63.6948 1248.0
63.7047 1198.0
63.7145 1285.0
63.7244 1331.0
63.7342 1334.0
63.744 1359.0
63.7539 1430.0
63.7637 1536.0
63.7736 1513.0
63.7834 1551.0
63.7933 1630.0
63.8031 1676.0
63.813 1780.0
63.8228 1795.0
63.8327 1891.0
63.8425 1935.0
63.8524 2013.0
63.8622 2180.0
63.8721 2170.0
63.8819 2262.0
63.8918 2482.0
63.9016 2489.0
63.9115 2704.0
63.9213 2782.0
63.9312 2814.0
63.941 2942.0
63.9508 3084.0
63.9607 3280.0
63.9705 3492.0
63.9804 3548.0
63.9902 3682.0
64.0001 3898.0
64.0099 4067.0
64.0198 4331.0
64.0296 4289.0
64.0395 4653.0
64.0493 4900.0
64.0592 5100.0
64.069 5390.0
64.0789 5524.0
64.0887 5804.0
64.0986 6173.0
64.1084 6463.0
64.1183 6693.0
64.1281 6890.0
64.138 7437.0
64.1478 7717.0
64.1577 8114.0
64.1675 8538.0
64.1773 8920.0
64.1872 9071.0
64.197 9496.0
64.2069 9987.0
64.2167 10516.0
64.2266 10706.0
64.2364 11051.0
64.2463 11629.0
64.2561 11869.0
64.266 12381.0
64.2758 12764.0
64.2857 12935.0
64.2955 13521.0
64.3054 13836.0
64.3152 14075.0
64.3251 14287.0
64.3349 14598.0
64.3448 14778.0
64.3546 14763.0
64.3645 15167.0
64.3743 15263.0
64.3841 14908.0
64.394 14828.0
64.4038 14653.0
64.4137 14457.0
64.4235 14385.0
64.4334 14053.0
64.4432 13674.0
64.4531 13619.0
64.4629 13195.0
64.4728 12951.0
64.4826 12728.0
64.4925 12390.0
64.5023 12070.0
64.5122 11849.0
64.522 11462.0
64.5319 11397.0
64.5417 11101.0
64.5516 10798.0
64.5614 10068.0
64.5713 9691.0
64.5811 9433.0
64.591 9222.0
64.6008 8868.0
64.6106 8522.0
64.6205 8053.0
64.6303 7586.0
64.6402 7209.0
64.65 6972.0
64.6599 6834.0
64.6697 6360.0
64.6796 6181.0
64.6894 5722.0
64.6993 5430.0
64.7091 5270.0
64.719 5089.0
64.7288 4828.0
64.7387 4640.0
64.7485 4458.0
64.7584 4282.0
64.7682 4090.0
64.7781 4168.0
64.7879 3858.0
64.7978 3753.0
64.8076 3679.0
64.8174 3639.0
64.8273 3539.0
64.8371 3514.0
64.847 3447.0
64.8568 3598.0
64.8667 3749.0
64.8765 3878.0
64.8864 4179.0
64.8962 4758.0
64.9061 5260.0
64.9159 5830.0
64.9258 5983.0
64.9356 6154.0
64.9455 5813.0
64.9553 5262.0
64.9652 4727.0
64.975 4093.0
64.9849 3515.0
64.9947 3241.0
65.0046 2886.0
65.0144 2488.0
65.0242 2292.0
65.0341 2157.0
65.0439 1992.0
65.0538 1859.0
65.0636 1707.0
65.0735 1717.0
65.0833 1632.0
65.0932 1567.0
65.103 1530.0
65.1129 1482.0
65.1227 1374.0
65.1326 1395.0
65.1424 1341.0
65.1523 1307.0
65.1621 1309.0
65.172 1268.0
65.1818 1256.0
65.1917 1157.0
65.2015 1155.0
65.2114 1102.0
65.2212 1039.0
65.2311 1090.0
65.2409 1037.0
65.2507 1008.0
65.2606 1046.0
65.2704 957.0
65.2803 961.0
65.2901 969.0
65.3 973.0
65.3098 999.0
65.3197 912.0
65.3295 959.0
65.3394 879.0
65.3492 902.0
65.3591 926.0
65.3689 888.0
65.3788 851.0
65.3886 923.0
65.3985 899.0
65.4083 1001.0
65.4182 1015.0
65.428 1028.0
65.4379 1122.0
65.4477 1315.0
65.4575 1354.0
65.4674 1501.0
65.4772 1325.0
65.4871 1403.0
65.4969 1353.0
65.5068 1296.0
65.5166 1123.0
65.5265 1023.0
65.5363 1004.0
65.5462 892.0
65.556 808.0
65.5659 782.0
65.5757 774.0
65.5856 762.0
65.5954 713.0
65.6053 683.0
65.6151 670.0
65.625 672.0
65.6348 646.0
65.6447 666.0
65.6545 730.0
65.6644 640.0
65.6742 642.0
65.684 609.0
65.6939 630.0
65.7037 575.0
65.7136 599.0
65.7234 647.0
65.7333 588.0
65.7431 591.0
65.753 599.0
65.7628 601.0
65.7727 592.0
65.7825 559.0
65.7924 584.0
65.8022 642.0
65.8121 601.0
65.8219 567.0
65.8318 575.0
65.8416 598.0
65.8515 592.0
65.8613 568.0
65.8712 568.0
65.881 562.0
65.8908 586.0
65.9007 537.0
65.9105 575.0
65.9204 570.0
65.9302 576.0
65.9401 615.0
65.9499 618.0
65.9598 534.0
65.9696 572.0
65.9795 570.0
65.9893 581.0
65.9992 596.0
66.009 588.0
66.0189 587.0
66.0287 560.0
66.0386 581.0
66.0484 625.0
66.0583 601.0
66.0681 609.0
66.078 551.0
66.0878 613.0
66.0977 627.0
66.1075 669.0
66.1173 621.0
66.1272 678.0
66.137 617.0
66.1469 650.0
66.1567 578.0
66.1666 620.0
66.1764 547.0
66.1863 616.0
66.1961 596.0
66.206 601.0
66.2158 591.0
66.2257 584.0
66.2355 574.0
66.2454 598.0
66.2552 663.0
66.2651 595.0
66.2749 656.0
66.2848 634.0
66.2946 677.0
66.3045 622.0
66.3143 630.0
66.3241 653.0
66.334 577.0
66.3438 600.0
66.3537 632.0
66.3635 602.0
66.3734 604.0
66.3832 638.0
66.3931 603.0
66.4029 634.0
66.4128 635.0
66.4226 594.0
66.4325 618.0
66.4423 637.0
66.4522 664.0
66.462 655.0
66.4719 615.0
66.4817 692.0
66.4916 684.0
66.5014 660.0
66.5113 693.0
66.5211 683.0
66.5309 695.0
66.5408 688.0
66.5506 665.0
66.5605 713.0
66.5703 682.0
66.5802 675.0
66.59 735.0
66.5999 680.0
66.6097 691.0
66.6196 694.0
66.6294 703.0
66.6393 685.0
66.6491 709.0
66.659 743.0
66.6688 786.0
66.6787 722.0
66.6885 759.0
66.6984 748.0
66.7082 764.0
66.7181 758.0
66.7279 742.0
66.7378 698.0
66.7476 815.0
66.7574 792.0
66.7673 798.0
66.7771 788.0
66.787 772.0
66.7968 786.0
66.8067 755.0
66.8165 844.0
66.8264 812.0
66.8362 807.0
66.8461 806.0
66.8559 813.0
66.8658 827.0
66.8756 810.0
66.8855 824.0
66.8953 842.0
66.9052 857.0
66.915 852.0
66.9249 858.0
66.9347 899.0
66.9446 920.0
66.9544 863.0
66.9642 906.0
66.9741 859.0
66.9839 849.0
66.9938 899.0
67.0036 854.0
67.0135 931.0
67.0233 955.0
67.0332 929.0
67.043 943.0
67.0529 946.0
67.0627 966.0
67.0726 1012.0
67.0824 963.0
67.0923 969.0
67.1021 1016.0
67.112 1099.0
67.1218 1033.0
67.1317 1063.0
67.1415 1051.0
67.1514 1007.0
67.1612 1078.0
67.1711 1039.0
67.1809 1072.0
67.1907 1074.0
67.2006 1117.0
67.2104 1068.0
67.2203 1195.0
67.2301 1136.0
67.24 1150.0
67.2498 1160.0
67.2597 1163.0
67.2695 1235.0
67.2794 1223.0
67.2892 1263.0
67.2991 1199.0
67.3089 1203.0
67.3188 1247.0
67.3286 1282.0
67.3385 1259.0
67.3483 1357.0
67.3582 1320.0
67.368 1392.0
67.3779 1420.0
67.3877 1433.0
67.3975 1369.0
67.4074 1432.0
67.4172 1446.0
67.4271 1504.0
67.4369 1521.0
67.4468 1565.0
67.4566 1619.0
67.4665 1589.0
67.4763 1589.0
67.4862 1702.0
67.496 1617.0
67.5059 1721.0
67.5157 1742.0
67.5256 1729.0
67.5354 1786.0
67.5453 1866.0
67.5551 1900.0
67.565 1972.0
67.5748 1955.0
67.5847 1910.0
67.5945 2016.0
67.6044 2070.0
67.6142 2205.0
67.624 2170.0
67.6339 2248.0
67.6437 2377.0
67.6536 2462.0
67.6634 2554.0
67.6733 2625.0
67.6831 2826.0
67.693 3012.0
67.7028 3177.0
67.7127 3527.0
67.7225 3814.0
67.7324 4015.0
67.7422 4465.0
67.7521 5053.0
67.7619 5255.0
67.7718 5744.0
67.7816 6036.0
67.7915 6567.0
67.8013 6737.0
67.8112 6840.0
67.821 7025.0
67.8308 6898.0
67.8407 6835.0
67.8505 6858.0
67.8604 6821.0
67.8702 6735.0
67.8801 6787.0
67.8899 6692.0
67.8998 6665.0
67.9096 7165.0
67.9195 7443.0
67.9293 7565.0
67.9392 8172.0
67.949 8786.0
67.9589 9473.0
67.9687 10461.0
67.9786 11789.0
67.9884 13084.0
67.9983 14827.0
68.0081 17084.0
68.018 20059.0
68.0278 23542.0
68.0376 28398.0
68.0475 35411.0
68.0573 45631.0
68.0672 61764.0
68.077 89388.0
68.0869 144486.0
68.0967 259279.0
68.1066 437018.0
68.1164 579951.0
68.1263 653909.0
68.1361 677336.0
68.146 639683.0
68.1558 513864.0
68.1657 333916.0
68.1755 202617.0
68.1854 130023.0
68.1952 87547.0
68.2051 62946.0
68.2149 49869.0
68.2248 42299.0
68.2346 39213.0
68.2445 39280.0
68.2543 42891.0
68.2641 52816.0
68.274 72499.0
68.2838 111345.0
68.2937 179198.0
68.3035 258032.0
68.3134 315630.0
68.3232 343347.0
68.3331 341245.0
68.3429 304667.0
68.3528 232501.0
68.3626 154655.0
68.3725 97907.0
68.3823 63520.0
68.3922 43888.0
68.402 32181.0
68.4119 24912.0
68.4217 20145.0
68.4316 16730.0
68.4414 14949.0
68.4513 12738.0
68.4611 11646.0
68.4709 10580.0
68.4808 9632.0
68.4906 8947.0
68.5005 8228.0
68.5103 7784.0
68.5202 7291.0
68.53 6897.0
68.5399 6486.0
68.5497 6191.0
68.5596 5563.0
68.5694 5406.0
68.5793 5175.0
68.5891 4880.0
68.599 4744.0
68.6088 4607.0
68.6187 4280.0
68.6285 4305.0
68.6384 4042.0
68.6482 3991.0
68.6581 3800.0
68.6679 3584.0
68.6778 3510.0
68.6876 3494.0
68.6974 3346.0
68.7073 3325.0
68.7171 3268.0
68.727 3161.0
68.7368 2969.0
68.7467 2976.0
68.7565 2920.0
68.7664 2864.0
68.7762 2756.0
68.7861 2742.0
68.7959 2613.0
68.8058 2546.0
68.8156 2456.0
68.8255 2457.0
68.8353 2453.0
68.8452 2317.0
68.855 2375.0
68.8649 2257.0
68.8747 2144.0
68.8846 2128.0
68.8944 2198.0
68.9042 2139.0
68.9141 2121.0
68.9239 2145.0
68.9338 2071.0
68.9436 2024.0
68.9535 2054.0
68.9633 1913.0
68.9732 1962.0
68.983 1946.0
68.9929 1932.0
69.0027 1870.0
69.0126 1816.0
69.0224 1883.0
69.0323 1922.0
69.0421 1773.0
69.052 1725.0
69.0618 1672.0
69.0717 1692.0
69.0815 1763.0
69.0914 1628.0
69.1012 1775.0
69.1111 1611.0
69.1209 1671.0
69.1307 1576.0
69.1406 1592.0
69.1504 1641.0
69.1603 1531.0
69.1701 1607.0
69.18 1537.0
69.1898 1505.0
69.1997 1542.0
69.2095 1461.0
69.2194 1444.0
69.2292 1483.0
69.2391 1367.0
69.2489 1392.0
69.2588 1370.0
69.2686 1449.0
69.2785 1370.0
69.2883 1409.0
69.2982 1289.0
69.308 1363.0
69.3179 1294.0
69.3277 1317.0
69.3375 1287.0
69.3474 1243.0
69.3572 1265.0
69.3671 1287.0
69.3769 1244.0
69.3868 1276.0
69.3966 1216.0
69.4065 1219.0
69.4163 1206.0
69.4262 1143.0
69.436 1160.0
69.4459 1165.0
69.4557 1118.0
69.4656 1149.0
69.4754 1124.0
69.4853 1089.0
69.4951 1097.0
69.505 1122.0
69.5148 1151.0
69.5247 1112.0
69.5345 1118.0
69.5443 1027.0
69.5542 1012.0
69.564 980.0
69.5739 997.0
69.5837 1036.0
69.5936 1036.0
69.6034 1008.0
69.6133 974.0
69.6231 974.0
69.633 971.0
69.6428 1001.0
69.6527 1008.0
69.6625 865.0
69.6724 969.0
69.6822 1014.0
69.6921 916.0
69.7019 905.0
69.7118 949.0
69.7216 962.0
69.7315 893.0
69.7413 821.0
69.7512 950.0
69.761 847.0
69.7708 858.0
69.7807 930.0
69.7905 880.0
69.8004 851.0
69.8102 870.0
69.8201 849.0
69.8299 861.0
69.8398 858.0
69.8496 811.0
69.8595 812.0
69.8693 840.0
69.8792 777.0
69.889 811.0
69.8989 748.0
69.9087 785.0
69.9186 814.0
69.9284 803.0
69.9383 755.0
69.9481 738.0
69.958 832.0
69.9678 737.0
69.9776 737.0
69.9875 765.0
69.9973 712.0
70.0072 723.0
70.017 748.0
70.0269 720.0
70.0367 722.0
70.0466 706.0
70.0564 670.0
70.0663 698.0
70.0761 662.0
70.086 644.0
70.0958 695.0
70.1057 685.0
70.1155 657.0
70.1254 639.0
70.1352 626.0
70.1451 589.0
70.1549 607.0
70.1648 618.0
70.1746 612.0
70.1845 578.0
70.1943 624.0
70.2041 603.0
70.214 619.0
70.2238 578.0
70.2337 604.0
70.2435 595.0
70.2534 616.0
70.2632 564.0
70.2731 579.0
70.2829 582.0
70.2928 550.0
70.3026 567.0
70.3125 560.0
70.3223 580.0
70.3322 551.0
70.342 570.0
70.3519 565.0
70.3617 573.0
70.3716 570.0
70.3814 553.0
70.3913 544.0
70.4011 575.0
70.4109 560.0
70.4208 525.0
70.4306 518.0
70.4405 525.0
70.4503 494.0
70.4602 508.0
70.47 496.0
70.4799 525.0
70.4897 577.0
70.4996 516.0
70.5094 483.0
70.5193 469.0
70.5291 494.0
70.539 490.0
70.5488 500.0
70.5587 468.0
70.5685 526.0
70.5784 520.0
70.5882 488.0
70.5981 437.0
70.6079 498.0
70.6178 477.0
70.6276 483.0
70.6374 459.0
70.6473 463.0
70.6571 451.0
70.667 463.0
70.6768 458.0
70.6867 517.0
70.6965 462.0
70.7064 456.0
70.7162 418.0
70.7261 439.0
70.7359 421.0
70.7458 447.0
70.7556 429.0
70.7655 445.0
70.7753 447.0
70.7852 435.0
70.795 460.0
70.8049 442.0
70.8147 416.0
70.8246 427.0
70.8344 426.0
70.8442 400.0
70.8541 428.0
70.8639 416.0
70.8738 424.0
70.8836 398.0
70.8935 400.0
70.9033 380.0
70.9132 400.0
70.923 422.0
70.9329 422.0
70.9427 445.0
70.9526 450.0
70.9624 415.0
70.9723 405.0
70.9821 397.0
70.992 388.0
71.0018 419.0
71.0117 423.0
71.0215 395.0
71.0314 385.0
71.0412 392.0
71.051 396.0
71.0609 435.0
71.0707 363.0
71.0806 397.0
71.0904 429.0
71.1003 412.0
71.1101 354.0
71.12 394.0
71.1298 389.0
71.1397 431.0
71.1495 383.0
71.1594 374.0
71.1692 373.0
71.1791 390.0
71.1889 382.0
71.1988 377.0
71.2086 410.0
71.2185 405.0
71.2283 387.0
71.2382 393.0
71.248 380.0
71.2579 393.0
71.2677 403.0
71.2775 405.0
71.2874 371.0
71.2972 382.0
71.3071 403.0
71.3169 398.0
71.3268 350.0
71.3366 394.0
71.3465 359.0
71.3563 417.0
71.3662 364.0
71.376 339.0
71.3859 341.0
71.3957 374.0
71.4056 367.0
71.4154 358.0
71.4253 391.0
71.4351 370.0
71.445 367.0
71.4548 328.0
71.4647 345.0
71.4745 380.0
71.4843 336.0
71.4942 416.0
71.504 342.0
71.5139 371.0
71.5237 341.0
71.5336 361.0
71.5434 334.0
71.5533 381.0
71.5631 360.0
71.573 386.0
71.5828 366.0
71.5927 350.0
71.6025 329.0
71.6124 363.0
71.6222 381.0
71.6321 367.0
71.6419 369.0
71.6518 358.0
71.6616 371.0
71.6715 360.0
71.6813 409.0
71.6912 351.0
71.701 339.0
71.7108 362.0
71.7207 317.0
71.7305 412.0
71.7404 321.0
71.7502 408.0
71.7601 375.0
71.7699 325.0
71.7798 358.0
71.7896 336.0
71.7995 314.0
71.8093 362.0
71.8192 372.0
71.829 339.0
71.8389 320.0
71.8487 336.0
71.8586 335.0
71.8684 329.0
71.8783 348.0
71.8881 368.0
71.898 364.0
71.9078 325.0
71.9176 314.0
71.9275 375.0
71.9373 336.0
71.9472 356.0
71.957 358.0
71.9669 346.0
71.9767 343.0
71.9866 350.0
71.9964 343.0
71.9989 318.0