File: data/W6933a/XRD_2ThetaOmega/a_scan_2th-om_10-130deg_PIXscan_17min.xy
10.0035 39.0
10.0872 59.0
10.1709 50.0
10.2546 59.0
10.3383 45.0
10.422 40.0
10.5057 47.0
10.5894 45.0
10.6731 53.0
10.7568 34.0
10.8405 62.0
10.9242 42.0
11.0079 42.0
11.0916 58.0
11.1753 47.0
11.259 52.0
11.3428 59.0
11.4265 44.0
11.5102 50.0
11.5939 46.0
11.6776 44.0
11.7613 38.0
11.845 53.0
11.9287 41.0
12.0124 37.0
12.0961 46.0
12.1798 51.0
12.2635 48.0
12.3472 29.0
12.4309 36.0
12.5146 42.0
12.5983 36.0
12.682 38.0
12.7657 38.0
12.8495 42.0
12.9332 40.0
13.0169 47.0
13.1006 36.0
13.1843 36.0
13.268 43.0
13.3517 28.0
13.4354 36.0
13.5191 42.0
13.6028 38.0
13.6865 36.0
13.7702 36.0
13.8539 38.0
13.9376 40.0
14.0213 30.0
14.105 45.0
14.1887 46.0
14.2724 36.0
14.3562 50.0
14.4399 36.0
14.5236 37.0
14.6073 38.0
14.691 53.0
14.7747 35.0
14.8584 42.0
14.9421 29.0
15.0258 39.0
15.1095 36.0
15.1932 32.0
15.2769 29.0
15.3606 34.0
15.4443 45.0
15.528 33.0
15.6117 27.0
15.6954 33.0
15.7791 42.0
15.8629 31.0
15.9466 34.0
16.0303 33.0
16.114 32.0
16.1977 33.0
16.2814 32.0
16.3651 44.0
16.4488 43.0
16.5325 43.0
16.6162 35.0
16.6999 35.0
16.7836 22.0
16.8673 31.0
16.951 31.0
17.0347 37.0
17.1184 35.0
17.2021 27.0
17.2858 42.0
17.3696 36.0
17.4533 38.0
17.537 32.0
17.6207 39.0
17.7044 27.0
17.7881 37.0
17.8718 26.0
17.9555 36.0
18.0392 43.0
18.1229 34.0
18.2066 36.0
18.2903 36.0
18.374 33.0
18.4577 35.0
18.5414 25.0
18.6251 31.0
18.7088 33.0
18.7925 27.0
18.8763 35.0
18.96 28.0
19.0437 20.0
19.1274 26.0
19.2111 31.0
19.2948 27.0
19.3785 30.0
19.4622 31.0
19.5459 32.0
19.6296 22.0
19.7133 29.0
19.797 28.0
19.8807 35.0
19.9644 28.0
20.0481 30.0
20.1318 31.0
20.2155 29.0
20.2992 23.0
20.383 29.0
20.4667 21.0
20.5504 25.0
20.6341 33.0
20.7178 27.0
20.8015 27.0
20.8852 29.0
20.9689 21.0
21.0526 23.0
21.1363 25.0
21.22 32.0
21.3037 34.0
21.3874 28.0
21.4711 23.0
21.5548 33.0
21.6385 25.0
21.7222 39.0
21.8059 28.0
21.8897 32.0
21.9734 29.0
22.0571 24.0
22.1408 24.0
22.2245 21.0
22.3082 26.0
22.3919 27.0
22.4756 31.0
22.5593 23.0
22.643 24.0
22.7267 25.0
22.8104 24.0
22.8941 25.0
22.9778 33.0
23.0615 25.0
23.1452 24.0
23.2289 29.0
23.3126 27.0
23.3964 24.0
23.4801 25.0
23.5638 25.0
23.6475 31.0
23.7312 27.0
23.8149 19.0
23.8986 30.0
23.9823 27.0
24.066 23.0
24.1497 23.0
24.2334 28.0
24.3171 19.0
24.4008 31.0
24.4845 20.0
24.5682 31.0
24.6519 25.0
24.7356 26.0
24.8193 27.0
24.9031 23.0
24.9868 35.0
25.0705 15.0
25.1542 33.0
25.2379 33.0
25.3216 21.0
25.4053 25.0
25.489 23.0
25.5727 22.0
25.6564 27.0
25.7401 17.0
25.8238 28.0
25.9075 21.0
25.9912 24.0
26.0749 32.0
26.1586 21.0
26.2423 18.0
26.326 17.0
26.4098 25.0
26.4935 20.0
26.5772 24.0
26.6609 21.0
26.7446 26.0
26.8283 22.0
26.912 12.0
26.9957 16.0
27.0794 17.0
27.1631 26.0
27.2468 19.0
27.3305 23.0
27.4142 23.0
27.4979 22.0
27.5816 25.0
27.6653 25.0
27.749 20.0
27.8327 20.0
27.9165 26.0
28.0002 25.0
28.0839 16.0
28.1676 15.0
28.2513 33.0
28.335 18.0
28.4187 20.0
28.5024 26.0
28.5861 28.0
28.6698 22.0
28.7535 16.0
28.8372 22.0
28.9209 20.0
29.0046 17.0
29.0883 17.0
29.172 21.0
29.2557 20.0
29.3394 22.0
29.4232 21.0
29.5069 26.0
29.5906 18.0
29.6743 19.0
29.758 24.0
29.8417 25.0
29.9254 25.0
30.0091 26.0
30.0928 16.0
30.1765 27.0
30.2602 21.0
30.3439 28.0
30.4276 31.0
30.5113 26.0
30.595 32.0
30.6787 26.0
30.7624 20.0
30.8461 28.0
30.9298 27.0
31.0136 25.0
31.0973 17.0
31.181 21.0
31.2647 28.0
31.3484 22.0
31.4321 26.0
31.5158 18.0
31.5995 23.0
31.6832 23.0
31.7669 23.0
31.8506 23.0
31.9343 18.0
32.018 16.0
32.1017 23.0
32.1854 18.0
32.2691 23.0
32.3528 30.0
32.4365 35.0
32.5203 23.0
32.604 16.0
32.6877 25.0
32.7714 25.0
32.8551 23.0
32.9388 26.0
33.0225 20.0
33.1062 28.0
33.1899 16.0
33.2736 17.0
33.3573 30.0
33.441 22.0
33.5247 21.0
33.6084 25.0
33.6921 22.0
33.7758 22.0
33.8595 31.0
33.9432 116.0
34.027 63.0
34.1107 29.0
34.1944 32.0
34.2781 34.0
34.3618 28.0
34.4455 32.0
34.5292 26.0
34.6129 31.0
34.6966 31.0
34.7803 28.0
34.864 35.0
34.9477 33.0
35.0314 34.0
35.1151 43.0
35.1988 43.0
35.2825 61.0
35.3662 44.0
35.4499 58.0
35.5337 76.0
35.6174 85.0
35.7011 165.0
35.7848 281.0
35.8685 851.0
35.9522 4244.0
36.0359 4940.0
36.1196 2579.0
36.2033 655.0
36.287 265.0
36.3707 154.0
36.4544 101.0
36.5381 84.0
36.6218 65.0
36.7055 75.0
36.7892 67.0
36.8729 62.0
36.9566 73.0
37.0404 71.0
37.1241 94.0
37.2078 95.0
37.2915 104.0
37.3752 179.0
37.4589 194.0
37.5426 763.0
37.6263 1186.0
37.71 51798.0
37.7937 12420.0
37.8774 3267.0
37.9611 584.0
38.0448 296.0
38.1285 177.0
38.2122 114.0
38.2959 117.0
38.3796 79.0
38.4633 68.0
38.5471 43.0
38.6308 34.0
38.7145 39.0
38.7982 39.0
38.8819 42.0
38.9656 38.0
39.0493 34.0
39.133 32.0
39.2167 38.0
39.3004 26.0
39.3841 30.0
39.4678 23.0
39.5515 28.0
39.6352 30.0
39.7189 32.0
39.8026 30.0
39.8863 29.0
39.97 22.0
40.0538 28.0
40.1375 32.0
40.2212 35.0
40.3049 30.0
40.3886 16.0
40.4723 25.0
40.556 25.0
40.6397 23.0
40.7234 38.0
40.8071 33.0
40.8908 18.0
40.9745 29.0
41.0582 34.0
41.1419 21.0
41.2256 24.0
41.3093 31.0
41.393 38.0
41.4767 27.0
41.5605 18.0
41.6442 26.0
41.7279 28.0
41.8116 21.0
41.8953 17.0
41.979 19.0
42.0627 26.0
42.1464 16.0
42.2301 34.0
42.3138 27.0
42.3975 30.0
42.4812 19.0
42.5649 31.0
42.6486 19.0
42.7323 32.0
42.816 22.0
42.8997 25.0
42.9834 30.0
43.0672 28.0
43.1509 24.0
43.2346 34.0
43.3183 25.0
43.402 24.0
43.4857 23.0
43.5694 22.0
43.6531 23.0
43.7368 24.0
43.8205 19.0
43.9042 22.0
43.9879 24.0
44.0716 30.0
44.1553 36.0
44.239 42.0
44.3227 48.0
44.4064 40.0
44.4901 41.0
44.5739 36.0
44.6576 40.0
44.7413 35.0
44.825 27.0
44.9087 21.0
44.9924 28.0
45.0761 19.0
45.1598 28.0
45.2435 24.0
45.3272 26.0
45.4109 30.0
45.4946 27.0
45.5783 25.0
45.662 21.0
45.7457 23.0
45.8294 24.0
45.9131 18.0
45.9968 19.0
46.0806 21.0
46.1643 17.0
46.248 21.0
46.3317 18.0
46.4154 31.0
46.4991 33.0
46.5828 25.0
46.6665 34.0
46.7502 38.0
46.8339 19.0
46.9176 22.0
47.0013 26.0
47.085 29.0
47.1687 20.0
47.2524 24.0
47.3361 16.0
47.4198 19.0
47.5035 28.0
47.5873 22.0
47.671 24.0
47.7547 25.0
47.8384 30.0
47.9221 27.0
48.0058 26.0
48.0895 27.0
48.1732 21.0
48.2569 24.0
48.3406 30.0
48.4243 23.0
48.508 30.0
48.5917 25.0
48.6754 24.0
48.7591 24.0
48.8428 22.0
48.9265 35.0
49.0102 35.0
49.094 24.0
49.1777 26.0
49.2614 16.0
49.3451 23.0
49.4288 28.0
49.5125 26.0
49.5962 28.0
49.6799 26.0
49.7636 24.0
49.8473 24.0
49.931 34.0
50.0147 35.0
50.0984 33.0
50.1821 24.0
50.2658 26.0
50.3495 34.0
50.4332 29.0
50.5169 41.0
50.6007 23.0
50.6844 27.0
50.7681 20.0
50.8518 27.0
50.9355 29.0
51.0192 39.0
51.1029 26.0
51.1866 29.0
51.2703 26.0
51.354 24.0
51.4377 18.0
51.5214 24.0
51.6051 28.0
51.6888 20.0
51.7725 24.0
51.8562 38.0
51.9399 26.0
52.0236 36.0
52.1074 39.0
52.1911 21.0
52.2748 25.0
52.3585 25.0
52.4422 23.0
52.5259 21.0
52.6096 28.0
52.6933 22.0
52.777 23.0
52.8607 27.0
52.9444 25.0
53.0281 29.0
53.1118 31.0
53.1955 24.0
53.2792 27.0
53.3629 22.0
53.4466 28.0
53.5303 29.0
53.6141 37.0
53.6978 34.0
53.7815 24.0
53.8652 31.0
53.9489 29.0
54.0326 29.0
54.1163 22.0
54.2 23.0
54.2837 24.0
54.3674 19.0
54.4511 33.0
54.5348 32.0
54.6185 27.0
54.7022 19.0
54.7859 21.0
54.8696 26.0
54.9533 19.0
55.037 33.0
55.1208 31.0
55.2045 29.0
55.2882 19.0
55.3719 26.0
55.4556 33.0
55.5393 20.0
55.623 19.0
55.7067 21.0
55.7904 25.0
55.8741 21.0
55.9578 21.0
56.0415 23.0
56.1252 33.0
56.2089 22.0
56.2926 25.0
56.3763 32.0
56.46 25.0
56.5437 24.0
56.6275 24.0
56.7112 31.0
56.7949 33.0
56.8786 28.0
56.9623 26.0
57.046 24.0
57.1297 26.0
57.2134 26.0
57.2971 26.0
57.3808 27.0
57.4645 42.0
57.5482 32.0
57.6319 16.0
57.7156 35.0
57.7993 24.0
57.883 28.0
57.9667 26.0
58.0504 24.0
58.1342 20.0
58.2179 35.0
58.3016 31.0
58.3853 27.0
58.469 26.0
58.5527 26.0
58.6364 25.0
58.7201 26.0
58.8038 27.0
58.8875 27.0
58.9712 32.0
59.0549 31.0
59.1386 29.0
59.2223 37.0
59.306 25.0
59.3897 29.0
59.4734 24.0
59.5571 34.0
59.6409 28.0
59.7246 23.0
59.8083 34.0
59.892 31.0
59.9757 30.0
60.0594 32.0
60.1431 27.0
60.2268 24.0
60.3105 32.0
60.3942 23.0
60.4779 37.0
60.5616 23.0
60.6453 24.0
60.729 33.0
60.8127 23.0
60.8964 32.0
60.9801 28.0
61.0638 31.0
61.1476 21.0
61.2313 29.0
61.315 30.0
61.3987 42.0
61.4824 26.0
61.5661 22.0
61.6498 16.0
61.7335 25.0
61.8172 37.0
61.9009 26.0
61.9846 26.0
62.0683 26.0
62.152 34.0
62.2357 29.0
62.3194 35.0
62.4031 26.0
62.4868 23.0
62.5705 22.0
62.6543 25.0
62.738 24.0
62.8217 32.0
62.9054 29.0
62.9891 27.0
63.0728 29.0
63.1565 27.0
63.2402 31.0
63.3239 29.0
63.4076 24.0
63.4913 31.0
63.575 22.0
63.6587 20.0
63.7424 30.0
63.8261 39.0
63.9098 40.0
63.9935 33.0
64.0772 33.0
64.161 34.0
64.2447 29.0
64.3284 21.0
64.4121 32.0
64.4958 26.0
64.5795 37.0
64.6632 37.0
64.7469 28.0
64.8306 29.0
64.9143 35.0
64.998 29.0
65.0817 36.0
65.1654 26.0
65.2491 20.0
65.3328 24.0
65.4165 27.0
65.5002 31.0
65.5839 38.0
65.6677 33.0
65.7514 33.0
65.8351 26.0
65.9188 23.0
66.0025 30.0
66.0862 20.0
66.1699 25.0
66.2536 36.0
66.3373 24.0
66.421 22.0
66.5047 31.0
66.5884 35.0
66.6721 33.0
66.7558 37.0
66.8395 30.0
66.9232 35.0
67.0069 25.0
67.0906 34.0
67.1744 19.0
67.2581 32.0
67.3418 34.0
67.4255 26.0
67.5092 24.0
67.5929 40.0
67.6766 27.0
67.7603 34.0
67.844 36.0
67.9277 29.0
68.0114 25.0
68.0951 28.0
68.1788 45.0
68.2625 31.0
68.3462 30.0
68.4299 33.0
68.5136 41.0
68.5973 36.0
68.6811 27.0
68.7648 34.0
68.8485 40.0
68.9322 24.0
69.0159 26.0
69.0996 26.0
69.1833 30.0
69.267 25.0
69.3507 35.0
69.4344 26.0
69.5181 21.0
69.6018 36.0
69.6855 25.0
69.7692 27.0
69.8529 29.0
69.9366 27.0
70.0203 27.0
70.104 27.0
70.1878 31.0
70.2715 28.0
70.3552 21.0
70.4389 33.0
70.5226 19.0
70.6063 30.0
70.69 31.0
70.7737 30.0
70.8574 36.0
70.9411 23.0
71.0248 30.0
71.1085 30.0
71.1922 27.0
71.2759 26.0
71.3596 35.0
71.4433 29.0
71.527 59.0
71.6107 76.0
71.6945 37.0
71.7782 34.0
71.8619 25.0
71.9456 37.0
72.0293 38.0
72.113 33.0
72.1967 24.0
72.2804 28.0
72.3641 36.0
72.4478 38.0
72.5315 35.0
72.6152 35.0
72.6989 32.0
72.7826 35.0
72.8663 21.0
72.95 30.0
73.0337 39.0
73.1174 33.0
73.2012 34.0
73.2849 39.0
73.3686 31.0
73.4523 26.0
73.536 36.0
73.6197 41.0
73.7034 33.0
73.7871 37.0
73.8708 42.0
73.9545 35.0
74.0382 35.0
74.1219 22.0
74.2056 32.0
74.2893 26.0
74.373 40.0
74.4567 18.0
74.5404 32.0
74.6241 31.0
74.7079 28.0
74.7916 31.0
74.8753 38.0
74.959 33.0
75.0427 31.0
75.1264 27.0
75.2101 29.0
75.2938 23.0
75.3775 26.0
75.4612 25.0
75.5449 29.0
75.6286 37.0
75.7123 39.0
75.796 40.0
75.8797 43.0
75.9634 62.0
76.0471 51.0
76.1308 93.0
76.2146 117.0
76.2983 188.0
76.382 317.0
76.4657 281.0
76.5494 214.0
76.6331 207.0
76.7168 139.0
76.8005 90.0
76.8842 68.0
76.9679 44.0
77.0516 40.0
77.1353 43.0
77.219 41.0
77.3027 24.0
77.3864 48.0
77.4701 33.0
77.5538 38.0
77.6375 29.0
77.7213 36.0
77.805 37.0
77.8887 26.0
77.9724 25.0
78.0561 33.0
78.1398 40.0
78.2235 39.0
78.3072 38.0
78.3909 24.0
78.4746 30.0
78.5583 38.0
78.642 29.0
78.7257 35.0
78.8094 39.0
78.8931 42.0
78.9768 43.0
79.0605 43.0
79.1442 40.0
79.228 37.0
79.3117 37.0
79.3954 38.0
79.4791 39.0
79.5628 50.0
79.6465 50.0
79.7302 51.0
79.8139 66.0
79.8976 50.0
79.9813 58.0
80.065 65.0
80.1487 95.0
80.2324 133.0
80.3161 169.0
80.3998 162.0
80.4835 331.0
80.5672 960.0
80.6509 16585.0
80.7347 2094.0
80.8184 884.0
80.9021 8462.0
80.9858 922.0
81.0695 270.0
81.1532 124.0
81.2369 106.0
81.3206 72.0
81.4043 85.0
81.488 76.0
81.5717 57.0
81.6554 60.0
81.7391 43.0
81.8228 42.0
81.9065 43.0
81.9902 49.0
82.0739 52.0
82.1576 43.0
82.2414 48.0
82.3251 42.0
82.4088 44.0
82.4925 39.0
82.5762 50.0
82.6599 43.0
82.7436 33.0
82.8273 36.0
82.911 40.0
82.9947 29.0
83.0784 30.0
83.1621 39.0
83.2458 30.0
83.3295 35.0
83.4132 24.0
83.4969 36.0
83.5806 31.0
83.6643 26.0
83.7481 26.0
83.8318 22.0
83.9155 37.0
83.9992 40.0
84.0829 35.0
84.1666 27.0
84.2503 20.0
84.334 31.0
84.4177 29.0
84.5014 33.0
84.5851 24.0
84.6688 35.0
84.7525 26.0
84.8362 37.0
84.9199 28.0
85.0036 18.0
85.0873 33.0
85.171 31.0
85.2548 26.0
85.3385 34.0
85.4222 31.0
85.5059 33.0
85.5896 37.0
85.6733 29.0
85.757 26.0
85.8407 33.0
85.9244 26.0
86.0081 31.0
86.0918 30.0
86.1755 31.0
86.2592 25.0
86.3429 33.0
86.4266 23.0
86.5103 33.0
86.594 23.0
86.6777 38.0
86.7615 31.0
86.8452 40.0
86.9289 29.0
87.0126 23.0
87.0963 28.0
87.18 23.0
87.2637 30.0
87.3474 31.0
87.4311 29.0
87.5148 34.0
87.5985 29.0
87.6822 42.0
87.7659 25.0
87.8496 44.0
87.9333 23.0
88.017 28.0
88.1007 30.0
88.1844 29.0
88.2682 29.0
88.3519 29.0
88.4356 41.0
88.5193 23.0
88.603 29.0
88.6867 18.0
88.7704 28.0
88.8541 37.0
88.9378 36.0
89.0215 31.0
89.1052 29.0
89.1889 33.0
89.2726 27.0
89.3563 36.0
89.44 32.0
89.5237 37.0
89.6074 34.0
89.6911 34.0
89.7749 23.0
89.8586 27.0
89.9423 35.0
90.026 27.0
90.1097 31.0
90.1934 29.0
90.2771 28.0
90.3608 28.0
90.4445 25.0
90.5282 29.0
90.6119 37.0
90.6956 21.0
90.7793 20.0
90.863 30.0
90.9467 28.0
91.0304 20.0
91.1141 32.0
91.1978 30.0
91.2816 25.0
91.3653 28.0
91.449 27.0
91.5327 27.0
91.6164 27.0
91.7001 30.0
91.7838 38.0
91.8675 26.0
91.9512 43.0
92.0349 44.0
92.1186 41.0
92.2023 35.0
92.286 41.0
92.3697 31.0
92.4534 36.0
92.5371 19.0
92.6208 20.0
92.7045 40.0
92.7883 26.0
92.872 25.0
92.9557 32.0
93.0394 30.0
93.1231 26.0
93.2068 32.0
93.2905 22.0
93.3742 28.0
93.4579 32.0
93.5416 34.0
93.6253 24.0
93.709 39.0
93.7927 35.0
93.8764 28.0
93.9601 31.0
94.0438 21.0
94.1275 33.0
94.2112 40.0
94.295 24.0
94.3787 32.0
94.4624 30.0
94.5461 27.0
94.6298 21.0
94.7135 24.0
94.7972 27.0
94.8809 35.0
94.9646 30.0
95.0483 24.0
95.132 30.0
95.2157 24.0
95.2994 23.0
95.3831 30.0
95.4668 30.0
95.5505 30.0
95.6342 27.0
95.7179 32.0
95.8017 26.0
95.8854 30.0
95.9691 28.0
96.0528 23.0
96.1365 29.0
96.2202 43.0
96.3039 24.0
96.3876 29.0
96.4713 29.0
96.555 29.0
96.6387 27.0
96.7224 30.0
96.8061 35.0
96.8898 21.0
96.9735 31.0
97.0572 28.0
97.1409 36.0
97.2246 25.0
97.3084 21.0
97.3921 33.0
97.4758 29.0
97.5595 34.0
97.6432 26.0
97.7269 31.0
97.8106 25.0
97.8943 23.0
97.978 40.0
98.0617 24.0
98.1454 32.0
98.2291 31.0
98.3128 32.0
98.3965 38.0
98.4802 29.0
98.5639 34.0
98.6476 37.0
98.7313 31.0
98.8151 23.0
98.8988 31.0
98.9825 45.0
99.0662 41.0
99.1499 31.0
99.2336 29.0
99.3173 38.0
99.401 41.0
99.4847 32.0
99.5684 25.0
99.6521 34.0
99.7358 33.0
99.8195 25.0
99.9032 36.0
99.9869 32.0
100.071 35.0
100.154 30.0
100.238 44.0
100.322 28.0
100.405 32.0
100.489 29.0
100.573 43.0
100.657 27.0
100.74 25.0
100.824 33.0
100.908 28.0
100.991 25.0
101.075 34.0
101.159 29.0
101.243 26.0
101.326 38.0
101.41 27.0
101.494 27.0
101.577 21.0
101.661 25.0
101.745 24.0
101.828 32.0
101.912 27.0
101.996 30.0
102.08 32.0
102.163 26.0
102.247 34.0
102.331 29.0
102.414 33.0
102.498 30.0
102.582 36.0
102.666 33.0
102.749 20.0
102.833 31.0
102.917 29.0
103 31.0
103.084 30.0
103.168 19.0
103.251 35.0
103.335 38.0
103.419 27.0
103.503 27.0
103.586 29.0
103.67 38.0
103.754 32.0
103.837 37.0
103.921 28.0
104.005 35.0
104.089 29.0
104.172 27.0
104.256 26.0
104.34 31.0
104.423 32.0
104.507 38.0
104.591 37.0
104.674 33.0
104.758 28.0
104.842 35.0
104.926 31.0
105.009 34.0
105.093 24.0
105.177 33.0
105.26 23.0
105.344 27.0
105.428 29.0
105.511 30.0
105.595 36.0
105.679 26.0
105.763 36.0
105.846 34.0
105.93 27.0
106.014 32.0
106.097 47.0
106.181 24.0
106.265 36.0
106.349 33.0
106.432 33.0
106.516 34.0
106.6 29.0
106.683 24.0
106.767 27.0
106.851 25.0
106.934 38.0
107.018 33.0
107.102 35.0
107.186 33.0
107.269 28.0
107.353 24.0
107.437 40.0
107.52 30.0
107.604 34.0
107.688 30.0
107.772 25.0
107.855 27.0
107.939 31.0
108.023 40.0
108.106 28.0
108.19 31.0
108.274 30.0
108.357 25.0
108.441 37.0
108.525 25.0
108.609 37.0
108.692 28.0
108.776 28.0
108.86 31.0
108.943 24.0
109.027 30.0
109.111 28.0
109.195 27.0
109.278 26.0
109.362 38.0
109.446 35.0
109.529 28.0
109.613 24.0
109.697 31.0
109.78 24.0
109.864 23.0
109.948 42.0
110.032 23.0
110.115 36.0
110.199 46.0
110.283 27.0
110.366 32.0
110.45 34.0
110.534 31.0
110.618 36.0
110.701 23.0
110.785 30.0
110.869 29.0
110.952 22.0
111.036 25.0
111.12 30.0
111.203 32.0
111.287 32.0
111.371 25.0
111.455 35.0
111.538 41.0
111.622 40.0
111.706 36.0
111.789 30.0
111.873 23.0
111.957 29.0
112.041 23.0
112.124 30.0
112.208 31.0
112.292 35.0
112.375 29.0
112.459 17.0
112.543 34.0
112.626 29.0
112.71 32.0
112.794 24.0
112.878 34.0
112.961 31.0
113.045 30.0
113.129 25.0
113.212 36.0
113.296 25.0
113.38 46.0
113.464 41.0
113.547 36.0
113.631 32.0
113.715 34.0
113.798 33.0
113.882 51.0
113.966 31.0
114.049 37.0
114.133 34.0
114.217 30.0
114.301 30.0
114.384 31.0
114.468 31.0
114.552 35.0
114.635 26.0
114.719 36.0
114.803 43.0
114.887 25.0
114.97 38.0
115.054 37.0
115.138 38.0
115.221 24.0
115.305 43.0
115.389 25.0
115.472 32.0
115.556 40.0
115.64 33.0
115.724 35.0
115.807 21.0
115.891 33.0
115.975 30.0
116.058 37.0
116.142 26.0
116.226 28.0
116.31 28.0
116.393 34.0
116.477 36.0
116.561 33.0
116.644 32.0
116.728 35.0
116.812 26.0
116.895 38.0
116.979 30.0
117.063 30.0
117.147 36.0
117.23 40.0
117.314 35.0
117.398 33.0
117.481 30.0
117.565 38.0
117.649 33.0
117.733 29.0
117.816 36.0
117.9 31.0
117.984 24.0
118.067 33.0
118.151 29.0
118.235 34.0
118.318 37.0
118.402 34.0
118.486 34.0
118.57 28.0
118.653 25.0
118.737 25.0
118.821 30.0
118.904 23.0
118.988 32.0
119.072 34.0
119.156 30.0
119.239 25.0
119.323 35.0
119.407 32.0
119.49 28.0
119.574 43.0
119.658 29.0
119.741 27.0
119.825 26.0
119.909 27.0
119.993 35.0
120.076 36.0
120.16 27.0
120.244 27.0
120.327 36.0
120.411 31.0
120.495 26.0
120.578 23.0
120.662 21.0
120.746 32.0
120.83 27.0
120.913 31.0
120.997 24.0
121.081 23.0
121.164 23.0
121.248 36.0
121.332 28.0
121.416 37.0
121.499 30.0
121.583 26.0
121.667 34.0
121.75 29.0
121.834 34.0
121.918 29.0
122.001 23.0
122.085 24.0
122.169 29.0
122.253 29.0
122.336 30.0
122.42 25.0
122.504 31.0
122.587 48.0
122.671 78.0
122.755 61.0
122.839 48.0
122.922 24.0
123.006 38.0
123.09 33.0
123.173 29.0
123.257 27.0
123.341 38.0
123.424 30.0
123.508 34.0
123.592 34.0
123.676 35.0
123.759 36.0
123.843 32.0
123.927 33.0
124.01 34.0
124.094 34.0
124.178 19.0
124.262 33.0
124.345 36.0
124.429 28.0
124.513 36.0
124.596 31.0
124.68 34.0
124.764 33.0
124.847 21.0
124.931 21.0
125.015 22.0
125.099 25.0
125.182 29.0
125.266 27.0
125.35 34.0
125.433 28.0
125.517 32.0
125.601 32.0
125.685 40.0
125.768 36.0
125.852 33.0
125.936 41.0
126.019 38.0
126.103 40.0
126.187 45.0
126.27 28.0
126.354 23.0
126.438 28.0
126.522 28.0
126.605 25.0
126.689 32.0
126.773 30.0
126.856 33.0
126.94 35.0
127.024 22.0
127.108 35.0
127.191 25.0
127.275 28.0
127.359 34.0
127.442 29.0
127.526 34.0
127.61 31.0
127.693 23.0
127.777 28.0
127.861 30.0
127.945 33.0
128.028 30.0
128.112 34.0
128.196 40.0
128.279 29.0
128.363 32.0
128.447 33.0
128.531 31.0
128.614 39.0
128.698 37.0
128.782 30.0
128.865 27.0
128.949 24.0
129.033 30.0
129.116 37.0
129.2 33.0
129.284 38.0
129.368 29.0
129.451 23.0
129.535 30.0
129.619 39.0
129.702 29.0
129.786 40.0
129.87 38.0
129.954 45.0
129.998 33.0