File: data/W6783r/XRD_Omega/w6783r_scan_omega.xy
21.86360 71.0
21.86860 74.0
21.87360 50.0
21.87860 73.0
21.88360 52.0
21.88860 60.0
21.89360 67.0
21.89860 63.0
21.90360 66.0
21.90860 77.0
21.91360 72.0
21.91860 64.0
21.92360 60.0
21.92860 70.0
21.93360 76.0
21.93860 72.0
21.94360 78.0
21.94860 70.0
21.95360 75.0
21.95860 86.0
21.96360 78.0
21.96860 64.0
21.97360 61.0
21.97860 70.0
21.98360 90.0
21.98860 64.0
21.99360 72.0
21.99860 75.0
22.00360 85.0
22.00860 73.0
22.01360 84.0
22.01860 77.0
22.02360 78.0
22.02860 74.0
22.03360 75.0
22.03860 68.0
22.04360 82.0
22.04860 70.0
22.05360 85.0
22.05860 82.0
22.06360 77.0
22.06860 81.0
22.07360 91.0
22.07860 89.0
22.08360 68.0
22.08860 83.0
22.09360 85.0
22.09860 109.0
22.10360 85.0
22.10860 81.0
22.11360 70.0
22.11860 78.0
22.12360 82.0
22.12860 100.0
22.13360 94.0
22.13860 91.0
22.14360 92.0
22.14860 65.0
22.15360 85.0
22.15860 89.0
22.16360 99.0
22.16860 90.0
22.17360 93.0
22.17860 103.0
22.18360 92.0
22.18860 101.0
22.19360 87.0
22.19860 88.0
22.20360 109.0
22.20860 98.0
22.21360 105.0
22.21860 114.0
22.22360 104.0
22.22860 92.0
22.23360 99.0
22.23860 99.0
22.24360 96.0
22.24860 118.0
22.25360 107.0
22.25860 92.0
22.26360 100.0
22.26860 112.0
22.27360 89.0
22.27860 109.0
22.28360 95.0
22.28860 108.0
22.29360 112.0
22.29860 130.0
22.30360 109.0
22.30860 121.0
22.31360 116.0
22.31860 108.0
22.32360 104.0
22.32860 110.0
22.33360 94.0
22.33860 113.0
22.34360 116.0
22.34860 114.0
22.35360 131.0
22.35860 121.0
22.36360 131.0
22.36860 114.0
22.37360 114.0
22.37860 143.0
22.38360 125.0
22.38860 110.0
22.39360 133.0
22.39860 124.0
22.40360 141.0
22.40860 140.0
22.41360 150.0
22.41860 131.0
22.42360 126.0
22.42860 141.0
22.43360 139.0
22.43860 149.0
22.44360 155.0
22.44860 110.0
22.45360 140.0
22.45860 124.0
22.46360 136.0
22.46860 156.0
22.47360 151.0
22.47860 146.0
22.48360 138.0
22.48860 149.0
22.49360 149.0
22.49860 146.0
22.50360 171.0
22.50860 151.0
22.51360 173.0
22.51860 175.0
22.52360 159.0
22.52860 161.0
22.53360 160.0
22.53860 173.0
22.54360 172.0
22.54860 199.0
22.55360 181.0
22.55860 168.0
22.56360 178.0
22.56860 206.0
22.57360 173.0
22.57860 181.0
22.58360 173.0
22.58860 168.0
22.59360 173.0
22.59860 200.0
22.60360 218.0
22.60860 196.0
22.61360 193.0
22.61860 183.0
22.62360 190.0
22.62860 199.0
22.63360 189.0
22.63860 193.0
22.64360 222.0
22.64860 214.0
22.65360 227.0
22.65860 236.0
22.66360 230.0
22.66860 225.0
22.67360 242.0
22.67860 215.0
22.68360 228.0
22.68860 236.0
22.69360 215.0
22.69860 211.0
22.70360 227.0
22.70860 225.0
22.71360 270.0
22.71860 227.0
22.72360 251.0
22.72860 252.0
22.73360 249.0
22.73860 256.0
22.74360 261.0
22.74860 274.0
22.75360 263.0
22.75860 290.0
22.76360 257.0
22.76860 266.0
22.77360 269.0
22.77860 284.0
22.78360 313.0
22.78860 298.0
22.79360 311.0
22.79860 338.0
22.80360 333.0
22.80860 306.0
22.81360 322.0
22.81860 315.0
22.82360 281.0
22.82860 319.0
22.83360 302.0
22.83860 306.0
22.84360 341.0
22.84860 371.0
22.85360 363.0
22.85860 345.0
22.86360 349.0
22.86860 328.0
22.87360 357.0
22.87860 364.0
22.88360 362.0
22.88860 375.0
22.89360 401.0
22.89860 373.0
22.90360 401.0
22.90860 367.0
22.91360 382.0
22.91860 400.0
22.92360 387.0
22.92860 420.0
22.93360 444.0
22.93860 460.0
22.94360 437.0
22.94860 486.0
22.95360 437.0
22.95860 425.0
22.96360 452.0
22.96860 461.0
22.97360 486.0
22.97860 521.0
22.98360 501.0
22.98860 491.0
22.99360 458.0
22.99860 485.0
23.00360 475.0
23.00860 549.0
23.01360 516.0
23.01860 524.0
23.02360 523.0
23.02860 559.0
23.03360 546.0
23.03860 592.0
23.04360 601.0
23.04860 610.0
23.05360 596.0
23.05860 590.0
23.06360 619.0
23.06860 597.0
23.07360 610.0
23.07860 700.0
23.08360 676.0
23.08860 623.0
23.09360 605.0
23.09860 675.0
23.10360 697.0
23.10860 680.0
23.11360 658.0
23.11860 744.0
23.12360 754.0
23.12860 739.0
23.13360 728.0
23.13860 751.0
23.14360 733.0
23.14860 770.0
23.15360 774.0
23.15860 805.0
23.16360 825.0
23.16860 831.0
23.17360 865.0
23.17860 876.0
23.18360 899.0
23.18860 869.0
23.19360 916.0
23.19860 901.0
23.20360 881.0
23.20860 921.0
23.21360 927.0
23.21860 906.0
23.22360 971.0
23.22860 918.0
23.23360 1007.0
23.23860 919.0
23.24360 965.0
23.24860 1029.0
23.25360 990.0
23.25860 1081.0
23.26360 1074.0
23.26860 1070.0
23.27360 990.0
23.27860 1096.0
23.28360 1112.0
23.28860 1103.0
23.29360 1137.0
23.29860 1128.0
23.30360 1140.0
23.30860 1130.0
23.31360 1219.0
23.31860 1218.0
23.32360 1185.0
23.32860 1291.0
23.33360 1276.0
23.33860 1260.0
23.34360 1258.0
23.34860 1368.0
23.35360 1362.0
23.35860 1364.0
23.36360 1313.0
23.36860 1333.0
23.37360 1429.0
23.37860 1374.0
23.38360 1477.0
23.38860 1472.0
23.39360 1432.0
23.39860 1477.0
23.40360 1496.0
23.40860 1524.0
23.41360 1533.0
23.41860 1576.0
23.42360 1595.0
23.42860 1657.0
23.43360 1634.0
23.43860 1596.0
23.44360 1651.0
23.44860 1689.0
23.45360 1673.0
23.45860 1604.0
23.46360 1660.0
23.46860 1755.0
23.47360 1794.0
23.47860 1717.0
23.48360 1793.0
23.48860 1755.0
23.49360 1718.0
23.49860 1746.0
23.50360 1851.0
23.50860 1840.0
23.51360 1875.0
23.51860 1900.0
23.52360 1939.0
23.52860 1904.0
23.53360 1920.0
23.53860 1935.0
23.54360 2007.0
23.54860 1984.0
23.55360 1986.0
23.55860 1993.0
23.56360 2062.0
23.56860 2061.0
23.57360 2108.0
23.57860 2086.0
23.58360 2160.0
23.58860 2072.0
23.59360 2110.0
23.59860 2179.0
23.60360 2202.0
23.60860 2242.0
23.61360 2125.0
23.61860 2248.0
23.62360 2226.0
23.62860 2256.0
23.63360 2232.0
23.63860 2260.0
23.64360 2389.0
23.64860 2329.0
23.65360 2330.0
23.65860 2399.0
23.66360 2373.0
23.66860 2376.0
23.67360 2364.0
23.67860 2284.0
23.68360 2399.0
23.68860 2469.0
23.69360 2469.0
23.69860 2465.0
23.70360 2377.0
23.70860 2305.0
23.71360 2454.0
23.71860 2445.0
23.72360 2430.0
23.72860 2545.0
23.73360 2416.0
23.73860 2418.0
23.74360 2494.0
23.74860 2529.0
23.75360 2530.0
23.75860 2571.0
23.76360 2471.0
23.76860 2589.0
23.77360 2498.0
23.77860 2496.0
23.78360 2469.0
23.78860 2471.0
23.79360 2586.0
23.79860 2589.0
23.80360 2469.0
23.80860 2621.0
23.81360 2544.0
23.81860 2573.0
23.82360 2555.0
23.82860 2527.0
23.83360 2641.0
23.83860 2579.0
23.84360 2559.0
23.84860 2554.0
23.85360 2486.0
23.85860 2530.0
23.86360 2588.0
23.86860 2553.0
23.87360 2478.0
23.87860 2560.0
23.88360 2497.0
23.88860 2445.0
23.89360 2483.0
23.89860 2591.0
23.90360 2512.0
23.90860 2468.0
23.91360 2535.0
23.91860 2475.0
23.92360 2473.0
23.92860 2603.0
23.93360 2403.0
23.93860 2410.0
23.94360 2441.0
23.94860 2407.0
23.95360 2535.0
23.95860 2417.0
23.96360 2457.0
23.96860 2449.0
23.97360 2449.0
23.97860 2412.0
23.98360 2404.0
23.98860 2319.0
23.99360 2323.0
23.99860 2359.0
24.00360 2235.0
24.00860 2290.0
24.01360 2307.0
24.01860 2301.0
24.02360 2240.0
24.02860 2371.0
24.03360 2255.0
24.03860 2168.0
24.04360 2211.0
24.04860 2232.0
24.05360 2144.0
24.05860 2212.0
24.06360 2163.0
24.06860 2061.0
24.07360 2198.0
24.07860 2118.0
24.08360 2086.0
24.08860 2137.0
24.09360 2174.0
24.09860 2043.0
24.10360 2064.0
24.10860 2030.0
24.11360 2052.0
24.11860 1979.0
24.12360 2004.0
24.12860 1930.0
24.13360 2071.0
24.13860 1967.0
24.14360 1887.0
24.14860 1920.0
24.15360 1842.0
24.15860 1943.0
24.16360 1806.0
24.16860 1777.0
24.17360 1798.0
24.17860 1723.0
24.18360 1752.0
24.18860 1669.0
24.19360 1738.0
24.19860 1723.0
24.20360 1653.0
24.20860 1654.0
24.21360 1671.0
24.21860 1692.0
24.22360 1624.0
24.22860 1560.0
24.23360 1578.0
24.23860 1608.0
24.24360 1518.0
24.24860 1607.0
24.25360 1535.0
24.25860 1508.0
24.26360 1460.0
24.26860 1466.0
24.27360 1447.0
24.27860 1502.0
24.28360 1333.0
24.28860 1469.0
24.29360 1402.0
24.29860 1323.0
24.30360 1319.0
24.30860 1396.0
24.31360 1386.0
24.31860 1330.0
24.32360 1300.0
24.32860 1264.0
24.33360 1248.0
24.33860 1271.0
24.34360 1255.0
24.34860 1196.0
24.35360 1124.0
24.35860 1196.0
24.36360 1206.0
24.36860 1087.0
24.37360 1164.0
24.37860 1187.0
24.38360 1101.0
24.38860 1081.0
24.39360 1070.0
24.39860 1080.0
24.40360 1092.0
24.40860 1000.0
24.41360 1011.0
24.41860 997.0
24.42360 1016.0
24.42860 944.0
24.43360 955.0
24.43860 954.0
24.44360 955.0
24.44860 972.0
24.45360 888.0
24.45860 892.0
24.46360 839.0
24.46860 850.0
24.47360 894.0
24.47860 798.0
24.48360 828.0
24.48860 766.0
24.49360 795.0
24.49860 773.0
24.50360 709.0
24.50860 732.0
24.51360 784.0
24.51860 770.0
24.52360 713.0
24.52860 743.0
24.53360 660.0
24.53860 707.0
24.54360 679.0
24.54860 644.0
24.55360 652.0
24.55860 614.0
24.56360 636.0
24.56860 641.0
24.57360 602.0
24.57860 629.0
24.58360 611.0
24.58860 593.0
24.59360 564.0
24.59860 589.0
24.60360 577.0
24.60860 560.0
24.61360 570.0
24.61860 547.0
24.62360 539.0
24.62860 494.0
24.63360 505.0
24.63860 483.0
24.64360 529.0
24.64860 494.0
24.65360 495.0
24.65860 465.0
24.66360 469.0
24.66860 452.0
24.67360 435.0
24.67860 461.0
24.68360 454.0
24.68860 421.0
24.69360 468.0
24.69860 424.0
24.70360 455.0
24.70860 417.0
24.71360 427.0
24.71860 405.0
24.72360 397.0
24.72860 389.0
24.73360 366.0
24.73860 355.0
24.74360 373.0
24.74860 363.0
24.75360 364.0
24.75860 327.0
24.76360 355.0
24.76860 351.0
24.77360 325.0
24.77860 352.0
24.78360 363.0
24.78860 353.0
24.79360 330.0
24.79860 285.0
24.80360 286.0
24.80860 322.0
24.81360 294.0
24.81860 272.0
24.82360 320.0
24.82860 297.0
24.83360 307.0
24.83860 249.0
24.84360 259.0
24.84860 310.0
24.85360 264.0
24.85860 253.0
24.86360 230.0
24.86860 270.0
24.87360 275.0
24.87860 247.0
24.88360 251.0
24.88860 217.0
24.89360 208.0
24.89860 228.0
24.90360 218.0
24.90860 212.0
24.91360 234.0
24.91860 212.0
24.92360 217.0
24.92860 215.0
24.93360 211.0
24.93860 220.0
24.94360 201.0
24.94860 184.0
24.95360 168.0
24.95860 191.0
24.96360 181.0
24.96860 179.0
24.97360 198.0
24.97860 205.0
24.98360 181.0
24.98860 169.0
24.99360 201.0
24.99860 147.0
25.00360 163.0
25.00860 178.0
25.01360 168.0
25.01860 158.0
25.02360 164.0
25.02860 144.0
25.03360 150.0
25.03860 143.0
25.04360 168.0
25.04860 176.0
25.05360 160.0
25.05860 156.0
25.06360 144.0
25.06860 139.0
25.07360 153.0
25.07860 159.0
25.08360 134.0
25.08860 137.0
25.09360 132.0
25.09860 124.0
25.10360 126.0
25.10860 140.0
25.11360 114.0
25.11860 107.0
25.12360 141.0
25.12860 111.0
25.13360 127.0
25.13860 116.0
25.14360 131.0
25.14860 100.0
25.15360 117.0
25.15860 113.0
25.16360 107.0
25.16860 131.0
25.17360 124.0
25.17860 99.0
25.18360 113.0
25.18860 113.0
25.19360 110.0
25.19860 102.0
25.20360 93.0
25.20860 111.0
25.21360 95.0
25.21860 96.0
25.22360 103.0
25.22860 87.0
25.23360 108.0
25.23860 97.0
25.24360 104.0
25.24860 95.0
25.25360 91.0
25.25860 109.0
25.26360 93.0
25.26860 98.0
25.27360 102.0
25.27860 136.0
25.28360 93.0
25.28860 100.0
25.29360 92.0
25.29860 111.0
25.30360 98.0
25.30860 98.0
25.31360 97.0
25.31860 103.0
25.32360 94.0
25.32860 101.0
25.33360 97.0
25.33860 89.0
25.34360 119.0
25.34860 101.0
25.35360 101.0
25.35860 106.0
25.36360 123.0
25.36860 107.0
25.37360 105.0
25.37860 113.0
25.38360 102.0
25.38860 105.0
25.39360 118.0
25.39860 106.0
25.40360 99.0
25.40860 90.0
25.41360 110.0
25.41860 93.0
25.42360 99.0
25.42860 119.0
25.43360 96.0
25.43860 97.0
25.44360 104.0
25.44860 121.0
25.45360 94.0
25.45860 102.0
25.46360 116.0
25.46860 123.0
25.47360 101.0
25.47860 88.0
25.48360 90.0
25.48860 105.0
25.49360 114.0
25.49860 121.0
25.50360 133.0
25.50860 130.0
25.51360 147.0
25.51860 168.0
25.52360 179.0
25.52860 167.0
25.53360 130.0
25.53860 107.0
25.54360 94.0
25.54860 87.0
25.55360 73.0
25.55860 66.0
25.56360 73.0
25.56860 66.0
25.57360 82.0
25.57860 71.0
25.58360 55.0
25.58860 55.0
25.59360 69.0
25.59860 48.0
25.60360 51.0
25.60860 51.0
25.61360 60.0
25.61860 60.0
25.62360 53.0
25.62860 59.0
25.63360 58.0
25.63860 41.0
25.64360 62.0
25.64860 45.0
25.65360 55.0
25.65860 36.0
25.66360 57.0
25.66860 48.0
25.67360 47.0
25.67860 38.0
25.68360 49.0
25.68860 47.0
25.69360 46.0
25.69860 49.0
25.70360 48.0
25.70860 45.0
25.71360 37.0
25.71860 39.0
25.72360 51.0
25.72860 46.0
25.73360 42.0
25.73860 48.0
25.74360 41.0
25.74860 48.0
25.75360 39.0
25.75860 39.0
25.76360 61.0
25.76860 53.0
25.77360 45.0
25.77860 38.0
25.78360 36.0
25.78860 54.0
25.79360 44.0
25.79860 36.0
25.80360 38.0