File: data/W6775r/XRD_Omega/scan_omega_4deg_step_0.005deg0_1.xy
23.06150 39.0
23.06650 48.0
23.07150 41.0
23.07650 39.0
23.08150 32.0
23.08650 36.0
23.09150 49.0
23.09650 37.0
23.10150 43.0
23.10650 48.0
23.11150 33.0
23.11650 34.0
23.12150 31.0
23.12650 48.0
23.13150 44.0
23.13650 55.0
23.14150 37.0
23.14650 50.0
23.15150 28.0
23.15650 47.0
23.16150 53.0
23.16650 65.0
23.17150 45.0
23.17650 36.0
23.18150 37.0
23.18650 42.0
23.19150 42.0
23.19650 50.0
23.20150 42.0
23.20650 46.0
23.21150 53.0
23.21650 48.0
23.22150 43.0
23.22650 40.0
23.23150 46.0
23.23650 48.0
23.24150 44.0
23.24650 48.0
23.25150 49.0
23.25650 38.0
23.26150 48.0
23.26650 54.0
23.27150 46.0
23.27650 44.0
23.28150 53.0
23.28650 50.0
23.29150 51.0
23.29650 60.0
23.30150 49.0
23.30650 33.0
23.31150 64.0
23.31650 50.0
23.32150 44.0
23.32650 33.0
23.33150 52.0
23.33650 43.0
23.34150 56.0
23.34650 50.0
23.35150 33.0
23.35650 51.0
23.36150 62.0
23.36650 59.0
23.37150 48.0
23.37650 51.0
23.38150 59.0
23.38650 60.0
23.39150 76.0
23.39650 64.0
23.40150 69.0
23.40650 61.0
23.41150 62.0
23.41650 45.0
23.42150 60.0
23.42650 58.0
23.43150 60.0
23.43650 54.0
23.44150 65.0
23.44650 67.0
23.45150 63.0
23.45650 63.0
23.46150 57.0
23.46650 60.0
23.47150 63.0
23.47650 63.0
23.48150 71.0
23.48650 59.0
23.49150 70.0
23.49650 70.0
23.50150 65.0
23.50650 68.0
23.51150 53.0
23.51650 63.0
23.52150 73.0
23.52650 62.0
23.53150 67.0
23.53650 64.0
23.54150 80.0
23.54650 58.0
23.55150 71.0
23.55650 59.0
23.56150 75.0
23.56650 74.0
23.57150 67.0
23.57650 67.0
23.58150 71.0
23.58650 79.0
23.59150 72.0
23.59650 74.0
23.60150 80.0
23.60650 64.0
23.61150 84.0
23.61650 81.0
23.62150 68.0
23.62650 83.0
23.63150 64.0
23.63650 82.0
23.64150 76.0
23.64650 86.0
23.65150 69.0
23.65650 61.0
23.66150 88.0
23.66650 80.0
23.67150 74.0
23.67650 77.0
23.68150 70.0
23.68650 87.0
23.69150 73.0
23.69650 80.0
23.70150 68.0
23.70650 75.0
23.71150 77.0
23.71650 77.0
23.72150 82.0
23.72650 84.0
23.73150 74.0
23.73650 98.0
23.74150 94.0
23.74650 101.0
23.75150 100.0
23.75650 101.0
23.76150 104.0
23.76650 95.0
23.77150 105.0
23.77650 119.0
23.78150 80.0
23.78650 94.0
23.79150 88.0
23.79650 98.0
23.80150 95.0
23.80650 105.0
23.81150 116.0
23.81650 98.0
23.82150 111.0
23.82650 106.0
23.83150 113.0
23.83650 104.0
23.84150 115.0
23.84650 125.0
23.85150 105.0
23.85650 78.0
23.86150 105.0
23.86650 129.0
23.87150 102.0
23.87650 108.0
23.88150 117.0
23.88650 118.0
23.89150 129.0
23.89650 132.0
23.90150 135.0
23.90650 99.0
23.91150 144.0
23.91650 123.0
23.92150 136.0
23.92650 137.0
23.93150 126.0
23.93650 141.0
23.94150 125.0
23.94650 134.0
23.95150 127.0
23.95650 144.0
23.96150 142.0
23.96650 139.0
23.97150 139.0
23.97650 123.0
23.98150 151.0
23.98650 155.0
23.99150 151.0
23.99650 158.0
24.00150 146.0
24.00650 152.0
24.01150 157.0
24.01650 135.0
24.02150 152.0
24.02650 157.0
24.03150 183.0
24.03650 158.0
24.04150 170.0
24.04650 168.0
24.05150 196.0
24.05650 153.0
24.06150 185.0
24.06650 156.0
24.07150 193.0
24.07650 186.0
24.08150 171.0
24.08650 191.0
24.09150 182.0
24.09650 173.0
24.10150 175.0
24.10650 174.0
24.11150 202.0
24.11650 175.0
24.12150 181.0
24.12650 198.0
24.13150 219.0
24.13650 224.0
24.14150 187.0
24.14650 232.0
24.15150 232.0
24.15650 233.0
24.16150 190.0
24.16650 244.0
24.17150 215.0
24.17650 207.0
24.18150 239.0
24.18650 237.0
24.19150 214.0
24.19650 247.0
24.20150 237.0
24.20650 243.0
24.21150 230.0
24.21650 267.0
24.22150 269.0
24.22650 273.0
24.23150 245.0
24.23650 243.0
24.24150 239.0
24.24650 278.0
24.25150 297.0
24.25650 296.0
24.26150 293.0
24.26650 290.0
24.27150 310.0
24.27650 288.0
24.28150 301.0
24.28650 319.0
24.29150 317.0
24.29650 296.0
24.30150 320.0
24.30650 338.0
24.31150 321.0
24.31650 351.0
24.32150 334.0
24.32650 364.0
24.33150 341.0
24.33650 380.0
24.34150 381.0
24.34650 382.0
24.35150 351.0
24.35650 370.0
24.36150 380.0
24.36650 337.0
24.37150 383.0
24.37650 405.0
24.38150 394.0
24.38650 411.0
24.39150 416.0
24.39650 449.0
24.40150 435.0
24.40650 415.0
24.41150 467.0
24.41650 455.0
24.42150 463.0
24.42650 440.0
24.43150 478.0
24.43650 473.0
24.44150 523.0
24.44650 541.0
24.45150 455.0
24.45650 495.0
24.46150 523.0
24.46650 536.0
24.47150 546.0
24.47650 540.0
24.48150 587.0
24.48650 611.0
24.49150 618.0
24.49650 659.0
24.50150 603.0
24.50650 602.0
24.51150 641.0
24.51650 635.0
24.52150 629.0
24.52650 711.0
24.53150 641.0
24.53650 677.0
24.54150 700.0
24.54650 684.0
24.55150 752.0
24.55650 714.0
24.56150 760.0
24.56650 782.0
24.57150 743.0
24.57650 802.0
24.58150 798.0
24.58650 874.0
24.59150 876.0
24.59650 827.0
24.60150 922.0
24.60650 874.0
24.61150 936.0
24.61650 903.0
24.62150 969.0
24.62650 1066.0
24.63150 989.0
24.63650 1009.0
24.64150 1108.0
24.64650 1087.0
24.65150 1081.0
24.65650 1097.0
24.66150 1156.0
24.66650 1230.0
24.67150 1193.0
24.67650 1262.0
24.68150 1297.0
24.68650 1272.0
24.69150 1294.0
24.69650 1322.0
24.70150 1345.0
24.70650 1393.0
24.71150 1361.0
24.71650 1435.0
24.72150 1499.0
24.72650 1455.0
24.73150 1523.0
24.73650 1560.0
24.74150 1655.0
24.74650 1562.0
24.75150 1689.0
24.75650 1685.0
24.76150 1737.0
24.76650 1742.0
24.77150 1765.0
24.77650 1776.0
24.78150 1819.0
24.78650 1872.0
24.79150 1856.0
24.79650 1926.0
24.80150 1966.0
24.80650 2007.0
24.81150 2085.0
24.81650 2107.0
24.82150 2243.0
24.82650 2245.0
24.83150 2162.0
24.83650 2242.0
24.84150 2359.0
24.84650 2281.0
24.85150 2379.0
24.85650 2390.0
24.86150 2406.0
24.86650 2463.0
24.87150 2409.0
24.87650 2544.0
24.88150 2554.0
24.88650 2610.0
24.89150 2642.0
24.89650 2647.0
24.90150 2745.0
24.90650 2821.0
24.91150 2939.0
24.91650 2904.0
24.92150 2942.0
24.92650 2894.0
24.93150 2949.0
24.93650 2968.0
24.94150 3011.0
24.94650 3085.0
24.95150 3136.0
24.95650 3176.0
24.96150 3211.0
24.96650 3335.0
24.97150 3175.0
24.97650 3312.0
24.98150 3248.0
24.98650 3320.0
24.99150 3330.0
24.99650 3339.0
25.00150 3442.0
25.00650 3343.0
25.01150 3441.0
25.01650 3525.0
25.02150 3419.0
25.02650 3504.0
25.03150 3427.0
25.03650 3520.0
25.04150 3394.0
25.04650 3435.0
25.05150 3512.0
25.05650 3592.0
25.06150 3528.0
25.06650 3401.0
25.07150 3444.0
25.07650 3390.0
25.08150 3541.0
25.08650 3427.0
25.09150 3383.0
25.09650 3486.0
25.10150 3366.0
25.10650 3367.0
25.11150 3320.0
25.11650 3321.0
25.12150 3290.0
25.12650 3229.0
25.13150 3226.0
25.13650 3103.0
25.14150 3197.0
25.14650 3192.0
25.15150 3110.0
25.15650 3026.0
25.16150 2955.0
25.16650 3010.0
25.17150 2876.0
25.17650 2937.0
25.18150 2899.0
25.18650 2826.0
25.19150 2803.0
25.19650 2707.0
25.20150 2644.0
25.20650 2567.0
25.21150 2469.0
25.21650 2417.0
25.22150 2482.0
25.22650 2344.0
25.23150 2380.0
25.23650 2335.0
25.24150 2295.0
25.24650 2278.0
25.25150 2168.0
25.25650 2212.0
25.26150 2174.0
25.26650 2079.0
25.27150 2163.0
25.27650 1956.0
25.28150 1953.0
25.28650 1970.0
25.29150 1868.0
25.29650 1825.0
25.30150 1735.0
25.30650 1785.0
25.31150 1675.0
25.31650 1612.0
25.32150 1655.0
25.32650 1633.0
25.33150 1614.0
25.33650 1530.0
25.34150 1495.0
25.34650 1507.0
25.35150 1502.0
25.35650 1387.0
25.36150 1383.0
25.36650 1338.0
25.37150 1241.0
25.37650 1229.0
25.38150 1185.0
25.38650 1196.0
25.39150 1159.0
25.39650 1113.0
25.40150 1132.0
25.40650 1077.0
25.41150 1038.0
25.41650 986.0
25.42150 1001.0
25.42650 972.0
25.43150 963.0
25.43650 981.0
25.44150 934.0
25.44650 832.0
25.45150 901.0
25.45650 856.0
25.46150 798.0
25.46650 780.0
25.47150 752.0
25.47650 754.0
25.48150 725.0
25.48650 737.0
25.49150 707.0
25.49650 664.0
25.50150 656.0
25.50650 621.0
25.51150 647.0
25.51650 641.0
25.52150 654.0
25.52650 606.0
25.53150 587.0
25.53650 589.0
25.54150 564.0
25.54650 534.0
25.55150 491.0
25.55650 499.0
25.56150 514.0
25.56650 515.0
25.57150 454.0
25.57650 440.0
25.58150 452.0
25.58650 474.0
25.59150 418.0
25.59650 448.0
25.60150 370.0
25.60650 412.0
25.61150 393.0
25.61650 343.0
25.62150 361.0
25.62650 386.0
25.63150 335.0
25.63650 348.0
25.64150 321.0
25.64650 324.0
25.65150 293.0
25.65650 341.0
25.66150 277.0
25.66650 269.0
25.67150 308.0
25.67650 256.0
25.68150 284.0
25.68650 295.0
25.69150 258.0
25.69650 267.0
25.70150 254.0
25.70650 254.0
25.71150 248.0
25.71650 195.0
25.72150 205.0
25.72650 219.0
25.73150 227.0
25.73650 179.0
25.74150 209.0
25.74650 224.0
25.75150 227.0
25.75650 186.0
25.76150 188.0
25.76650 185.0
25.77150 199.0
25.77650 179.0
25.78150 195.0
25.78650 159.0
25.79150 149.0
25.79650 177.0
25.80150 135.0
25.80650 170.0
25.81150 155.0
25.81650 147.0
25.82150 143.0
25.82650 142.0
25.83150 155.0
25.83650 130.0
25.84150 137.0
25.84650 155.0
25.85150 142.0
25.85650 128.0
25.86150 127.0
25.86650 122.0
25.87150 121.0
25.87650 138.0
25.88150 126.0
25.88650 107.0
25.89150 120.0
25.89650 112.0
25.90150 111.0
25.90650 122.0
25.91150 104.0
25.91650 112.0
25.92150 94.0
25.92650 102.0
25.93150 92.0
25.93650 98.0
25.94150 101.0
25.94650 101.0
25.95150 103.0
25.95650 98.0
25.96150 115.0
25.96650 98.0
25.97150 81.0
25.97650 81.0
25.98150 80.0
25.98650 77.0
25.99150 89.0
25.99650 83.0
26.00150 91.0
26.00650 94.0
26.01150 79.0
26.01650 91.0
26.02150 85.0
26.02650 82.0
26.03150 90.0
26.03650 79.0
26.04150 73.0
26.04650 71.0
26.05150 91.0
26.05650 79.0
26.06150 76.0
26.06650 83.0
26.07150 78.0
26.07650 73.0
26.08150 70.0
26.08650 72.0
26.09150 62.0
26.09650 68.0
26.10150 60.0
26.10650 62.0
26.11150 66.0
26.11650 59.0
26.12150 84.0
26.12650 66.0
26.13150 79.0
26.13650 71.0
26.14150 63.0
26.14650 74.0
26.15150 58.0
26.15650 56.0
26.16150 52.0
26.16650 56.0
26.17150 54.0
26.17650 51.0
26.18150 66.0
26.18650 58.0
26.19150 56.0
26.19650 57.0
26.20150 55.0
26.20650 65.0
26.21150 48.0
26.21650 66.0
26.22150 67.0
26.22650 62.0
26.23150 51.0
26.23650 55.0
26.24150 45.0
26.24650 50.0
26.25150 62.0
26.25650 53.0
26.26150 48.0
26.26650 37.0
26.27150 48.0
26.27650 37.0
26.28150 50.0
26.28650 41.0
26.29150 56.0
26.29650 49.0
26.30150 42.0
26.30650 43.0
26.31150 49.0
26.31650 55.0
26.32150 61.0
26.32650 50.0
26.33150 57.0
26.33650 51.0
26.34150 62.0
26.34650 56.0
26.35150 51.0
26.35650 41.0
26.36150 43.0
26.36650 40.0
26.37150 46.0
26.37650 37.0
26.38150 31.0
26.38650 40.0
26.39150 52.0
26.39650 32.0
26.40150 45.0
26.40650 44.0
26.41150 38.0
26.41650 35.0
26.42150 37.0
26.42650 29.0
26.43150 36.0
26.43650 45.0
26.44150 50.0
26.44650 41.0
26.45150 40.0
26.45650 48.0
26.46150 49.0
26.46650 37.0
26.47150 28.0
26.47650 42.0
26.48150 37.0
26.48650 36.0
26.49150 39.0
26.49650 34.0
26.50150 32.0
26.50650 35.0
26.51150 35.0
26.51650 37.0
26.52150 43.0
26.52650 43.0
26.53150 41.0
26.53650 33.0
26.54150 38.0
26.54650 46.0
26.55150 35.0
26.55650 38.0
26.56150 33.0
26.56650 33.0
26.57150 41.0
26.57650 26.0
26.58150 35.0
26.58650 33.0
26.59150 33.0
26.59650 38.0
26.60150 33.0
26.60650 40.0
26.61150 34.0
26.61650 38.0
26.62150 27.0
26.62650 33.0
26.63150 38.0
26.63650 26.0
26.64150 35.0
26.64650 43.0
26.65150 38.0
26.65650 41.0
26.66150 38.0
26.66650 32.0
26.67150 35.0
26.67650 35.0
26.68150 39.0
26.68650 27.0
26.69150 35.0
26.69650 33.0
26.70150 34.0
26.70650 39.0
26.71150 38.0
26.71650 41.0
26.72150 26.0
26.72650 41.0
26.73150 31.0
26.73650 30.0
26.74150 35.0
26.74650 28.0
26.75150 21.0
26.75650 45.0
26.76150 30.0
26.76650 31.0
26.77150 21.0
26.77650 34.0
26.78150 29.0
26.78650 27.0
26.79150 31.0
26.79650 24.0
26.80150 28.0
26.80650 32.0
26.81150 25.0
26.81650 28.0
26.82150 37.0
26.82650 32.0
26.83150 33.0
26.83650 39.0
26.84150 26.0
26.84650 33.0
26.85150 30.0
26.85650 39.0
26.86150 38.0
26.86650 30.0
26.87150 35.0
26.87650 24.0
26.88150 39.0
26.88650 34.0
26.89150 35.0
26.89650 33.0
26.90150 39.0
26.90650 35.0
26.91150 33.0
26.91650 28.0
26.92150 30.0
26.92650 25.0
26.93150 35.0
26.93650 36.0
26.94150 30.0
26.94650 25.0
26.95150 33.0
26.95650 33.0
26.96150 23.0
26.96650 35.0
26.97150 26.0
26.97650 30.0
26.98150 36.0
26.98650 26.0
26.99150 29.0
26.99650 36.0
27.00150 35.0
27.00650 31.0
27.01150 29.0
27.01650 35.0
27.02150 32.0