File: data/W6788c/XRD_Omega/W6788c_Cr2O3_scan_omega_2deg_step_0.002deg0_1.xy
18.57650 387.0
18.57850 379.0
18.58050 379.0
18.58250 385.0
18.58450 387.0
18.58650 419.0
18.58850 382.0
18.59050 381.0
18.59250 391.0
18.59450 389.0
18.59650 379.0
18.59850 402.0
18.60050 424.0
18.60250 422.0
18.60450 384.0
18.60650 392.0
18.60850 400.0
18.61050 424.0
18.61250 383.0
18.61450 387.0
18.61650 414.0
18.61850 434.0
18.62050 442.0
18.62250 464.0
18.62450 432.0
18.62650 412.0
18.62850 449.0
18.63050 408.0
18.63250 444.0
18.63450 423.0
18.63650 428.0
18.63850 396.0
18.64050 443.0
18.64250 454.0
18.64450 432.0
18.64650 472.0
18.64850 432.0
18.65050 455.0
18.65250 440.0
18.65450 448.0
18.65650 471.0
18.65850 448.0
18.66050 439.0
18.66250 435.0
18.66450 440.0
18.66650 411.0
18.66850 449.0
18.67050 432.0
18.67250 454.0
18.67450 443.0
18.67650 439.0
18.67850 449.0
18.68050 437.0
18.68250 466.0
18.68450 439.0
18.68650 428.0
18.68850 465.0
18.69050 454.0
18.69250 515.0
18.69450 456.0
18.69650 460.0
18.69850 454.0
18.70050 464.0
18.70250 506.0
18.70450 488.0
18.70650 448.0
18.70850 506.0
18.71050 450.0
18.71250 499.0
18.71450 467.0
18.71650 434.0
18.71850 475.0
18.72050 458.0
18.72250 511.0
18.72450 461.0
18.72650 500.0
18.72850 502.0
18.73050 503.0
18.73250 484.0
18.73450 498.0
18.73650 508.0
18.73850 508.0
18.74050 520.0
18.74250 491.0
18.74450 540.0
18.74650 478.0
18.74850 513.0
18.75050 492.0
18.75250 534.0
18.75450 562.0
18.75650 523.0
18.75850 495.0
18.76050 499.0
18.76250 508.0
18.76450 508.0
18.76650 496.0
18.76850 545.0
18.77050 556.0
18.77250 530.0
18.77450 545.0
18.77650 525.0
18.77850 573.0
18.78050 574.0
18.78250 569.0
18.78450 601.0
18.78650 532.0
18.78850 525.0
18.79050 561.0
18.79250 565.0
18.79450 561.0
18.79650 515.0
18.79850 528.0
18.80050 546.0
18.80250 564.0
18.80450 553.0
18.80650 562.0
18.80850 549.0
18.81050 577.0
18.81250 524.0
18.81450 615.0
18.81650 592.0
18.81850 634.0
18.82050 616.0
18.82250 630.0
18.82450 588.0
18.82650 613.0
18.82850 623.0
18.83050 573.0
18.83250 597.0
18.83450 571.0
18.83650 659.0
18.83850 590.0
18.84050 640.0
18.84250 574.0
18.84450 579.0
18.84650 584.0
18.84850 590.0
18.85050 564.0
18.85250 624.0
18.85450 641.0
18.85650 606.0
18.85850 613.0
18.86050 660.0
18.86250 677.0
18.86450 680.0
18.86650 674.0
18.86850 654.0
18.87050 656.0
18.87250 632.0
18.87450 620.0
18.87650 719.0
18.87850 647.0
18.88050 607.0
18.88250 660.0
18.88450 632.0
18.88650 652.0
18.88850 694.0
18.89050 678.0
18.89250 662.0
18.89450 680.0
18.89650 685.0
18.89850 683.0
18.90050 643.0
18.90250 676.0
18.90450 721.0
18.90650 667.0
18.90850 703.0
18.91050 696.0
18.91250 690.0
18.91450 642.0
18.91650 727.0
18.91850 740.0
18.92050 688.0
18.92250 662.0
18.92450 718.0
18.92650 722.0
18.92850 716.0
18.93050 727.0
18.93250 725.0
18.93450 769.0
18.93650 735.0
18.93850 752.0
18.94050 770.0
18.94250 719.0
18.94450 739.0
18.94650 699.0
18.94850 776.0
18.95050 712.0
18.95250 739.0
18.95450 715.0
18.95650 743.0
18.95850 760.0
18.96050 757.0
18.96250 779.0
18.96450 752.0
18.96650 729.0
18.96850 752.0
18.97050 798.0
18.97250 792.0
18.97450 775.0
18.97650 769.0
18.97850 795.0
18.98050 780.0
18.98250 782.0
18.98450 719.0
18.98650 818.0
18.98850 762.0
18.99050 876.0
18.99250 853.0
18.99450 804.0
18.99650 788.0
18.99850 869.0
19.00050 802.0
19.00250 833.0
19.00450 896.0
19.00650 840.0
19.00850 802.0
19.01050 869.0
19.01250 780.0
19.01450 852.0
19.01650 883.0
19.01850 829.0
19.02050 840.0
19.02250 864.0
19.02450 891.0
19.02650 825.0
19.02850 845.0
19.03050 835.0
19.03250 917.0
19.03450 900.0
19.03650 865.0
19.03850 921.0
19.04050 892.0
19.04250 878.0
19.04450 859.0
19.04650 844.0
19.04850 918.0
19.05050 919.0
19.05250 887.0
19.05450 947.0
19.05650 901.0
19.05850 933.0
19.06050 952.0
19.06250 954.0
19.06450 926.0
19.06650 919.0
19.06850 987.0
19.07050 997.0
19.07250 974.0
19.07450 955.0
19.07650 989.0
19.07850 932.0
19.08050 937.0
19.08250 945.0
19.08450 938.0
19.08650 971.0
19.08850 997.0
19.09050 996.0
19.09250 987.0
19.09450 1006.0
19.09650 1006.0
19.09850 989.0
19.10050 1067.0
19.10250 960.0
19.10450 1023.0
19.10650 987.0
19.10850 1022.0
19.11050 988.0
19.11250 1090.0
19.11450 1010.0
19.11650 1036.0
19.11850 1089.0
19.12050 997.0
19.12250 1027.0
19.12450 1061.0
19.12650 1055.0
19.12850 1007.0
19.13050 1034.0
19.13250 1057.0
19.13450 1035.0
19.13650 1107.0
19.13850 1064.0
19.14050 1030.0
19.14250 1095.0
19.14450 1132.0
19.14650 1105.0
19.14850 1110.0
19.15050 1063.0
19.15250 1064.0
19.15450 1103.0
19.15650 1011.0
19.15850 1150.0
19.16050 1052.0
19.16250 1072.0
19.16450 1081.0
19.16650 1083.0
19.16850 1103.0
19.17050 1099.0
19.17250 1119.0
19.17450 1136.0
19.17650 1150.0
19.17850 1167.0
19.18050 1074.0
19.18250 1146.0
19.18450 1126.0
19.18650 1169.0
19.18850 1197.0
19.19050 1114.0
19.19250 1114.0
19.19450 1099.0
19.19650 1189.0
19.19850 1128.0
19.20050 1155.0
19.20250 1107.0
19.20450 1170.0
19.20650 1205.0
19.20850 1113.0
19.21050 1226.0
19.21250 1135.0
19.21450 1194.0
19.21650 1195.0
19.21850 1187.0
19.22050 1258.0
19.22250 1217.0
19.22450 1254.0
19.22650 1246.0
19.22850 1202.0
19.23050 1178.0
19.23250 1176.0
19.23450 1257.0
19.23650 1319.0
19.23850 1177.0
19.24050 1282.0
19.24250 1241.0
19.24450 1253.0
19.24650 1286.0
19.24850 1295.0
19.25050 1279.0
19.25250 1247.0
19.25450 1160.0
19.25650 1270.0
19.25850 1270.0
19.26050 1193.0
19.26250 1265.0
19.26450 1276.0
19.26650 1326.0
19.26850 1274.0
19.27050 1343.0
19.27250 1259.0
19.27450 1277.0
19.27650 1350.0
19.27850 1345.0
19.28050 1311.0
19.28250 1315.0
19.28450 1301.0
19.28650 1309.0
19.28850 1333.0
19.29050 1240.0
19.29250 1334.0
19.29450 1307.0
19.29650 1273.0
19.29850 1292.0
19.30050 1374.0
19.30250 1363.0
19.30450 1340.0
19.30650 1278.0
19.30850 1338.0
19.31050 1333.0
19.31250 1388.0
19.31450 1316.0
19.31650 1326.0
19.31850 1328.0
19.32050 1258.0
19.32250 1391.0
19.32450 1342.0
19.32650 1352.0
19.32850 1352.0
19.33050 1345.0
19.33250 1359.0
19.33450 1346.0
19.33650 1400.0
19.33850 1386.0
19.34050 1396.0
19.34250 1371.0
19.34450 1417.0
19.34650 1449.0
19.34850 1391.0
19.35050 1357.0
19.35250 1405.0
19.35450 1380.0
19.35650 1395.0
19.35850 1440.0
19.36050 1339.0
19.36250 1441.0
19.36450 1421.0
19.36650 1356.0
19.36850 1471.0
19.37050 1406.0
19.37250 1459.0
19.37450 1402.0
19.37650 1409.0
19.37850 1351.0
19.38050 1431.0
19.38250 1379.0
19.38450 1504.0
19.38650 1435.0
19.38850 1443.0
19.39050 1369.0
19.39250 1369.0
19.39450 1454.0
19.39650 1398.0
19.39850 1408.0
19.40050 1409.0
19.40250 1445.0
19.40450 1450.0
19.40650 1387.0
19.40850 1455.0
19.41050 1453.0
19.41250 1430.0
19.41450 1381.0
19.41650 1454.0
19.41850 1489.0
19.42050 1500.0
19.42250 1513.0
19.42450 1488.0
19.42650 1495.0
19.42850 1457.0
19.43050 1427.0
19.43250 1419.0
19.43450 1538.0
19.43650 1355.0
19.43850 1377.0
19.44050 1410.0
19.44250 1463.0
19.44450 1387.0
19.44650 1466.0
19.44850 1485.0
19.45050 1462.0
19.45250 1481.0
19.45450 1469.0
19.45650 1513.0
19.45850 1494.0
19.46050 1482.0
19.46250 1445.0
19.46450 1493.0
19.46650 1411.0
19.46850 1506.0
19.47050 1523.0
19.47250 1518.0
19.47450 1500.0
19.47650 1428.0
19.47850 1510.0
19.48050 1524.0
19.48250 1493.0
19.48450 1451.0
19.48650 1476.0
19.48850 1471.0
19.49050 1495.0
19.49250 1508.0
19.49450 1510.0
19.49650 1443.0
19.49850 1498.0
19.50050 1502.0
19.50250 1487.0
19.50450 1513.0
19.50650 1477.0
19.50850 1503.0
19.51050 1518.0
19.51250 1487.0
19.51450 1441.0
19.51650 1476.0
19.51850 1502.0
19.52050 1596.0
19.52250 1528.0
19.52450 1535.0
19.52650 1527.0
19.52850 1470.0
19.53050 1479.0
19.53250 1507.0
19.53450 1520.0
19.53650 1480.0
19.53850 1514.0
19.54050 1444.0
19.54250 1486.0
19.54450 1524.0
19.54650 1545.0
19.54850 1509.0
19.55050 1425.0
19.55250 1493.0
19.55450 1506.0
19.55650 1521.0
19.55850 1471.0
19.56050 1493.0
19.56250 1531.0
19.56450 1517.0
19.56650 1414.0
19.56850 1478.0
19.57050 1509.0
19.57250 1471.0
19.57450 1489.0
19.57650 1473.0
19.57850 1416.0
19.58050 1500.0
19.58250 1381.0
19.58450 1435.0
19.58650 1433.0
19.58850 1434.0
19.59050 1428.0
19.59250 1428.0
19.59450 1382.0
19.59650 1473.0
19.59850 1498.0
19.60050 1463.0
19.60250 1464.0
19.60450 1447.0
19.60650 1477.0
19.60850 1432.0
19.61050 1449.0
19.61250 1455.0
19.61450 1478.0
19.61650 1486.0
19.61850 1433.0
19.62050 1431.0
19.62250 1354.0
19.62450 1428.0
19.62650 1486.0
19.62850 1434.0
19.63050 1397.0
19.63250 1508.0
19.63450 1448.0
19.63650 1472.0
19.63850 1515.0
19.64050 1442.0
19.64250 1392.0
19.64450 1441.0
19.64650 1419.0
19.64850 1328.0
19.65050 1418.0
19.65250 1428.0
19.65450 1496.0
19.65650 1369.0
19.65850 1358.0
19.66050 1442.0
19.66250 1439.0
19.66450 1412.0
19.66650 1341.0
19.66850 1448.0
19.67050 1415.0
19.67250 1406.0
19.67450 1289.0
19.67650 1522.0
19.67850 1455.0
19.68050 1384.0
19.68250 1359.0
19.68450 1418.0
19.68650 1450.0
19.68850 1387.0
19.69050 1426.0
19.69250 1415.0
19.69450 1396.0
19.69650 1388.0
19.69850 1387.0
19.70050 1367.0
19.70250 1363.0
19.70450 1378.0
19.70650 1413.0
19.70850 1312.0
19.71050 1337.0
19.71250 1437.0
19.71450 1360.0
19.71650 1348.0
19.71850 1337.0
19.72050 1396.0
19.72250 1340.0
19.72450 1301.0
19.72650 1366.0
19.72850 1377.0
19.73050 1344.0
19.73250 1302.0
19.73450 1345.0
19.73650 1364.0
19.73850 1370.0
19.74050 1343.0
19.74250 1312.0
19.74450 1285.0
19.74650 1379.0
19.74850 1347.0
19.75050 1336.0
19.75250 1319.0
19.75450 1278.0
19.75650 1273.0
19.75850 1278.0
19.76050 1260.0
19.76250 1288.0
19.76450 1270.0
19.76650 1297.0
19.76850 1266.0
19.77050 1233.0
19.77250 1280.0
19.77450 1164.0
19.77650 1329.0
19.77850 1238.0
19.78050 1371.0
19.78250 1333.0
19.78450 1336.0
19.78650 1314.0
19.78850 1270.0
19.79050 1380.0
19.79250 1314.0
19.79450 1288.0
19.79650 1304.0
19.79850 1265.0
19.80050 1283.0
19.80250 1244.0
19.80450 1294.0
19.80650 1286.0
19.80850 1246.0
19.81050 1324.0
19.81250 1239.0
19.81450 1217.0
19.81650 1242.0
19.81850 1293.0
19.82050 1261.0
19.82250 1252.0
19.82450 1331.0
19.82650 1273.0
19.82850 1287.0
19.83050 1210.0
19.83250 1222.0
19.83450 1204.0
19.83650 1248.0
19.83850 1228.0
19.84050 1249.0
19.84250 1224.0
19.84450 1260.0
19.84650 1233.0
19.84850 1243.0
19.85050 1165.0
19.85250 1191.0
19.85450 1171.0
19.85650 1114.0
19.85850 1185.0
19.86050 1215.0
19.86250 1170.0
19.86450 1214.0
19.86650 1140.0
19.86850 1070.0
19.87050 1157.0
19.87250 1162.0
19.87450 1136.0
19.87650 1208.0
19.87850 1165.0
19.88050 1165.0
19.88250 1177.0
19.88450 1152.0
19.88650 1151.0
19.88850 1187.0
19.89050 1136.0
19.89250 1147.0
19.89450 1177.0
19.89650 1204.0
19.89850 1144.0
19.90050 1134.0
19.90250 1122.0
19.90450 1079.0
19.90650 1150.0
19.90850 1124.0
19.91050 1152.0
19.91250 1149.0
19.91450 1152.0
19.91650 1164.0
19.91850 1161.0
19.92050 1186.0
19.92250 1213.0
19.92450 1201.0
19.92650 1234.0
19.92850 1183.0
19.93050 1274.0
19.93250 1253.0
19.93450 1268.0
19.93650 1296.0
19.93850 1301.0
19.94050 1351.0
19.94250 1265.0
19.94450 1330.0
19.94650 1362.0
19.94850 1349.0
19.95050 1399.0
19.95250 1369.0
19.95450 1411.0
19.95650 1351.0
19.95850 1259.0
19.96050 1344.0
19.96250 1245.0
19.96450 1298.0
19.96650 1222.0
19.96850 1189.0
19.97050 1220.0
19.97250 1275.0
19.97450 1208.0
19.97650 1193.0
19.97850 1105.0
19.98050 1176.0
19.98250 1157.0
19.98450 1085.0
19.98650 1127.0
19.98850 1123.0
19.99050 1107.0
19.99250 1130.0
19.99450 1132.0
19.99650 1131.0
19.99850 1072.0
20.00050 1107.0
20.00250 1053.0
20.00450 1068.0
20.00650 1099.0
20.00850 1085.0
20.01050 1032.0
20.01250 1063.0
20.01450 1086.0
20.01650 1064.0
20.01850 1038.0
20.02050 1060.0
20.02250 1116.0
20.02450 1049.0
20.02650 1061.0
20.02850 1071.0
20.03050 1077.0
20.03250 1033.0
20.03450 1086.0
20.03650 1086.0
20.03850 1059.0
20.04050 988.0
20.04250 1004.0
20.04450 1085.0
20.04650 968.0
20.04850 971.0
20.05050 983.0
20.05250 952.0
20.05450 988.0
20.05650 932.0
20.05850 1004.0
20.06050 935.0
20.06250 949.0
20.06450 927.0
20.06650 1012.0
20.06850 982.0
20.07050 933.0
20.07250 961.0
20.07450 1007.0
20.07650 963.0
20.07850 944.0
20.08050 940.0
20.08250 955.0
20.08450 962.0
20.08650 968.0
20.08850 945.0
20.09050 931.0
20.09250 918.0
20.09450 915.0
20.09650 925.0
20.09850 977.0
20.10050 933.0
20.10250 947.0
20.10450 965.0
20.10650 904.0
20.10850 919.0
20.11050 904.0
20.11250 907.0
20.11450 890.0
20.11650 929.0
20.11850 886.0
20.12050 928.0
20.12250 885.0
20.12450 869.0
20.12650 883.0
20.12850 864.0
20.13050 867.0
20.13250 852.0
20.13450 869.0
20.13650 878.0
20.13850 860.0
20.14050 909.0
20.14250 859.0
20.14450 847.0
20.14650 876.0
20.14850 855.0
20.15050 869.0
20.15250 890.0
20.15450 824.0
20.15650 786.0
20.15850 801.0
20.16050 791.0
20.16250 815.0
20.16450 806.0
20.16650 812.0
20.16850 830.0
20.17050 839.0
20.17250 851.0
20.17450 768.0
20.17650 775.0
20.17850 766.0
20.18050 797.0
20.18250 812.0
20.18450 757.0
20.18650 759.0
20.18850 739.0
20.19050 776.0
20.19250 806.0
20.19450 758.0
20.19650 844.0
20.19850 771.0
20.20050 775.0
20.20250 757.0
20.20450 752.0
20.20650 749.0
20.20850 738.0
20.21050 755.0
20.21250 756.0
20.21450 755.0
20.21650 736.0
20.21850 688.0
20.22050 751.0
20.22250 679.0
20.22450 739.0
20.22650 736.0
20.22850 815.0
20.23050 721.0
20.23250 691.0
20.23450 703.0
20.23650 710.0
20.23850 703.0
20.24050 717.0
20.24250 652.0
20.24450 740.0
20.24650 694.0
20.24850 647.0
20.25050 693.0
20.25250 640.0
20.25450 709.0
20.25650 659.0
20.25850 678.0
20.26050 673.0
20.26250 720.0
20.26450 674.0
20.26650 700.0
20.26850 656.0
20.27050 646.0
20.27250 697.0
20.27450 646.0
20.27650 615.0
20.27850 649.0
20.28050 662.0
20.28250 634.0
20.28450 603.0
20.28650 629.0
20.28850 668.0
20.29050 635.0
20.29250 625.0
20.29450 654.0
20.29650 646.0
20.29850 615.0
20.30050 595.0
20.30250 607.0
20.30450 654.0
20.30650 597.0
20.30850 599.0
20.31050 618.0
20.31250 632.0
20.31450 606.0
20.31650 588.0
20.31850 605.0
20.32050 627.0
20.32250 588.0
20.32450 600.0
20.32650 583.0
20.32850 599.0
20.33050 593.0
20.33250 574.0
20.33450 566.0
20.33650 607.0
20.33850 581.0
20.34050 602.0
20.34250 563.0
20.34450 559.0
20.34650 571.0
20.34850 563.0
20.35050 631.0
20.35250 573.0
20.35450 575.0
20.35650 542.0
20.35850 583.0
20.36050 571.0
20.36250 549.0
20.36450 575.0
20.36650 600.0
20.36850 539.0
20.37050 577.0
20.37250 529.0
20.37450 559.0
20.37650 533.0
20.37850 590.0
20.38050 549.0
20.38250 544.0
20.38450 546.0
20.38650 553.0
20.38850 512.0
20.39050 544.0
20.39250 528.0
20.39450 565.0
20.39650 530.0
20.39850 557.0
20.40050 545.0
20.40250 545.0
20.40450 501.0
20.40650 555.0
20.40850 457.0
20.41050 516.0
20.41250 527.0
20.41450 463.0
20.41650 513.0
20.41850 525.0
20.42050 473.0
20.42250 523.0
20.42450 515.0
20.42650 489.0
20.42850 510.0
20.43050 519.0
20.43250 537.0
20.43450 458.0
20.43650 522.0
20.43850 474.0
20.44050 472.0
20.44250 478.0
20.44450 489.0
20.44650 467.0
20.44850 472.0
20.45050 481.0
20.45250 521.0
20.45450 490.0
20.45650 508.0
20.45850 442.0
20.46050 487.0
20.46250 476.0
20.46450 514.0
20.46650 467.0
20.46850 449.0
20.47050 442.0
20.47250 486.0
20.47450 513.0
20.47650 468.0
20.47850 441.0
20.48050 432.0
20.48250 439.0
20.48450 449.0
20.48650 456.0
20.48850 415.0
20.49050 475.0
20.49250 440.0
20.49450 446.0
20.49650 446.0
20.49850 437.0
20.50050 429.0
20.50250 444.0
20.50450 463.0
20.50650 432.0
20.50850 441.0
20.51050 424.0
20.51250 462.0
20.51450 444.0
20.51650 442.0
20.51850 456.0
20.52050 423.0
20.52250 412.0
20.52450 457.0
20.52650 454.0
20.52850 462.0
20.53050 441.0
20.53250 424.0
20.53450 426.0
20.53650 460.0
20.53850 433.0
20.54050 388.0
20.54250 350.0
20.54450 447.0
20.54650 392.0
20.54850 410.0
20.55050 425.0
20.55250 363.0
20.55450 419.0
20.55650 391.0
20.55850 398.0
20.56050 419.0