File: data/W6903m/XRD_Omega/scan_omega_4deg_step_0.005deg0_C4_2.xy
29.46010 94.0
29.46510 78.0
29.47010 92.0
29.47510 92.0
29.48010 76.0
29.48510 89.0
29.49010 69.0
29.49510 82.0
29.50010 83.0
29.50510 79.0
29.51010 96.0
29.51510 77.0
29.52010 90.0
29.52510 89.0
29.53010 73.0
29.53510 79.0
29.54010 85.0
29.54510 85.0
29.55010 72.0
29.55510 91.0
29.56010 88.0
29.56510 86.0
29.57010 82.0
29.57510 76.0
29.58010 80.0
29.58510 88.0
29.59010 91.0
29.59510 87.0
29.60010 90.0
29.60510 72.0
29.61010 92.0
29.61510 82.0
29.62010 78.0
29.62510 95.0
29.63010 95.0
29.63510 101.0
29.64010 80.0
29.64510 78.0
29.65010 71.0
29.65510 85.0
29.66010 95.0
29.66510 91.0
29.67010 85.0
29.67510 83.0
29.68010 89.0
29.68510 95.0
29.69010 98.0
29.69510 88.0
29.70010 99.0
29.70510 95.0
29.71010 98.0
29.71510 86.0
29.72010 95.0
29.72510 81.0
29.73010 88.0
29.73510 89.0
29.74010 99.0
29.74510 94.0
29.75010 83.0
29.75510 88.0
29.76010 78.0
29.76510 107.0
29.77010 98.0
29.77510 94.0
29.78010 96.0
29.78510 83.0
29.79010 95.0
29.79510 88.0
29.80010 90.0
29.80510 112.0
29.81010 98.0
29.81510 107.0
29.82010 79.0
29.82510 93.0
29.83010 79.0
29.83510 98.0
29.84010 95.0
29.84510 100.0
29.85010 100.0
29.85510 84.0
29.86010 121.0
29.86510 103.0
29.87010 88.0
29.87510 106.0
29.88010 97.0
29.88510 98.0
29.89010 110.0
29.89510 115.0
29.90010 92.0
29.90510 111.0
29.91010 91.0
29.91510 103.0
29.92010 99.0
29.92510 93.0
29.93010 119.0
29.93510 95.0
29.94010 122.0
29.94510 94.0
29.95010 106.0
29.95510 91.0
29.96010 116.0
29.96510 128.0
29.97010 111.0
29.97510 91.0
29.98010 108.0
29.98510 119.0
29.99010 125.0
29.99510 135.0
30.00010 108.0
30.00510 106.0
30.01010 101.0
30.01510 107.0
30.02010 112.0
30.02510 115.0
30.03010 116.0
30.03510 113.0
30.04010 109.0
30.04510 98.0
30.05010 117.0
30.05510 119.0
30.06010 123.0
30.06510 101.0
30.07010 107.0
30.07510 123.0
30.08010 105.0
30.08510 131.0
30.09010 100.0
30.09510 112.0
30.10010 113.0
30.10510 114.0
30.11010 126.0
30.11510 141.0
30.12010 132.0
30.12510 116.0
30.13010 120.0
30.13510 137.0
30.14010 144.0
30.14510 148.0
30.15010 114.0
30.15510 115.0
30.16010 117.0
30.16510 125.0
30.17010 124.0
30.17510 126.0
30.18010 129.0
30.18510 115.0
30.19010 137.0
30.19510 122.0
30.20010 111.0
30.20510 148.0
30.21010 127.0
30.21510 153.0
30.22010 125.0
30.22510 131.0
30.23010 139.0
30.23510 153.0
30.24010 157.0
30.24510 140.0
30.25010 140.0
30.25510 157.0
30.26010 131.0
30.26510 165.0
30.27010 151.0
30.27510 168.0
30.28010 162.0
30.28510 135.0
30.29010 165.0
30.29510 173.0
30.30010 166.0
30.30510 156.0
30.31010 144.0
30.31510 168.0
30.32010 159.0
30.32510 185.0
30.33010 180.0
30.33510 154.0
30.34010 142.0
30.34510 175.0
30.35010 176.0
30.35510 169.0
30.36010 174.0
30.36510 185.0
30.37010 176.0
30.37510 166.0
30.38010 154.0
30.38510 173.0
30.39010 183.0
30.39510 201.0
30.40010 188.0
30.40510 184.0
30.41010 180.0
30.41510 203.0
30.42010 202.0
30.42510 172.0
30.43010 241.0
30.43510 211.0
30.44010 203.0
30.44510 193.0
30.45010 202.0
30.45510 209.0
30.46010 223.0
30.46510 199.0
30.47010 219.0
30.47510 241.0
30.48010 233.0
30.48510 203.0
30.49010 230.0
30.49510 238.0
30.50010 253.0
30.50510 238.0
30.51010 239.0
30.51510 256.0
30.52010 269.0
30.52510 246.0
30.53010 279.0
30.53510 264.0
30.54010 289.0
30.54510 292.0
30.55010 259.0
30.55510 290.0
30.56010 299.0
30.56510 262.0
30.57010 273.0
30.57510 291.0
30.58010 306.0
30.58510 276.0
30.59010 297.0
30.59510 321.0
30.60010 313.0
30.60510 333.0
30.61010 334.0
30.61510 357.0
30.62010 345.0
30.62510 296.0
30.63010 372.0
30.63510 341.0
30.64010 363.0
30.64510 352.0
30.65010 402.0
30.65510 360.0
30.66010 392.0
30.66510 385.0
30.67010 390.0
30.67510 414.0
30.68010 416.0
30.68510 441.0
30.69010 435.0
30.69510 425.0
30.70010 420.0
30.70510 461.0
30.71010 457.0
30.71510 465.0
30.72010 483.0
30.72510 486.0
30.73010 443.0
30.73510 506.0
30.74010 533.0
30.74510 555.0
30.75010 498.0
30.75510 530.0
30.76010 534.0
30.76510 573.0
30.77010 576.0
30.77510 543.0
30.78010 547.0
30.78510 551.0
30.79010 618.0
30.79510 605.0
30.80010 638.0
30.80510 606.0
30.81010 656.0
30.81510 665.0
30.82010 626.0
30.82510 686.0
30.83010 730.0
30.83510 728.0
30.84010 736.0
30.84510 762.0
30.85010 745.0
30.85510 765.0
30.86010 780.0
30.86510 767.0
30.87010 839.0
30.87510 857.0
30.88010 831.0
30.88510 860.0
30.89010 849.0
30.89510 875.0
30.90010 933.0
30.90510 975.0
30.91010 929.0
30.91510 955.0
30.92010 996.0
30.92510 1049.0
30.93010 1087.0
30.93510 1074.0
30.94010 1108.0
30.94510 1097.0
30.95010 1118.0
30.95510 1190.0
30.96010 1171.0
30.96510 1232.0
30.97010 1223.0
30.97510 1253.0
30.98010 1240.0
30.98510 1314.0
30.99010 1334.0
30.99510 1377.0
31.00010 1435.0
31.00510 1428.0
31.01010 1481.0
31.01510 1559.0
31.02010 1538.0
31.02510 1487.0
31.03010 1554.0
31.03510 1576.0
31.04010 1679.0
31.04510 1682.0
31.05010 1824.0
31.05510 1736.0
31.06010 1819.0
31.06510 1755.0
31.07010 1976.0
31.07510 1963.0
31.08010 1949.0
31.08510 2044.0
31.09010 2084.0
31.09510 2151.0
31.10010 2222.0
31.10510 2299.0
31.11010 2364.0
31.11510 2291.0
31.12010 2442.0
31.12510 2480.0
31.13010 2365.0
31.13510 2531.0
31.14010 2650.0
31.14510 2654.0
31.15010 2758.0
31.15510 2687.0
31.16010 2915.0
31.16510 2796.0
31.17010 2906.0
31.17510 2972.0
31.18010 3119.0
31.18510 3165.0
31.19010 3336.0
31.19510 3449.0
31.20010 3384.0
31.20510 3577.0
31.21010 3625.0
31.21510 3721.0
31.22010 3802.0
31.22510 3792.0
31.23010 3847.0
31.23510 3957.0
31.24010 4163.0
31.24510 4200.0
31.25010 4306.0
31.25510 4279.0
31.26010 4423.0
31.26510 4455.0
31.27010 4559.0
31.27510 4609.0
31.28010 4745.0
31.28510 4838.0
31.29010 4834.0
31.29510 5074.0
31.30010 5230.0
31.30510 5168.0
31.31010 5287.0
31.31510 5367.0
31.32010 5409.0
31.32510 5503.0
31.33010 5737.0
31.33510 5757.0
31.34010 5638.0
31.34510 5883.0
31.35010 5636.0
31.35510 5976.0
31.36010 6058.0
31.36510 5996.0
31.37010 5819.0
31.37510 6057.0
31.38010 5977.0
31.38510 6177.0
31.39010 6080.0
31.39510 6119.0
31.40010 5986.0
31.40510 6191.0
31.41010 6070.0
31.41510 6276.0
31.42010 6296.0
31.42510 6166.0
31.43010 6261.0
31.43510 6265.0
31.44010 6269.0
31.44510 6215.0
31.45010 6170.0
31.45510 6192.0
31.46010 6060.0
31.46510 6112.0
31.47010 6195.0
31.47510 6126.0
31.48010 6272.0
31.48510 6180.0
31.49010 6060.0
31.49510 5953.0
31.50010 5981.0
31.50510 6006.0
31.51010 5899.0
31.51510 5988.0
31.52010 5858.0
31.52510 5870.0
31.53010 5801.0
31.53510 5759.0
31.54010 5769.0
31.54510 5696.0
31.55010 5691.0
31.55510 5725.0
31.56010 5621.0
31.56510 5644.0
31.57010 5576.0
31.57510 5512.0
31.58010 5440.0
31.58510 5377.0
31.59010 5200.0
31.59510 5145.0
31.60010 5175.0
31.60510 5074.0
31.61010 5040.0
31.61510 5070.0
31.62010 5125.0
31.62510 4882.0
31.63010 4882.0
31.63510 4722.0
31.64010 4627.0
31.64510 4599.0
31.65010 4713.0
31.65510 4653.0
31.66010 4491.0
31.66510 4373.0
31.67010 4346.0
31.67510 4263.0
31.68010 4262.0
31.68510 4028.0
31.69010 4164.0
31.69510 4035.0
31.70010 4007.0
31.70510 3915.0
31.71010 3862.0
31.71510 3782.0
31.72010 3673.0
31.72510 3610.0
31.73010 3629.0
31.73510 3598.0
31.74010 3565.0
31.74510 3491.0
31.75010 3429.0
31.75510 3344.0
31.76010 3308.0
31.76510 3202.0
31.77010 3190.0
31.77510 3125.0
31.78010 3032.0
31.78510 3097.0
31.79010 3120.0
31.79510 2913.0
31.80010 2900.0
31.80510 2853.0
31.81010 2662.0
31.81510 2733.0
31.82010 2727.0
31.82510 2663.0
31.83010 2639.0
31.83510 2495.0
31.84010 2484.0
31.84510 2433.0
31.85010 2336.0
31.85510 2325.0
31.86010 2194.0
31.86510 2254.0
31.87010 2208.0
31.87510 2129.0
31.88010 2167.0
31.88510 2147.0
31.89010 2048.0
31.89510 1975.0
31.90010 1997.0
31.90510 1907.0
31.91010 1987.0
31.91510 1905.0
31.92010 1729.0
31.92510 1769.0
31.93010 1852.0
31.93510 1779.0
31.94010 1720.0
31.94510 1684.0
31.95010 1689.0
31.95510 1588.0
31.96010 1596.0
31.96510 1575.0
31.97010 1478.0
31.97510 1517.0
31.98010 1435.0
31.98510 1417.0
31.99010 1457.0
31.99510 1428.0
32.00010 1410.0
32.00510 1318.0
32.01010 1274.0
32.01510 1330.0
32.02010 1253.0
32.02510 1284.0
32.03010 1188.0
32.03510 1184.0
32.04010 1160.0
32.04510 1231.0
32.05010 1142.0
32.05510 1113.0
32.06010 1135.0
32.06510 1127.0
32.07010 1050.0
32.07510 1009.0
32.08010 1042.0
32.08510 999.0
32.09010 1002.0
32.09510 952.0
32.10010 917.0
32.10510 931.0
32.11010 843.0
32.11510 910.0
32.12010 923.0
32.12510 816.0
32.13010 867.0
32.13510 763.0
32.14010 892.0
32.14510 759.0
32.15010 785.0
32.15510 777.0
32.16010 792.0
32.16510 758.0
32.17010 626.0
32.17510 687.0
32.18010 723.0
32.18510 706.0
32.19010 674.0
32.19510 650.0
32.20010 637.0
32.20510 605.0
32.21010 658.0
32.21510 638.0
32.22010 639.0
32.22510 621.0
32.23010 659.0
32.23510 578.0
32.24010 577.0
32.24510 526.0
32.25010 570.0
32.25510 529.0
32.26010 563.0
32.26510 499.0
32.27010 471.0
32.27510 485.0
32.28010 498.0
32.28510 487.0
32.29010 460.0
32.29510 509.0
32.30010 475.0
32.30510 438.0
32.31010 417.0
32.31510 430.0
32.32010 411.0
32.32510 419.0
32.33010 419.0
32.33510 383.0
32.34010 391.0
32.34510 354.0
32.35010 372.0
32.35510 356.0
32.36010 367.0
32.36510 342.0
32.37010 359.0
32.37510 326.0
32.38010 371.0
32.38510 340.0
32.39010 326.0
32.39510 319.0
32.40010 299.0
32.40510 333.0
32.41010 310.0
32.41510 288.0
32.42010 302.0
32.42510 298.0
32.43010 288.0
32.43510 283.0
32.44010 262.0
32.44510 284.0
32.45010 253.0
32.45510 266.0
32.46010 262.0
32.46510 265.0
32.47010 257.0
32.47510 280.0
32.48010 237.0
32.48510 268.0
32.49010 220.0
32.49510 256.0
32.50010 250.0
32.50510 237.0
32.51010 247.0
32.51510 224.0
32.52010 259.0
32.52510 219.0
32.53010 207.0
32.53510 217.0
32.54010 227.0
32.54510 199.0
32.55010 207.0
32.55510 223.0
32.56010 205.0
32.56510 220.0
32.57010 195.0
32.57510 199.0
32.58010 197.0
32.58510 194.0
32.59010 186.0
32.59510 195.0
32.60010 213.0
32.60510 195.0
32.61010 202.0
32.61510 183.0
32.62010 192.0
32.62510 185.0
32.63010 160.0
32.63510 183.0
32.64010 194.0
32.64510 162.0
32.65010 170.0
32.65510 163.0
32.66010 142.0
32.66510 151.0
32.67010 164.0
32.67510 141.0
32.68010 171.0
32.68510 171.0
32.69010 162.0
32.69510 150.0
32.70010 151.0
32.70510 153.0
32.71010 142.0
32.71510 171.0
32.72010 151.0
32.72510 140.0
32.73010 145.0
32.73510 156.0
32.74010 169.0
32.74510 151.0
32.75010 166.0
32.75510 150.0
32.76010 145.0
32.76510 128.0
32.77010 136.0
32.77510 139.0
32.78010 171.0
32.78510 142.0
32.79010 137.0
32.79510 149.0
32.80010 138.0
32.80510 122.0
32.81010 135.0
32.81510 125.0
32.82010 145.0
32.82510 123.0
32.83010 114.0
32.83510 133.0
32.84010 126.0
32.84510 134.0
32.85010 122.0
32.85510 129.0
32.86010 115.0
32.86510 109.0
32.87010 139.0
32.87510 112.0
32.88010 121.0
32.88510 120.0
32.89010 100.0
32.89510 131.0
32.90010 102.0
32.90510 122.0
32.91010 130.0
32.91510 111.0
32.92010 115.0
32.92510 133.0
32.93010 128.0
32.93510 121.0
32.94010 101.0
32.94510 106.0
32.95010 94.0
32.95510 119.0
32.96010 109.0
32.96510 95.0
32.97010 123.0
32.97510 114.0
32.98010 109.0
32.98510 112.0
32.99010 109.0
32.99510 128.0
33.00010 99.0
33.00510 117.0
33.01010 98.0
33.01510 103.0
33.02010 102.0
33.02510 101.0
33.03010 100.0
33.03510 100.0
33.04010 104.0
33.04510 92.0
33.05010 116.0
33.05510 109.0
33.06010 90.0
33.06510 105.0
33.07010 88.0
33.07510 101.0
33.08010 100.0
33.08510 101.0
33.09010 97.0
33.09510 113.0
33.10010 106.0
33.10510 101.0
33.11010 86.0
33.11510 113.0
33.12010 96.0
33.12510 105.0
33.13010 86.0
33.13510 91.0
33.14010 90.0
33.14510 94.0
33.15010 100.0
33.15510 86.0
33.16010 100.0
33.16510 95.0
33.17010 109.0
33.17510 96.0
33.18010 94.0
33.18510 74.0
33.19010 89.0
33.19510 96.0
33.20010 95.0
33.20510 109.0
33.21010 100.0
33.21510 83.0
33.22010 84.0
33.22510 89.0
33.23010 93.0
33.23510 83.0
33.24010 95.0
33.24510 89.0
33.25010 98.0
33.25510 81.0
33.26010 93.0
33.26510 74.0
33.27010 114.0
33.27510 82.0
33.28010 96.0
33.28510 93.0
33.29010 93.0
33.29510 85.0
33.30010 93.0
33.30510 81.0
33.31010 82.0
33.31510 86.0
33.32010 75.0
33.32510 97.0
33.33010 88.0
33.33510 84.0
33.34010 93.0
33.34510 93.0
33.35010 97.0
33.35510 96.0
33.36010 82.0
33.36510 68.0
33.37010 81.0
33.37510 85.0
33.38010 85.0
33.38510 77.0
33.39010 92.0
33.39510 78.0
33.40010 89.0
33.40510 74.0
33.41010 84.0
33.41510 100.0
33.42010 95.0