File: data/W6776a/XRD_2ThetaOmega/W6776a_absolute_2th-om_10-130deg_PIXscan_17min_11.xy
10.0035 32.0
10.0872 29.0
10.1709 24.0
10.2546 20.0
10.3383 23.0
10.422 20.0
10.5057 18.0
10.5894 28.0
10.6731 30.0
10.7568 24.0
10.8405 21.0
10.9242 30.0
11.0079 18.0
11.0916 26.0
11.1753 27.0
11.259 20.0
11.3428 23.0
11.4265 12.0
11.5102 30.0
11.5939 21.0
11.6776 31.0
11.7613 25.0
11.845 26.0
11.9287 30.0
12.0124 30.0
12.0961 26.0
12.1798 25.0
12.2635 28.0
12.3472 26.0
12.4309 28.0
12.5146 23.0
12.5983 20.0
12.682 17.0
12.7657 24.0
12.8495 21.0
12.9332 25.0
13.0169 18.0
13.1006 24.0
13.1843 18.0
13.268 26.0
13.3517 21.0
13.4354 22.0
13.5191 23.0
13.6028 38.0
13.6865 22.0
13.7702 21.0
13.8539 20.0
13.9376 20.0
14.0213 21.0
14.105 21.0
14.1887 25.0
14.2724 19.0
14.3562 25.0
14.4399 27.0
14.5236 24.0
14.6073 20.0
14.691 19.0
14.7747 22.0
14.8584 29.0
14.9421 18.0
15.0258 18.0
15.1095 29.0
15.1932 30.0
15.2769 20.0
15.3606 17.0
15.4443 22.0
15.528 25.0
15.6117 23.0
15.6954 17.0
15.7791 19.0
15.8629 11.0
15.9466 20.0
16.0303 20.0
16.114 23.0
16.1977 7.0
16.2814 14.0
16.3651 11.0
16.4488 19.0
16.5325 23.0
16.6162 17.0
16.6999 24.0
16.7836 18.0
16.8673 21.0
16.951 25.0
17.0347 18.0
17.1184 14.0
17.2021 23.0
17.2858 22.0
17.3696 22.0
17.4533 23.0
17.537 20.0
17.6207 18.0
17.7044 23.0
17.7881 17.0
17.8718 16.0
17.9555 19.0
18.0392 19.0
18.1229 21.0
18.2066 18.0
18.2903 23.0
18.374 17.0
18.4577 22.0
18.5414 24.0
18.6251 17.0
18.7088 13.0
18.7925 17.0
18.8763 17.0
18.96 20.0
19.0437 19.0
19.1274 22.0
19.2111 14.0
19.2948 22.0
19.3785 19.0
19.4622 19.0
19.5459 17.0
19.6296 13.0
19.7133 20.0
19.797 16.0
19.8807 16.0
19.9644 22.0
20.0481 19.0
20.1318 28.0
20.2155 17.0
20.2992 18.0
20.383 22.0
20.4667 17.0
20.5504 21.0
20.6341 16.0
20.7178 21.0
20.8015 15.0
20.8852 23.0
20.9689 13.0
21.0526 20.0
21.1363 8.0
21.22 21.0
21.3037 12.0
21.3874 12.0
21.4711 20.0
21.5548 15.0
21.6385 18.0
21.7222 16.0
21.8059 16.0
21.8897 13.0
21.9734 13.0
22.0571 26.0
22.1408 16.0
22.2245 14.0
22.3082 9.0
22.3919 17.0
22.4756 23.0
22.5593 11.0
22.643 20.0
22.7267 24.0
22.8104 17.0
22.8941 13.0
22.9778 12.0
23.0615 24.0
23.1452 16.0
23.2289 18.0
23.3126 17.0
23.3964 16.0
23.4801 19.0
23.5638 14.0
23.6475 16.0
23.7312 15.0
23.8149 17.0
23.8986 24.0
23.9823 17.0
24.066 21.0
24.1497 17.0
24.2334 16.0
24.3171 12.0
24.4008 14.0
24.4845 19.0
24.5682 20.0
24.6519 16.0
24.7356 16.0
24.8193 13.0
24.9031 15.0
24.9868 15.0
25.0705 22.0
25.1542 16.0
25.2379 14.0
25.3216 14.0
25.4053 14.0
25.489 13.0
25.5727 24.0
25.6564 14.0
25.7401 17.0
25.8238 19.0
25.9075 18.0
25.9912 13.0
26.0749 18.0
26.1586 20.0
26.2423 19.0
26.326 13.0
26.4098 15.0
26.4935 15.0
26.5772 17.0
26.6609 24.0
26.7446 10.0
26.8283 13.0
26.912 15.0
26.9957 28.0
27.0794 16.0
27.1631 12.0
27.2468 19.0
27.3305 17.0
27.4142 16.0
27.4979 12.0
27.5816 19.0
27.6653 13.0
27.749 22.0
27.8327 17.0
27.9165 10.0
28.0002 14.0
28.0839 19.0
28.1676 18.0
28.2513 12.0
28.335 17.0
28.4187 18.0
28.5024 14.0
28.5861 13.0
28.6698 14.0
28.7535 14.0
28.8372 8.0
28.9209 14.0
29.0046 12.0
29.0883 18.0
29.172 16.0
29.2557 21.0
29.3394 18.0
29.4232 9.0
29.5069 17.0
29.5906 19.0
29.6743 20.0
29.758 16.0
29.8417 9.0
29.9254 10.0
30.0091 14.0
30.0928 12.0
30.1765 20.0
30.2602 13.0
30.3439 12.0
30.4276 13.0
30.5113 23.0
30.595 12.0
30.6787 14.0
30.7624 21.0
30.8461 17.0
30.9298 19.0
31.0136 13.0
31.0973 18.0
31.181 25.0
31.2647 18.0
31.3484 16.0
31.4321 9.0
31.5158 15.0
31.5995 12.0
31.6832 20.0
31.7669 12.0
31.8506 18.0
31.9343 21.0
32.018 19.0
32.1017 11.0
32.1854 20.0
32.2691 26.0
32.3528 17.0
32.4365 20.0
32.5203 12.0
32.604 13.0
32.6877 15.0
32.7714 20.0
32.8551 17.0
32.9388 8.0
33.0225 16.0
33.1062 12.0
33.1899 16.0
33.2736 17.0
33.3573 16.0
33.441 19.0
33.5247 17.0
33.6084 16.0
33.6921 19.0
33.7758 22.0
33.8595 26.0
33.9432 84.0
34.027 29.0
34.1107 21.0
34.1944 27.0
34.2781 39.0
34.3618 18.0
34.4455 25.0
34.5292 25.0
34.6129 22.0
34.6966 21.0
34.7803 25.0
34.864 19.0
34.9477 22.0
35.0314 28.0
35.1151 35.0
35.1988 49.0
35.2825 59.0
35.3662 61.0
35.4499 93.0
35.5337 150.0
35.6174 283.0
35.7011 809.0
35.7848 3661.0
35.8685 3107.0
35.9522 1303.0
36.0359 445.0
36.1196 342.0
36.2033 127.0
36.287 88.0
36.3707 111.0
36.4544 68.0
36.5381 42.0
36.6218 34.0
36.7055 57.0
36.7892 40.0
36.8729 44.0
36.9566 57.0
37.0404 64.0
37.1241 77.0
37.2078 65.0
37.2915 104.0
37.3752 115.0
37.4589 177.0
37.5426 578.0
37.6263 974.0
37.71 40248.0
37.7937 18892.0
37.8774 1308.0
37.9611 394.0
38.0448 263.0
38.1285 158.0
38.2122 118.0
38.2959 114.0
38.3796 68.0
38.4633 53.0
38.5471 56.0
38.6308 42.0
38.7145 31.0
38.7982 33.0
38.8819 29.0
38.9656 23.0
39.0493 33.0
39.133 24.0
39.2167 19.0
39.3004 24.0
39.3841 21.0
39.4678 13.0
39.5515 29.0
39.6352 19.0
39.7189 15.0
39.8026 18.0
39.8863 18.0
39.97 22.0
40.0538 10.0
40.1375 19.0
40.2212 19.0
40.3049 20.0
40.3886 17.0
40.4723 12.0
40.556 8.0
40.6397 16.0
40.7234 20.0
40.8071 16.0
40.8908 16.0
40.9745 11.0
41.0582 17.0
41.1419 11.0
41.2256 24.0
41.3093 11.0
41.393 11.0
41.4767 11.0
41.5605 13.0
41.6442 9.0
41.7279 13.0
41.8116 15.0
41.8953 16.0
41.979 14.0
42.0627 13.0
42.1464 15.0
42.2301 14.0
42.3138 10.0
42.3975 12.0
42.4812 19.0
42.5649 12.0
42.6486 16.0
42.7323 18.0
42.816 19.0
42.8997 23.0
42.9834 15.0
43.0672 11.0
43.1509 14.0
43.2346 17.0
43.3183 21.0
43.402 8.0
43.4857 23.0
43.5694 6.0
43.6531 18.0
43.7368 23.0
43.8205 18.0
43.9042 16.0
43.9879 13.0
44.0716 23.0
44.1553 27.0
44.239 27.0
44.3227 25.0
44.4064 31.0
44.4901 22.0
44.5739 31.0
44.6576 24.0
44.7413 30.0
44.825 11.0
44.9087 14.0
44.9924 24.0
45.0761 15.0
45.1598 14.0
45.2435 11.0
45.3272 7.0
45.4109 15.0
45.4946 12.0
45.5783 21.0
45.662 14.0
45.7457 13.0
45.8294 14.0
45.9131 16.0
45.9968 16.0
46.0806 15.0
46.1643 13.0
46.248 21.0
46.3317 10.0
46.4154 16.0
46.4991 19.0
46.5828 11.0
46.6665 17.0
46.7502 15.0
46.8339 13.0
46.9176 8.0
47.0013 11.0
47.085 17.0
47.1687 21.0
47.2524 27.0
47.3361 13.0
47.4198 18.0
47.5035 17.0
47.5873 9.0
47.671 12.0
47.7547 17.0
47.8384 15.0
47.9221 16.0
48.0058 11.0
48.0895 16.0
48.1732 12.0
48.2569 12.0
48.3406 11.0
48.4243 15.0
48.508 12.0
48.5917 10.0
48.6754 16.0
48.7591 14.0
48.8428 12.0
48.9265 10.0
49.0102 18.0
49.094 16.0
49.1777 10.0
49.2614 5.0
49.3451 13.0
49.4288 11.0
49.5125 13.0
49.5962 11.0
49.6799 14.0
49.7636 17.0
49.8473 14.0
49.931 12.0
50.0147 16.0
50.0984 25.0
50.1821 10.0
50.2658 7.0
50.3495 19.0
50.4332 12.0
50.5169 13.0
50.6007 8.0
50.6844 9.0
50.7681 16.0
50.8518 17.0
50.9355 12.0
51.0192 11.0
51.1029 12.0
51.1866 13.0
51.2703 15.0
51.354 24.0
51.4377 16.0
51.5214 11.0
51.6051 10.0
51.6888 14.0
51.7725 13.0
51.8562 19.0
51.9399 12.0
52.0236 8.0
52.1074 15.0
52.1911 10.0
52.2748 10.0
52.3585 17.0
52.4422 17.0
52.5259 11.0
52.6096 11.0
52.6933 14.0
52.777 16.0
52.8607 11.0
52.9444 20.0
53.0281 11.0
53.1118 17.0
53.1955 17.0
53.2792 23.0
53.3629 14.0
53.4466 15.0
53.5303 12.0
53.6141 17.0
53.6978 19.0
53.7815 9.0
53.8652 21.0
53.9489 6.0
54.0326 15.0
54.1163 16.0
54.2 19.0
54.2837 5.0
54.3674 18.0
54.4511 12.0
54.5348 9.0
54.6185 13.0
54.7022 15.0
54.7859 16.0
54.8696 9.0
54.9533 14.0
55.037 11.0
55.1208 17.0
55.2045 22.0
55.2882 13.0
55.3719 15.0
55.4556 16.0
55.5393 16.0
55.623 15.0
55.7067 27.0
55.7904 7.0
55.8741 16.0
55.9578 16.0
56.0415 20.0
56.1252 21.0
56.2089 13.0
56.2926 10.0
56.3763 20.0
56.46 11.0
56.5437 14.0
56.6275 7.0
56.7112 7.0
56.7949 13.0
56.8786 14.0
56.9623 19.0
57.046 12.0
57.1297 14.0
57.2134 19.0
57.2971 14.0
57.3808 19.0
57.4645 17.0
57.5482 8.0
57.6319 16.0
57.7156 14.0
57.7993 11.0
57.883 18.0
57.9667 14.0
58.0504 17.0
58.1342 15.0
58.2179 14.0
58.3016 7.0
58.3853 12.0
58.469 13.0
58.5527 14.0
58.6364 14.0
58.7201 16.0
58.8038 21.0
58.8875 10.0
58.9712 17.0
59.0549 17.0
59.1386 14.0
59.2223 10.0
59.306 7.0
59.3897 18.0
59.4734 12.0
59.5571 8.0
59.6409 13.0
59.7246 8.0
59.8083 16.0
59.892 25.0
59.9757 19.0
60.0594 16.0
60.1431 15.0
60.2268 17.0
60.3105 19.0
60.3942 14.0
60.4779 11.0
60.5616 15.0
60.6453 7.0
60.729 17.0
60.8127 13.0
60.8964 6.0
60.9801 13.0
61.0638 15.0
61.1476 18.0
61.2313 10.0
61.315 16.0
61.3987 16.0
61.4824 14.0
61.5661 18.0
61.6498 18.0
61.7335 15.0
61.8172 16.0
61.9009 12.0
61.9846 18.0
62.0683 7.0
62.152 16.0
62.2357 13.0
62.3194 12.0
62.4031 14.0
62.4868 11.0
62.5705 11.0
62.6543 16.0
62.738 14.0
62.8217 16.0
62.9054 12.0
62.9891 17.0
63.0728 23.0
63.1565 19.0
63.2402 17.0
63.3239 15.0
63.4076 14.0
63.4913 14.0
63.575 13.0
63.6587 16.0
63.7424 12.0
63.8261 11.0
63.9098 14.0
63.9935 13.0
64.0772 11.0
64.161 11.0
64.2447 15.0
64.3284 17.0
64.4121 15.0
64.4958 9.0
64.5795 13.0
64.6632 21.0
64.7469 15.0
64.8306 22.0
64.9143 20.0
64.998 13.0
65.0817 12.0
65.1654 23.0
65.2491 14.0
65.3328 12.0
65.4165 13.0
65.5002 17.0
65.5839 10.0
65.6677 14.0
65.7514 10.0
65.8351 10.0
65.9188 14.0
66.0025 22.0
66.0862 17.0
66.1699 17.0
66.2536 14.0
66.3373 12.0
66.421 17.0
66.5047 8.0
66.5884 10.0
66.6721 17.0
66.7558 20.0
66.8395 11.0
66.9232 22.0
67.0069 15.0
67.0906 11.0
67.1744 11.0
67.2581 12.0
67.3418 10.0
67.4255 9.0
67.5092 16.0
67.5929 20.0
67.6766 21.0
67.7603 26.0
67.844 15.0
67.9277 10.0
68.0114 16.0
68.0951 13.0
68.1788 11.0
68.2625 10.0
68.3462 9.0
68.4299 16.0
68.5136 16.0
68.5973 15.0
68.6811 9.0
68.7648 8.0
68.8485 15.0
68.9322 14.0
69.0159 13.0
69.0996 18.0
69.1833 13.0
69.267 13.0
69.3507 11.0
69.4344 10.0
69.5181 14.0
69.6018 12.0
69.6855 13.0
69.7692 16.0
69.8529 16.0
69.9366 17.0
70.0203 23.0
70.104 14.0
70.1878 23.0
70.2715 11.0
70.3552 15.0
70.4389 17.0
70.5226 13.0
70.6063 12.0
70.69 16.0
70.7737 17.0
70.8574 12.0
70.9411 12.0
71.0248 15.0
71.1085 13.0
71.1922 7.0
71.2759 13.0
71.3596 17.0
71.4433 20.0
71.527 34.0
71.6107 41.0
71.6945 21.0
71.7782 13.0
71.8619 28.0
71.9456 16.0
72.0293 15.0
72.113 13.0
72.1967 17.0
72.2804 16.0
72.3641 17.0
72.4478 17.0
72.5315 8.0
72.6152 11.0
72.6989 14.0
72.7826 17.0
72.8663 18.0
72.95 11.0
73.0337 16.0
73.1174 16.0
73.2012 18.0
73.2849 20.0
73.3686 16.0
73.4523 11.0
73.536 15.0
73.6197 17.0
73.7034 11.0
73.7871 15.0
73.8708 18.0
73.9545 15.0
74.0382 15.0
74.1219 20.0
74.2056 16.0
74.2893 19.0
74.373 13.0
74.4567 11.0
74.5404 11.0
74.6241 21.0
74.7079 21.0
74.7916 12.0
74.8753 14.0
74.959 14.0
75.0427 23.0
75.1264 12.0
75.2101 16.0
75.2938 19.0
75.3775 23.0
75.4612 30.0
75.5449 30.0
75.6286 28.0
75.7123 40.0
75.796 73.0
75.8797 132.0
75.9634 210.0
76.0471 150.0
76.1308 136.0
76.2146 127.0
76.2983 84.0
76.382 42.0
76.4657 38.0
76.5494 39.0
76.6331 82.0
76.7168 59.0
76.8005 21.0
76.8842 24.0
76.9679 24.0
77.0516 18.0
77.1353 22.0
77.219 17.0
77.3027 22.0
77.3864 27.0
77.4701 19.0
77.5538 21.0
77.6375 19.0
77.7213 19.0
77.805 17.0
77.8887 25.0
77.9724 17.0
78.0561 13.0
78.1398 14.0
78.2235 21.0
78.3072 12.0
78.3909 18.0
78.4746 19.0
78.5583 16.0
78.642 16.0
78.7257 31.0
78.8094 22.0
78.8931 17.0
78.9768 20.0
79.0605 23.0
79.1442 23.0
79.228 16.0
79.3117 18.0
79.3954 25.0
79.4791 19.0
79.5628 31.0
79.6465 30.0
79.7302 37.0
79.8139 39.0
79.8976 32.0
79.9813 37.0
80.065 42.0
80.1487 49.0
80.2324 94.0
80.3161 120.0
80.3998 113.0
80.4835 201.0
80.5672 898.0
80.6509 12287.0
80.7347 1028.0
80.8184 836.0
80.9021 5979.0
80.9858 506.0
81.0695 142.0
81.1532 78.0
81.2369 71.0
81.3206 65.0
81.4043 52.0
81.488 43.0
81.5717 34.0
81.6554 39.0
81.7391 33.0
81.8228 28.0
81.9065 25.0
81.9902 28.0
82.0739 43.0
82.1576 33.0
82.2414 31.0
82.3251 25.0
82.4088 25.0
82.4925 27.0
82.5762 23.0
82.6599 17.0
82.7436 22.0
82.8273 16.0
82.911 18.0
82.9947 20.0
83.0784 15.0
83.1621 11.0
83.2458 16.0
83.3295 20.0
83.4132 16.0
83.4969 15.0
83.5806 13.0
83.6643 19.0
83.7481 14.0
83.8318 25.0
83.9155 14.0
83.9992 14.0
84.0829 12.0
84.1666 19.0
84.2503 13.0
84.334 18.0
84.4177 18.0
84.5014 21.0
84.5851 23.0
84.6688 22.0
84.7525 18.0
84.8362 17.0
84.9199 16.0
85.0036 12.0
85.0873 14.0
85.171 15.0
85.2548 19.0
85.3385 14.0
85.4222 13.0
85.5059 13.0
85.5896 20.0
85.6733 12.0
85.757 17.0
85.8407 20.0
85.9244 16.0
86.0081 14.0
86.0918 22.0
86.1755 17.0
86.2592 16.0
86.3429 14.0
86.4266 14.0
86.5103 11.0
86.594 13.0
86.6777 13.0
86.7615 22.0
86.8452 18.0
86.9289 17.0
87.0126 13.0
87.0963 13.0
87.18 15.0
87.2637 15.0
87.3474 17.0
87.4311 12.0
87.5148 22.0
87.5985 12.0
87.6822 20.0
87.7659 22.0
87.8496 20.0
87.9333 12.0
88.017 19.0
88.1007 15.0
88.1844 9.0
88.2682 27.0
88.3519 11.0
88.4356 12.0
88.5193 17.0
88.603 13.0
88.6867 16.0
88.7704 17.0
88.8541 12.0
88.9378 14.0
89.0215 16.0
89.1052 10.0
89.1889 14.0
89.2726 19.0
89.3563 17.0
89.44 9.0
89.5237 18.0
89.6074 12.0
89.6911 16.0
89.7749 17.0
89.8586 16.0
89.9423 22.0
90.026 13.0
90.1097 8.0
90.1934 11.0
90.2771 18.0
90.3608 10.0
90.4445 9.0
90.5282 15.0
90.6119 19.0
90.6956 20.0
90.7793 17.0
90.863 12.0
90.9467 18.0
91.0304 16.0
91.1141 18.0
91.1978 22.0
91.2816 17.0
91.3653 21.0
91.449 15.0
91.5327 13.0
91.6164 8.0
91.7001 16.0
91.7838 10.0
91.8675 21.0
91.9512 10.0
92.0349 20.0
92.1186 13.0
92.2023 20.0
92.286 10.0
92.3697 17.0
92.4534 19.0
92.5371 15.0
92.6208 10.0
92.7045 13.0
92.7883 11.0
92.872 15.0
92.9557 11.0
93.0394 15.0
93.1231 19.0
93.2068 16.0
93.2905 14.0
93.3742 19.0
93.4579 16.0
93.5416 19.0
93.6253 15.0
93.709 10.0
93.7927 15.0
93.8764 14.0
93.9601 9.0
94.0438 12.0
94.1275 12.0
94.2112 11.0
94.295 13.0
94.3787 13.0
94.4624 16.0
94.5461 19.0
94.6298 12.0
94.7135 16.0
94.7972 17.0
94.8809 16.0
94.9646 14.0
95.0483 12.0
95.132 17.0
95.2157 16.0
95.2994 18.0
95.3831 17.0
95.4668 10.0
95.5505 8.0
95.6342 15.0
95.7179 18.0
95.8017 16.0
95.8854 9.0
95.9691 16.0
96.0528 17.0
96.1365 18.0
96.2202 20.0
96.3039 16.0
96.3876 15.0
96.4713 13.0
96.555 20.0
96.6387 11.0
96.7224 11.0
96.8061 16.0
96.8898 10.0
96.9735 7.0
97.0572 17.0
97.1409 24.0
97.2246 11.0
97.3084 10.0
97.3921 12.0
97.4758 12.0
97.5595 16.0
97.6432 14.0
97.7269 13.0
97.8106 20.0
97.8943 13.0
97.978 22.0
98.0617 18.0
98.1454 9.0
98.2291 12.0
98.3128 17.0
98.3965 13.0
98.4802 22.0
98.5639 19.0
98.6476 18.0
98.7313 19.0
98.8151 15.0
98.8988 14.0
98.9825 16.0
99.0662 15.0
99.1499 13.0
99.2336 21.0
99.3173 9.0
99.401 10.0
99.4847 15.0
99.5684 18.0
99.6521 12.0
99.7358 18.0
99.8195 15.0
99.9032 23.0
99.9869 21.0
100.071 10.0
100.154 18.0
100.238 16.0
100.322 17.0
100.405 19.0
100.489 14.0
100.573 13.0
100.657 16.0
100.74 9.0
100.824 15.0
100.908 19.0
100.991 18.0
101.075 16.0
101.159 22.0
101.243 17.0
101.326 10.0
101.41 11.0
101.494 22.0
101.577 19.0
101.661 16.0
101.745 12.0
101.828 12.0
101.912 8.0
101.996 22.0
102.08 17.0
102.163 11.0
102.247 14.0
102.331 14.0
102.414 9.0
102.498 18.0
102.582 14.0
102.666 11.0
102.749 17.0
102.833 20.0
102.917 11.0
103 9.0
103.084 21.0
103.168 22.0
103.251 21.0
103.335 22.0
103.419 15.0
103.503 15.0
103.586 17.0
103.67 19.0
103.754 16.0
103.837 12.0
103.921 11.0
104.005 11.0
104.089 11.0
104.172 9.0
104.256 19.0
104.34 12.0
104.423 16.0
104.507 20.0
104.591 21.0
104.674 13.0
104.758 23.0
104.842 18.0
104.926 18.0
105.009 15.0
105.093 10.0
105.177 16.0
105.26 13.0
105.344 13.0
105.428 12.0
105.511 16.0
105.595 16.0
105.679 9.0
105.763 11.0
105.846 15.0
105.93 11.0
106.014 19.0
106.097 8.0
106.181 17.0
106.265 15.0
106.349 17.0
106.432 20.0
106.516 14.0
106.6 17.0
106.683 18.0
106.767 10.0
106.851 9.0
106.934 16.0
107.018 19.0
107.102 10.0
107.186 10.0
107.269 16.0
107.353 15.0
107.437 20.0
107.52 16.0
107.604 12.0
107.688 27.0
107.772 20.0
107.855 18.0
107.939 9.0
108.023 17.0
108.106 14.0
108.19 8.0
108.274 19.0
108.357 19.0
108.441 16.0
108.525 18.0
108.609 16.0
108.692 20.0
108.776 21.0
108.86 15.0
108.943 12.0
109.027 11.0
109.111 9.0
109.195 23.0
109.278 18.0
109.362 13.0
109.446 20.0
109.529 25.0
109.613 18.0
109.697 14.0
109.78 21.0
109.864 17.0
109.948 20.0
110.032 16.0
110.115 16.0
110.199 12.0
110.283 12.0
110.366 17.0
110.45 21.0
110.534 12.0
110.618 16.0
110.701 19.0
110.785 18.0
110.869 16.0
110.952 15.0
111.036 12.0
111.12 13.0
111.203 17.0
111.287 16.0
111.371 14.0
111.455 11.0
111.538 17.0
111.622 15.0
111.706 17.0
111.789 17.0
111.873 13.0
111.957 12.0
112.041 14.0
112.124 18.0
112.208 17.0
112.292 11.0
112.375 24.0
112.459 16.0
112.543 15.0
112.626 19.0
112.71 7.0
112.794 17.0
112.878 12.0
112.961 8.0
113.045 10.0
113.129 21.0
113.212 16.0
113.296 16.0
113.38 18.0
113.464 16.0
113.547 9.0
113.631 15.0
113.715 12.0
113.798 10.0
113.882 20.0
113.966 13.0
114.049 11.0
114.133 14.0
114.217 14.0
114.301 20.0
114.384 15.0
114.468 20.0
114.552 8.0
114.635 17.0
114.719 22.0
114.803 19.0
114.887 15.0
114.97 14.0
115.054 12.0
115.138 8.0
115.221 25.0
115.305 23.0
115.389 8.0
115.472 17.0
115.556 19.0
115.64 12.0
115.724 16.0
115.807 15.0
115.891 17.0
115.975 20.0
116.058 20.0
116.142 21.0
116.226 11.0
116.31 20.0
116.393 18.0
116.477 16.0
116.561 13.0
116.644 11.0
116.728 10.0
116.812 19.0
116.895 15.0
116.979 19.0
117.063 13.0
117.147 9.0
117.23 12.0
117.314 24.0
117.398 18.0
117.481 14.0
117.565 23.0
117.649 16.0
117.733 11.0
117.816 13.0
117.9 14.0
117.984 13.0
118.067 14.0
118.151 18.0
118.235 12.0
118.318 15.0
118.402 9.0
118.486 15.0
118.57 13.0
118.653 14.0
118.737 19.0
118.821 14.0
118.904 11.0
118.988 15.0
119.072 14.0
119.156 13.0
119.239 13.0
119.323 18.0
119.407 6.0
119.49 10.0
119.574 14.0
119.658 15.0
119.741 15.0
119.825 20.0
119.909 12.0
119.993 12.0
120.076 11.0
120.16 19.0
120.244 16.0
120.327 16.0
120.411 12.0
120.495 23.0
120.578 10.0
120.662 22.0
120.746 13.0
120.83 14.0
120.913 14.0
120.997 14.0
121.081 22.0
121.164 14.0
121.248 18.0
121.332 16.0
121.416 18.0
121.499 14.0
121.583 11.0
121.667 20.0
121.75 21.0
121.834 14.0
121.918 15.0
122.001 22.0
122.085 16.0
122.169 19.0
122.253 11.0
122.336 14.0
122.42 19.0
122.504 23.0
122.587 35.0
122.671 56.0
122.755 54.0
122.839 32.0
122.922 23.0
123.006 25.0
123.09 19.0
123.173 13.0
123.257 13.0
123.341 23.0
123.424 19.0
123.508 23.0
123.592 12.0
123.676 9.0
123.759 22.0
123.843 8.0
123.927 18.0
124.01 14.0
124.094 14.0
124.178 12.0
124.262 12.0
124.345 9.0
124.429 14.0
124.513 14.0
124.596 9.0
124.68 10.0
124.764 9.0
124.847 19.0
124.931 13.0
125.015 18.0
125.099 18.0
125.182 17.0
125.266 16.0
125.35 21.0
125.433 17.0
125.517 15.0
125.601 12.0
125.685 12.0
125.768 11.0
125.852 21.0
125.936 23.0
126.019 16.0
126.103 16.0
126.187 19.0
126.27 13.0
126.354 16.0
126.438 13.0
126.522 15.0
126.605 15.0
126.689 22.0
126.773 14.0
126.856 23.0
126.94 26.0
127.024 12.0
127.108 18.0
127.191 11.0
127.275 20.0
127.359 15.0
127.442 14.0
127.526 15.0
127.61 15.0
127.693 14.0
127.777 16.0
127.861 16.0
127.945 19.0
128.028 14.0
128.112 16.0
128.196 12.0
128.279 17.0
128.363 20.0
128.447 18.0
128.531 9.0
128.614 19.0
128.698 16.0
128.782 21.0
128.865 14.0
128.949 11.0
129.033 13.0
129.116 16.0
129.2 13.0
129.284 7.0
129.368 15.0
129.451 19.0
129.535 14.0
129.619 8.0
129.702 15.0
129.786 13.0
129.87 6.0
129.954 21.0
129.998 20.0