File: data/W6856a/XRD_Omega/W6856a_Cr2O3_scan_omega_2deg_step_0.002deg0_5.xy
16.51090 1120.0
16.51290 1049.0
16.51490 1019.0
16.51690 1034.0
16.51890 1012.0
16.52090 1040.0
16.52290 1066.0
16.52490 1030.0
16.52690 1013.0
16.52890 1061.0
16.53090 1087.0
16.53290 1092.0
16.53490 1055.0
16.53690 1125.0
16.53890 1070.0
16.54090 1023.0
16.54290 1018.0
16.54490 1126.0
16.54690 1028.0
16.54890 1077.0
16.55090 1102.0
16.55290 1139.0
16.55490 1103.0
16.55690 1067.0
16.55890 1127.0
16.56090 1125.0
16.56290 1143.0
16.56490 1217.0
16.56690 1173.0
16.56890 1145.0
16.57090 1166.0
16.57290 1175.0
16.57490 1120.0
16.57690 1177.0
16.57890 1181.0
16.58090 1211.0
16.58290 1155.0
16.58490 1196.0
16.58690 1263.0
16.58890 1171.0
16.59090 1186.0
16.59290 1238.0
16.59490 1161.0
16.59690 1168.0
16.59890 1225.0
16.60090 1249.0
16.60290 1264.0
16.60490 1243.0
16.60690 1252.0
16.60890 1195.0
16.61090 1226.0
16.61290 1285.0
16.61490 1202.0
16.61690 1238.0
16.61890 1252.0
16.62090 1243.0
16.62290 1256.0
16.62490 1252.0
16.62690 1289.0
16.62890 1259.0
16.63090 1198.0
16.63290 1297.0
16.63490 1288.0
16.63690 1284.0
16.63890 1286.0
16.64090 1316.0
16.64290 1313.0
16.64490 1281.0
16.64690 1333.0
16.64890 1353.0
16.65090 1332.0
16.65290 1297.0
16.65490 1331.0
16.65690 1308.0
16.65890 1450.0
16.66090 1307.0
16.66290 1331.0
16.66490 1368.0
16.66690 1380.0
16.66890 1398.0
16.67090 1378.0
16.67290 1456.0
16.67490 1409.0
16.67690 1434.0
16.67890 1375.0
16.68090 1409.0
16.68290 1349.0
16.68490 1391.0
16.68690 1447.0
16.68890 1488.0
16.69090 1329.0
16.69290 1452.0
16.69490 1362.0
16.69690 1382.0
16.69890 1398.0
16.70090 1430.0
16.70290 1478.0
16.70490 1537.0
16.70690 1410.0
16.70890 1383.0
16.71090 1458.0
16.71290 1519.0
16.71490 1473.0
16.71690 1501.0
16.71890 1518.0
16.72090 1544.0
16.72290 1535.0
16.72490 1439.0
16.72690 1391.0
16.72890 1531.0
16.73090 1580.0
16.73290 1504.0
16.73490 1542.0
16.73690 1539.0
16.73890 1538.0
16.74090 1554.0
16.74290 1658.0
16.74490 1532.0
16.74690 1578.0
16.74890 1607.0
16.75090 1642.0
16.75290 1611.0
16.75490 1599.0
16.75690 1692.0
16.75890 1553.0
16.76090 1584.0
16.76290 1665.0
16.76490 1651.0
16.76690 1633.0
16.76890 1619.0
16.77090 1648.0
16.77290 1588.0
16.77490 1609.0
16.77690 1684.0
16.77890 1666.0
16.78090 1595.0
16.78290 1665.0
16.78490 1741.0
16.78690 1744.0
16.78890 1689.0
16.79090 1709.0
16.79290 1672.0
16.79490 1761.0
16.79690 1734.0
16.79890 1719.0
16.80090 1629.0
16.80290 1747.0
16.80490 1717.0
16.80690 1722.0
16.80890 1780.0
16.81090 1824.0
16.81290 1707.0
16.81490 1672.0
16.81690 1784.0
16.81890 1862.0
16.82090 1771.0
16.82290 1829.0
16.82490 1767.0
16.82690 1777.0
16.82890 1792.0
16.83090 1755.0
16.83290 1793.0
16.83490 1800.0
16.83690 1831.0
16.83890 1819.0
16.84090 1768.0
16.84290 1857.0
16.84490 1835.0
16.84690 1810.0
16.84890 1943.0
16.85090 1911.0
16.85290 1851.0
16.85490 1862.0
16.85690 1832.0
16.85890 1871.0
16.86090 1937.0
16.86290 1911.0
16.86490 1899.0
16.86690 1794.0
16.86890 1953.0
16.87090 1935.0
16.87290 1967.0
16.87490 2030.0
16.87690 1981.0
16.87890 1945.0
16.88090 1968.0
16.88290 1999.0
16.88490 1947.0
16.88690 2015.0
16.88890 1973.0
16.89090 1952.0
16.89290 2014.0
16.89490 1950.0
16.89690 1990.0
16.89890 2037.0
16.90090 1946.0
16.90290 2114.0
16.90490 1968.0
16.90690 2085.0
16.90890 2100.0
16.91090 2025.0
16.91290 2094.0
16.91490 2087.0
16.91690 2051.0
16.91890 2058.0
16.92090 2159.0
16.92290 2122.0
16.92490 2130.0
16.92690 2125.0
16.92890 2131.0
16.93090 2153.0
16.93290 2131.0
16.93490 2210.0
16.93690 2166.0
16.93890 2230.0
16.94090 2166.0
16.94290 2107.0
16.94490 2224.0
16.94690 2166.0
16.94890 2170.0
16.95090 2226.0
16.95290 2256.0
16.95490 2182.0
16.95690 2292.0
16.95890 2162.0
16.96090 2272.0
16.96290 2209.0
16.96490 2253.0
16.96690 2167.0
16.96890 2251.0
16.97090 2304.0
16.97290 2331.0
16.97490 2321.0
16.97690 2316.0
16.97890 2280.0
16.98090 2419.0
16.98290 2408.0
16.98490 2366.0
16.98690 2371.0
16.98890 2355.0
16.99090 2352.0
16.99290 2358.0
16.99490 2353.0
16.99690 2410.0
16.99890 2369.0
17.00090 2339.0
17.00290 2474.0
17.00490 2382.0
17.00690 2331.0
17.00890 2323.0
17.01090 2417.0
17.01290 2346.0
17.01490 2430.0
17.01690 2420.0
17.01890 2431.0
17.02090 2471.0
17.02290 2421.0
17.02490 2505.0
17.02690 2491.0
17.02890 2386.0
17.03090 2385.0
17.03290 2460.0
17.03490 2448.0
17.03690 2449.0
17.03890 2563.0
17.04090 2464.0
17.04290 2566.0
17.04490 2462.0
17.04690 2476.0
17.04890 2514.0
17.05090 2574.0
17.05290 2647.0
17.05490 2587.0
17.05690 2514.0
17.05890 2575.0
17.06090 2629.0
17.06290 2559.0
17.06490 2546.0
17.06690 2550.0
17.06890 2491.0
17.07090 2534.0
17.07290 2600.0
17.07490 2543.0
17.07690 2553.0
17.07890 2599.0
17.08090 2647.0
17.08290 2625.0
17.08490 2555.0
17.08690 2509.0
17.08890 2670.0
17.09090 2700.0
17.09290 2741.0
17.09490 2611.0
17.09690 2666.0
17.09890 2852.0
17.10090 2596.0
17.10290 2683.0
17.10490 2696.0
17.10690 2717.0
17.10890 2741.0
17.11090 2579.0
17.11290 2729.0
17.11490 2818.0
17.11690 2630.0
17.11890 2758.0
17.12090 2700.0
17.12290 2799.0
17.12490 2796.0
17.12690 2737.0
17.12890 2803.0
17.13090 2743.0
17.13290 2808.0
17.13490 2721.0
17.13690 2739.0
17.13890 2867.0
17.14090 2750.0
17.14290 2905.0
17.14490 2757.0
17.14690 2840.0
17.14890 2891.0
17.15090 2863.0
17.15290 2909.0
17.15490 2920.0
17.15690 2879.0
17.15890 2912.0
17.16090 2897.0
17.16290 2938.0
17.16490 3006.0
17.16690 2892.0
17.16890 2918.0
17.17090 2940.0
17.17290 2838.0
17.17490 2979.0
17.17690 2805.0
17.17890 2918.0
17.18090 2954.0
17.18290 2949.0
17.18490 2911.0
17.18690 2899.0
17.18890 2972.0
17.19090 2922.0
17.19290 2978.0
17.19490 2975.0
17.19690 3004.0
17.19890 2938.0
17.20090 2971.0
17.20290 2895.0
17.20490 2859.0
17.20690 3008.0
17.20890 3167.0
17.21090 2953.0
17.21290 3026.0
17.21490 3087.0
17.21690 3077.0
17.21890 3039.0
17.22090 3113.0
17.22290 3007.0
17.22490 3063.0
17.22690 2998.0
17.22890 3024.0
17.23090 3074.0
17.23290 3127.0
17.23490 3134.0
17.23690 3055.0
17.23890 3126.0
17.24090 3053.0
17.24290 3052.0
17.24490 3068.0
17.24690 3195.0
17.24890 3161.0
17.25090 2992.0
17.25290 3087.0
17.25490 3045.0
17.25690 3145.0
17.25890 3142.0
17.26090 3160.0
17.26290 3142.0
17.26490 3163.0
17.26690 3131.0
17.26890 3256.0
17.27090 3109.0
17.27290 3231.0
17.27490 3137.0
17.27690 3265.0
17.27890 3193.0
17.28090 3158.0
17.28290 3276.0
17.28490 3265.0
17.28690 3324.0
17.28890 3158.0
17.29090 3220.0
17.29290 3129.0
17.29490 3428.0
17.29690 3259.0
17.29890 3196.0
17.30090 3264.0
17.30290 3313.0
17.30490 3190.0
17.30690 3230.0
17.30890 3435.0
17.31090 3217.0
17.31290 3318.0
17.31490 3216.0
17.31690 3290.0
17.31890 3245.0
17.32090 3425.0
17.32290 3321.0
17.32490 3297.0
17.32690 3328.0
17.32890 3270.0
17.33090 3321.0
17.33290 3290.0
17.33490 3345.0
17.33690 3380.0
17.33890 3424.0
17.34090 3322.0
17.34290 3329.0
17.34490 3365.0
17.34690 3344.0
17.34890 3337.0
17.35090 3334.0
17.35290 3375.0
17.35490 3281.0
17.35690 3350.0
17.35890 3330.0
17.36090 3416.0
17.36290 3487.0
17.36490 3476.0
17.36690 3291.0
17.36890 3370.0
17.37090 3363.0
17.37290 3414.0
17.37490 3412.0
17.37690 3472.0
17.37890 3448.0
17.38090 3535.0
17.38290 3550.0
17.38490 3522.0
17.38690 3409.0
17.38890 3460.0
17.39090 3451.0
17.39290 3366.0
17.39490 3396.0
17.39690 3449.0
17.39890 3418.0
17.40090 3452.0
17.40290 3471.0
17.40490 3530.0
17.40690 3558.0
17.40890 3490.0
17.41090 3345.0
17.41290 3472.0
17.41490 3480.0
17.41690 3555.0
17.41890 3514.0
17.42090 3544.0
17.42290 3404.0
17.42490 3540.0
17.42690 3525.0
17.42890 3576.0
17.43090 3485.0
17.43290 3447.0
17.43490 3514.0
17.43690 3417.0
17.43890 3371.0
17.44090 3526.0
17.44290 3593.0
17.44490 3491.0
17.44690 3434.0
17.44890 3508.0
17.45090 3512.0
17.45290 3483.0
17.45490 3561.0
17.45690 3500.0
17.45890 3382.0
17.46090 3397.0
17.46290 3428.0
17.46490 3409.0
17.46690 3475.0
17.46890 3441.0
17.47090 3548.0
17.47290 3600.0
17.47490 3542.0
17.47690 3393.0
17.47890 3429.0
17.48090 3454.0
17.48290 3529.0
17.48490 3315.0
17.48690 3430.0
17.48890 3380.0
17.49090 3514.0
17.49290 3388.0
17.49490 3483.0
17.49690 3522.0
17.49890 3379.0
17.50090 3471.0
17.50290 3511.0
17.50490 3455.0
17.50690 3406.0
17.50890 3399.0
17.51090 3479.0
17.51290 3474.0
17.51490 3401.0
17.51690 3594.0
17.51890 3548.0
17.52090 3455.0
17.52290 3371.0
17.52490 3429.0
17.52690 3605.0
17.52890 3440.0
17.53090 3438.0
17.53290 3381.0
17.53490 3400.0
17.53690 3461.0
17.53890 3331.0
17.54090 3397.0
17.54290 3372.0
17.54490 3323.0
17.54690 3299.0
17.54890 3445.0
17.55090 3337.0
17.55290 3401.0
17.55490 3517.0
17.55690 3318.0
17.55890 3386.0
17.56090 3413.0
17.56290 3377.0
17.56490 3399.0
17.56690 3328.0
17.56890 3460.0
17.57090 3394.0
17.57290 3383.0
17.57490 3408.0
17.57690 3511.0
17.57890 3427.0
17.58090 3408.0
17.58290 3338.0
17.58490 3444.0
17.58690 3383.0
17.58890 3413.0
17.59090 3320.0
17.59290 3313.0
17.59490 3287.0
17.59690 3384.0
17.59890 3336.0
17.60090 3425.0
17.60290 3404.0
17.60490 3344.0
17.60690 3329.0
17.60890 3338.0
17.61090 3366.0
17.61290 3334.0
17.61490 3529.0
17.61690 3303.0
17.61890 3361.0
17.62090 3397.0
17.62290 3357.0
17.62490 3400.0
17.62690 3303.0
17.62890 3260.0
17.63090 3346.0
17.63290 3243.0
17.63490 3344.0
17.63690 3283.0
17.63890 3229.0
17.64090 3370.0
17.64290 3397.0
17.64490 3244.0
17.64690 3289.0
17.64890 3394.0
17.65090 3290.0
17.65290 3195.0
17.65490 3430.0
17.65690 3182.0
17.65890 3339.0
17.66090 3218.0
17.66290 3268.0
17.66490 3243.0
17.66690 3263.0
17.66890 3336.0
17.67090 3314.0
17.67290 3194.0
17.67490 3350.0
17.67690 3297.0
17.67890 3333.0
17.68090 3193.0
17.68290 3256.0
17.68490 3191.0
17.68690 3185.0
17.68890 3190.0
17.69090 3135.0
17.69290 3090.0
17.69490 3160.0
17.69690 3278.0
17.69890 3219.0
17.70090 3299.0
17.70290 3261.0
17.70490 3277.0
17.70690 3049.0
17.70890 3306.0
17.71090 3161.0
17.71290 3196.0
17.71490 3215.0
17.71690 3269.0
17.71890 3137.0
17.72090 3347.0
17.72290 3209.0
17.72490 3110.0
17.72690 3178.0
17.72890 3223.0
17.73090 3155.0
17.73290 3162.0
17.73490 3113.0
17.73690 3137.0
17.73890 3200.0
17.74090 3216.0
17.74290 3179.0
17.74490 3068.0
17.74690 3140.0
17.74890 3107.0
17.75090 3066.0
17.75290 3115.0
17.75490 3059.0
17.75690 3065.0
17.75890 3132.0
17.76090 2972.0
17.76290 3034.0
17.76490 2997.0
17.76690 3041.0
17.76890 3080.0
17.77090 3121.0
17.77290 3121.0
17.77490 3021.0
17.77690 3093.0
17.77890 2922.0
17.78090 2931.0
17.78290 2905.0
17.78490 3025.0
17.78690 3071.0
17.78890 3003.0
17.79090 3030.0
17.79290 3047.0
17.79490 3047.0
17.79690 2934.0
17.79890 3049.0
17.80090 3046.0
17.80290 3027.0
17.80490 3024.0
17.80690 2913.0
17.80890 2997.0
17.81090 3000.0
17.81290 3006.0
17.81490 2950.0
17.81690 2953.0
17.81890 2984.0
17.82090 2944.0
17.82290 2984.0
17.82490 2915.0
17.82690 3016.0
17.82890 2875.0
17.83090 2996.0
17.83290 3017.0
17.83490 3037.0
17.83690 3018.0
17.83890 2997.0
17.84090 2919.0
17.84290 3035.0
17.84490 3064.0
17.84690 3121.0
17.84890 3112.0
17.85090 3071.0
17.85290 3016.0
17.85490 3178.0
17.85690 3344.0
17.85890 3322.0
17.86090 3468.0
17.86290 3563.0
17.86490 3559.0
17.86690 3641.0
17.86890 3687.0
17.87090 3844.0
17.87290 3846.0
17.87490 3998.0
17.87690 4035.0
17.87890 3942.0
17.88090 4049.0
17.88290 3923.0
17.88490 3910.0
17.88690 3849.0
17.88890 3786.0
17.89090 3671.0
17.89290 3678.0
17.89490 3627.0
17.89690 3471.0
17.89890 3494.0
17.90090 3344.0
17.90290 3340.0
17.90490 3207.0
17.90690 3183.0
17.90890 3200.0
17.91090 3168.0
17.91290 3095.0
17.91490 3040.0
17.91690 3048.0
17.91890 3061.0
17.92090 3082.0
17.92290 2991.0
17.92490 2950.0
17.92690 3018.0
17.92890 2843.0
17.93090 3022.0
17.93290 2993.0
17.93490 3020.0
17.93690 2920.0
17.93890 3013.0
17.94090 2987.0
17.94290 2959.0
17.94490 3028.0
17.94690 2934.0
17.94890 3002.0
17.95090 2912.0
17.95290 2919.0
17.95490 2958.0
17.95690 2985.0
17.95890 2984.0
17.96090 2915.0
17.96290 3028.0
17.96490 2855.0
17.96690 2867.0
17.96890 2905.0
17.97090 2760.0
17.97290 2734.0
17.97490 2658.0
17.97690 2629.0
17.97890 2753.0
17.98090 2589.0
17.98290 2764.0
17.98490 2694.0
17.98690 2610.0
17.98890 2618.0
17.99090 2608.0
17.99290 2728.0
17.99490 2663.0
17.99690 2692.0
17.99890 2702.0
18.00090 2643.0
18.00290 2713.0
18.00490 2692.0
18.00690 2847.0
18.00890 2781.0
18.01090 2818.0
18.01290 2727.0
18.01490 2771.0
18.01690 2812.0
18.01890 2833.0
18.02090 2788.0
18.02290 2783.0
18.02490 2712.0
18.02690 2774.0
18.02890 2697.0
18.03090 2748.0
18.03290 2683.0
18.03490 2664.0
18.03690 2703.0
18.03890 2511.0
18.04090 2445.0
18.04290 2574.0
18.04490 2571.0
18.04690 2405.0
18.04890 2444.0
18.05090 2482.0
18.05290 2445.0
18.05490 2270.0
18.05690 2410.0
18.05890 2407.0
18.06090 2385.0
18.06290 2373.0
18.06490 2330.0
18.06690 2371.0
18.06890 2351.0
18.07090 2189.0
18.07290 2289.0
18.07490 2174.0
18.07690 2256.0
18.07890 2343.0
18.08090 2260.0
18.08290 2246.0
18.08490 2265.0
18.08690 2225.0
18.08890 2224.0
18.09090 2232.0
18.09290 2111.0
18.09490 2213.0
18.09690 2177.0
18.09890 2171.0
18.10090 2210.0
18.10290 2133.0
18.10490 2078.0
18.10690 2115.0
18.10890 2205.0
18.11090 2110.0
18.11290 2077.0
18.11490 2051.0
18.11690 2054.0
18.11890 2133.0
18.12090 2169.0
18.12290 2063.0
18.12490 2013.0
18.12690 2128.0
18.12890 2041.0
18.13090 2020.0
18.13290 2017.0
18.13490 1990.0
18.13690 1994.0
18.13890 2034.0
18.14090 2031.0
18.14290 2054.0
18.14490 2048.0
18.14690 1975.0
18.14890 2035.0
18.15090 1976.0
18.15290 1900.0
18.15490 2028.0
18.15690 1934.0
18.15890 2028.0
18.16090 1839.0
18.16290 1910.0
18.16490 1885.0
18.16690 1878.0
18.16890 1860.0
18.17090 1885.0
18.17290 1900.0
18.17490 1829.0
18.17690 1862.0
18.17890 1768.0
18.18090 1878.0
18.18290 1771.0
18.18490 1974.0
18.18690 1859.0
18.18890 1823.0
18.19090 1859.0
18.19290 1826.0
18.19490 1838.0
18.19690 1776.0
18.19890 1806.0
18.20090 1792.0
18.20290 1712.0
18.20490 1834.0
18.20690 1775.0
18.20890 1722.0
18.21090 1718.0
18.21290 1807.0
18.21490 1746.0
18.21690 1736.0
18.21890 1661.0
18.22090 1698.0
18.22290 1656.0
18.22490 1671.0
18.22690 1655.0
18.22890 1701.0
18.23090 1691.0
18.23290 1704.0
18.23490 1601.0
18.23690 1765.0
18.23890 1711.0
18.24090 1688.0
18.24290 1683.0
18.24490 1641.0
18.24690 1617.0
18.24890 1608.0
18.25090 1646.0
18.25290 1570.0
18.25490 1676.0
18.25690 1637.0
18.25890 1540.0
18.26090 1583.0
18.26290 1548.0
18.26490 1698.0
18.26690 1540.0
18.26890 1545.0
18.27090 1655.0
18.27290 1634.0
18.27490 1586.0
18.27690 1580.0
18.27890 1617.0
18.28090 1536.0
18.28290 1524.0
18.28490 1524.0
18.28690 1511.0
18.28890 1594.0
18.29090 1475.0
18.29290 1542.0
18.29490 1585.0
18.29690 1534.0
18.29890 1450.0
18.30090 1491.0
18.30290 1539.0
18.30490 1458.0
18.30690 1517.0
18.30890 1523.0
18.31090 1448.0
18.31290 1499.0
18.31490 1391.0
18.31690 1441.0
18.31890 1352.0
18.32090 1394.0
18.32290 1381.0
18.32490 1439.0
18.32690 1421.0
18.32890 1431.0
18.33090 1408.0
18.33290 1372.0
18.33490 1468.0
18.33690 1372.0
18.33890 1381.0
18.34090 1351.0
18.34290 1354.0
18.34490 1337.0
18.34690 1316.0
18.34890 1394.0
18.35090 1416.0
18.35290 1357.0
18.35490 1311.0
18.35690 1313.0
18.35890 1388.0
18.36090 1376.0
18.36290 1389.0
18.36490 1317.0
18.36690 1323.0
18.36890 1330.0
18.37090 1323.0
18.37290 1324.0
18.37490 1318.0
18.37690 1328.0
18.37890 1326.0
18.38090 1359.0
18.38290 1272.0
18.38490 1350.0
18.38690 1241.0
18.38890 1258.0
18.39090 1263.0
18.39290 1276.0
18.39490 1268.0
18.39690 1320.0
18.39890 1264.0
18.40090 1276.0
18.40290 1310.0
18.40490 1213.0
18.40690 1218.0
18.40890 1274.0
18.41090 1241.0
18.41290 1271.0
18.41490 1225.0
18.41690 1253.0
18.41890 1189.0
18.42090 1256.0
18.42290 1183.0
18.42490 1238.0
18.42690 1156.0
18.42890 1215.0
18.43090 1191.0
18.43290 1208.0
18.43490 1233.0
18.43690 1183.0
18.43890 1139.0
18.44090 1198.0
18.44290 1193.0
18.44490 1214.0
18.44690 1205.0
18.44890 1174.0
18.45090 1175.0
18.45290 1110.0
18.45490 1089.0
18.45690 1115.0
18.45890 1163.0
18.46090 1196.0
18.46290 1145.0
18.46490 1153.0
18.46690 1211.0
18.46890 1105.0
18.47090 1158.0
18.47290 1123.0
18.47490 1116.0
18.47690 1164.0
18.47890 1102.0
18.48090 1093.0
18.48290 1169.0
18.48490 1081.0
18.48690 1106.0
18.48890 1090.0
18.49090 1121.0
18.49290 1091.0
18.49490 1094.0