File: data/W6911a/XRD_Omega/w6911a_a-Cr2O3_scan_omega_4deg_step_0.005deg0_C1.xy
16.31380 61.0
16.31880 63.0
16.32380 80.0
16.32880 82.0
16.33380 69.0
16.33880 68.0
16.34380 58.0
16.34880 60.0
16.35380 70.0
16.35880 85.0
16.36380 78.0
16.36880 77.0
16.37380 71.0
16.37880 77.0
16.38380 74.0
16.38880 75.0
16.39380 74.0
16.39880 73.0
16.40380 71.0
16.40880 81.0
16.41380 66.0
16.41880 86.0
16.42380 58.0
16.42880 64.0
16.43380 67.0
16.43880 84.0
16.44380 74.0
16.44880 83.0
16.45380 75.0
16.45880 85.0
16.46380 83.0
16.46880 78.0
16.47380 82.0
16.47880 74.0
16.48380 82.0
16.48880 76.0
16.49380 78.0
16.49880 78.0
16.50380 64.0
16.50880 73.0
16.51380 102.0
16.51880 69.0
16.52380 95.0
16.52880 74.0
16.53380 73.0
16.53880 82.0
16.54380 82.0
16.54880 83.0
16.55380 93.0
16.55880 84.0
16.56380 88.0
16.56880 82.0
16.57380 76.0
16.57880 96.0
16.58380 89.0
16.58880 66.0
16.59380 79.0
16.59880 87.0
16.60380 98.0
16.60880 86.0
16.61380 94.0
16.61880 88.0
16.62380 90.0
16.62880 80.0
16.63380 95.0
16.63880 96.0
16.64380 90.0
16.64880 87.0
16.65380 91.0
16.65880 77.0
16.66380 87.0
16.66880 92.0
16.67380 98.0
16.67880 90.0
16.68380 89.0
16.68880 83.0
16.69380 93.0
16.69880 100.0
16.70380 87.0
16.70880 108.0
16.71380 92.0
16.71880 97.0
16.72380 106.0
16.72880 106.0
16.73380 95.0
16.73880 80.0
16.74380 91.0
16.74880 91.0
16.75380 99.0
16.75880 76.0
16.76380 96.0
16.76880 91.0
16.77380 89.0
16.77880 92.0
16.78380 107.0
16.78880 108.0
16.79380 107.0
16.79880 99.0
16.80380 93.0
16.80880 93.0
16.81380 98.0
16.81880 94.0
16.82380 86.0
16.82880 126.0
16.83380 95.0
16.83880 90.0
16.84380 112.0
16.84880 111.0
16.85380 120.0
16.85880 106.0
16.86380 105.0
16.86880 95.0
16.87380 124.0
16.87880 122.0
16.88380 136.0
16.88880 116.0
16.89380 117.0
16.89880 135.0
16.90380 139.0
16.90880 123.0
16.91380 130.0
16.91880 134.0
16.92380 125.0
16.92880 134.0
16.93380 120.0
16.93880 120.0
16.94380 135.0
16.94880 122.0
16.95380 125.0
16.95880 100.0
16.96380 142.0
16.96880 150.0
16.97380 138.0
16.97880 128.0
16.98380 132.0
16.98880 145.0
16.99380 149.0
16.99880 121.0
17.00380 147.0
17.00880 140.0
17.01380 147.0
17.01880 170.0
17.02380 151.0
17.02880 130.0
17.03380 152.0
17.03880 171.0
17.04380 174.0
17.04880 155.0
17.05380 140.0
17.05880 168.0
17.06380 136.0
17.06880 168.0
17.07380 164.0
17.07880 169.0
17.08380 179.0
17.08880 173.0
17.09380 165.0
17.09880 170.0
17.10380 166.0
17.10880 185.0
17.11380 202.0
17.11880 186.0
17.12380 169.0
17.12880 146.0
17.13380 192.0
17.13880 182.0
17.14380 164.0
17.14880 180.0
17.15380 208.0
17.15880 187.0
17.16380 200.0
17.16880 231.0
17.17380 192.0
17.17880 213.0
17.18380 212.0
17.18880 218.0
17.19380 233.0
17.19880 237.0
17.20380 234.0
17.20880 206.0
17.21380 241.0
17.21880 227.0
17.22380 217.0
17.22880 249.0
17.23380 237.0
17.23880 231.0
17.24380 250.0
17.24880 276.0
17.25380 220.0
17.25880 268.0
17.26380 257.0
17.26880 254.0
17.27380 241.0
17.27880 245.0
17.28380 257.0
17.28880 250.0
17.29380 302.0
17.29880 275.0
17.30380 298.0
17.30880 256.0
17.31380 274.0
17.31880 333.0
17.32380 301.0
17.32880 341.0
17.33380 320.0
17.33880 305.0
17.34380 343.0
17.34880 332.0
17.35380 316.0
17.35880 325.0
17.36380 330.0
17.36880 341.0
17.37380 372.0
17.37880 360.0
17.38380 374.0
17.38880 339.0
17.39380 370.0
17.39880 340.0
17.40380 390.0
17.40880 373.0
17.41380 403.0
17.41880 398.0
17.42380 408.0
17.42880 406.0
17.43380 471.0
17.43880 438.0
17.44380 453.0
17.44880 402.0
17.45380 455.0
17.45880 419.0
17.46380 441.0
17.46880 475.0
17.47380 484.0
17.47880 474.0
17.48380 500.0
17.48880 487.0
17.49380 529.0
17.49880 524.0
17.50380 567.0
17.50880 534.0
17.51380 533.0
17.51880 521.0
17.52380 560.0
17.52880 554.0
17.53380 544.0
17.53880 601.0
17.54380 573.0
17.54880 602.0
17.55380 611.0
17.55880 595.0
17.56380 617.0
17.56880 687.0
17.57380 646.0
17.57880 666.0
17.58380 676.0
17.58880 668.0
17.59380 728.0
17.59880 729.0
17.60380 727.0
17.60880 703.0
17.61380 725.0
17.61880 787.0
17.62380 765.0
17.62880 798.0
17.63380 800.0
17.63880 855.0
17.64380 829.0
17.64880 810.0
17.65380 853.0
17.65880 820.0
17.66380 861.0
17.66880 912.0
17.67380 854.0
17.67880 940.0
17.68380 956.0
17.68880 965.0
17.69380 891.0
17.69880 1045.0
17.70380 988.0
17.70880 991.0
17.71380 1043.0
17.71880 1039.0
17.72380 1029.0
17.72880 1064.0
17.73380 1039.0
17.73880 1132.0
17.74380 1200.0
17.74880 1172.0
17.75380 1157.0
17.75880 1225.0
17.76380 1219.0
17.76880 1198.0
17.77380 1263.0
17.77880 1363.0
17.78380 1391.0
17.78880 1271.0
17.79380 1448.0
17.79880 1362.0
17.80380 1475.0
17.80880 1375.0
17.81380 1494.0
17.81880 1492.0
17.82380 1492.0
17.82880 1491.0
17.83380 1540.0
17.83880 1436.0
17.84380 1505.0
17.84880 1585.0
17.85380 1616.0
17.85880 1639.0
17.86380 1719.0
17.86880 1588.0
17.87380 1703.0
17.87880 1834.0
17.88380 1701.0
17.88880 1849.0
17.89380 1846.0
17.89880 1843.0
17.90380 1839.0
17.90880 1902.0
17.91380 1955.0
17.91880 1916.0
17.92380 2020.0
17.92880 2059.0
17.93380 1986.0
17.93880 2104.0
17.94380 2115.0
17.94880 2182.0
17.95380 2035.0
17.95880 2127.0
17.96380 2128.0
17.96880 2245.0
17.97380 2315.0
17.97880 2268.0
17.98380 2239.0
17.98880 2337.0
17.99380 2362.0
17.99880 2416.0
18.00380 2378.0
18.00880 2373.0
18.01380 2569.0
18.01880 2595.0
18.02380 2565.0
18.02880 2670.0
18.03380 2636.0
18.03880 2580.0
18.04380 2648.0
18.04880 2641.0
18.05380 2753.0
18.05880 2762.0
18.06380 2733.0
18.06880 2695.0
18.07380 2872.0
18.07880 2815.0
18.08380 2756.0
18.08880 2871.0
18.09380 2973.0
18.09880 2969.0
18.10380 2990.0
18.10880 3021.0
18.11380 2944.0
18.11880 3103.0
18.12380 3058.0
18.12880 3153.0
18.13380 3174.0
18.13880 3213.0
18.14380 3246.0
18.14880 3306.0
18.15380 3137.0
18.15880 3363.0
18.16380 3293.0
18.16880 3417.0
18.17380 3315.0
18.17880 3428.0
18.18380 3529.0
18.18880 3540.0
18.19380 3391.0
18.19880 3515.0
18.20380 3473.0
18.20880 3564.0
18.21380 3709.0
18.21880 3607.0
18.22380 3667.0
18.22880 3720.0
18.23380 3800.0
18.23880 3681.0
18.24380 3799.0
18.24880 3614.0
18.25380 3803.0
18.25880 3792.0
18.26380 3762.0
18.26880 3911.0
18.27380 3829.0
18.27880 3766.0
18.28380 3788.0
18.28880 3801.0
18.29380 3882.0
18.29880 3864.0
18.30380 3955.0
18.30880 3872.0
18.31380 3974.0
18.31880 3757.0
18.32380 3937.0
18.32880 3844.0
18.33380 3725.0
18.33880 3823.0
18.34380 3775.0
18.34880 3827.0
18.35380 3772.0
18.35880 3700.0
18.36380 3807.0
18.36880 3789.0
18.37380 3700.0
18.37880 3685.0
18.38380 3713.0
18.38880 3661.0
18.39380 3632.0
18.39880 3746.0
18.40380 3569.0
18.40880 3567.0
18.41380 3672.0
18.41880 3671.0
18.42380 3566.0
18.42880 3488.0
18.43380 3412.0
18.43880 3346.0
18.44380 3319.0
18.44880 3270.0
18.45380 3181.0
18.45880 3117.0
18.46380 3194.0
18.46880 3171.0
18.47380 3083.0
18.47880 3027.0
18.48380 2950.0
18.48880 2887.0
18.49380 2858.0
18.49880 2880.0
18.50380 2892.0
18.50880 2791.0
18.51380 2815.0
18.51880 2760.0
18.52380 2849.0
18.52880 2714.0
18.53380 2632.0
18.53880 2796.0
18.54380 2684.0
18.54880 2654.0
18.55380 2573.0
18.55880 2608.0
18.56380 2541.0
18.56880 2410.0
18.57380 2411.0
18.57880 2406.0
18.58380 2411.0
18.58880 2386.0
18.59380 2304.0
18.59880 2349.0
18.60380 2266.0
18.60880 2293.0
18.61380 2228.0
18.61880 2295.0
18.62380 2211.0
18.62880 2105.0
18.63380 2236.0
18.63880 2106.0
18.64380 2045.0
18.64880 2043.0
18.65380 2038.0
18.65880 2004.0
18.66380 1988.0
18.66880 1967.0
18.67380 1933.0
18.67880 1868.0
18.68380 1854.0
18.68880 1937.0
18.69380 1833.0
18.69880 1803.0
18.70380 1727.0
18.70880 1689.0
18.71380 1635.0
18.71880 1625.0
18.72380 1661.0
18.72880 1572.0
18.73380 1590.0
18.73880 1574.0
18.74380 1590.0
18.74880 1485.0
18.75380 1468.0
18.75880 1445.0
18.76380 1434.0
18.76880 1367.0
18.77380 1336.0
18.77880 1385.0
18.78380 1358.0
18.78880 1355.0
18.79380 1326.0
18.79880 1205.0
18.80380 1256.0
18.80880 1254.0
18.81380 1280.0
18.81880 1201.0
18.82380 1157.0
18.82880 1172.0
18.83380 1161.0
18.83880 1137.0
18.84380 1092.0
18.84880 1067.0
18.85380 1134.0
18.85880 1005.0
18.86380 1022.0
18.86880 918.0
18.87380 974.0
18.87880 1063.0
18.88380 971.0
18.88880 945.0
18.89380 935.0
18.89880 948.0
18.90380 918.0
18.90880 844.0
18.91380 881.0
18.91880 856.0
18.92380 839.0
18.92880 832.0
18.93380 841.0
18.93880 804.0
18.94380 818.0
18.94880 774.0
18.95380 773.0
18.95880 710.0
18.96380 701.0
18.96880 727.0
18.97380 721.0
18.97880 733.0
18.98380 683.0
18.98880 703.0
18.99380 648.0
18.99880 628.0
19.00380 643.0
19.00880 678.0
19.01380 678.0
19.01880 786.0
19.02380 842.0
19.02880 884.0
19.03380 858.0
19.03880 769.0
19.04380 627.0
19.04880 565.0
19.05380 542.0
19.05880 527.0
19.06380 516.0
19.06880 549.0
19.07380 506.0
19.07880 499.0
19.08380 464.0
19.08880 491.0
19.09380 481.0
19.09880 482.0
19.10380 436.0
19.10880 468.0
19.11380 451.0
19.11880 454.0
19.12380 459.0
19.12880 436.0
19.13380 452.0
19.13880 430.0
19.14380 382.0
19.14880 345.0
19.15380 410.0
19.15880 360.0
19.16380 395.0
19.16880 376.0
19.17380 372.0
19.17880 385.0
19.18380 353.0
19.18880 373.0
19.19380 364.0
19.19880 401.0
19.20380 316.0
19.20880 332.0
19.21380 309.0
19.21880 343.0
19.22380 300.0
19.22880 334.0
19.23380 294.0
19.23880 287.0
19.24380 301.0
19.24880 290.0
19.25380 245.0
19.25880 307.0
19.26380 248.0
19.26880 269.0
19.27380 317.0
19.27880 276.0
19.28380 251.0
19.28880 247.0
19.29380 280.0
19.29880 263.0
19.30380 229.0
19.30880 242.0
19.31380 245.0
19.31880 265.0
19.32380 241.0
19.32880 228.0
19.33380 203.0
19.33880 227.0
19.34380 238.0
19.34880 214.0
19.35380 229.0
19.35880 214.0
19.36380 204.0
19.36880 214.0
19.37380 219.0
19.37880 177.0
19.38380 191.0
19.38880 188.0
19.39380 212.0
19.39880 206.0
19.40380 182.0
19.40880 203.0
19.41380 165.0
19.41880 181.0
19.42380 162.0
19.42880 190.0
19.43380 156.0
19.43880 185.0
19.44380 191.0
19.44880 173.0
19.45380 159.0
19.45880 148.0
19.46380 153.0
19.46880 169.0
19.47380 151.0
19.47880 138.0
19.48380 159.0
19.48880 170.0
19.49380 168.0
19.49880 168.0
19.50380 147.0
19.50880 134.0
19.51380 149.0
19.51880 148.0
19.52380 143.0
19.52880 158.0
19.53380 139.0
19.53880 147.0
19.54380 149.0
19.54880 137.0
19.55380 139.0
19.55880 146.0
19.56380 128.0
19.56880 145.0
19.57380 126.0
19.57880 115.0
19.58380 121.0
19.58880 131.0
19.59380 130.0
19.59880 131.0
19.60380 121.0
19.60880 116.0
19.61380 120.0
19.61880 117.0
19.62380 130.0
19.62880 109.0
19.63380 106.0
19.63880 112.0
19.64380 124.0
19.64880 117.0
19.65380 105.0
19.65880 124.0
19.66380 104.0
19.66880 126.0
19.67380 114.0
19.67880 117.0
19.68380 91.0
19.68880 118.0
19.69380 117.0
19.69880 87.0
19.70380 99.0
19.70880 110.0
19.71380 93.0
19.71880 83.0
19.72380 100.0
19.72880 105.0
19.73380 106.0
19.73880 99.0
19.74380 103.0
19.74880 90.0
19.75380 93.0
19.75880 93.0
19.76380 104.0
19.76880 82.0
19.77380 101.0
19.77880 99.0
19.78380 84.0
19.78880 83.0
19.79380 96.0
19.79880 86.0
19.80380 77.0
19.80880 89.0
19.81380 90.0
19.81880 79.0
19.82380 71.0
19.82880 71.0
19.83380 98.0
19.83880 92.0
19.84380 92.0
19.84880 96.0
19.85380 87.0
19.85880 88.0
19.86380 77.0
19.86880 85.0
19.87380 75.0
19.87880 74.0
19.88380 68.0
19.88880 87.0
19.89380 76.0
19.89880 69.0
19.90380 92.0
19.90880 67.0
19.91380 74.0
19.91880 71.0
19.92380 63.0
19.92880 68.0
19.93380 79.0
19.93880 88.0
19.94380 72.0
19.94880 75.0
19.95380 65.0
19.95880 67.0
19.96380 63.0
19.96880 69.0
19.97380 88.0
19.97880 67.0
19.98380 58.0
19.98880 72.0
19.99380 68.0
19.99880 60.0
20.00380 76.0
20.00880 76.0
20.01380 58.0
20.01880 79.0
20.02380 73.0
20.02880 79.0
20.03380 83.0
20.03880 83.0
20.04380 70.0
20.04880 57.0
20.05380 64.0
20.05880 77.0
20.06380 80.0
20.06880 73.0
20.07380 75.0
20.07880 61.0
20.08380 67.0
20.08880 58.0
20.09380 82.0
20.09880 66.0
20.10380 59.0
20.10880 56.0
20.11380 73.0
20.11880 57.0
20.12380 66.0
20.12880 65.0
20.13380 65.0
20.13880 63.0
20.14380 64.0
20.14880 64.0
20.15380 53.0
20.15880 59.0
20.16380 50.0
20.16880 66.0
20.17380 68.0
20.17880 70.0
20.18380 76.0
20.18880 57.0
20.19380 74.0
20.19880 77.0
20.20380 63.0
20.20880 52.0
20.21380 58.0
20.21880 58.0
20.22380 64.0
20.22880 60.0
20.23380 73.0
20.23880 51.0
20.24380 55.0
20.24880 76.0
20.25380 58.0
20.25880 62.0
20.26380 68.0
20.26880 56.0
20.27380 58.0