File: data/w6928m/XRD_2ThetaOmega/28m_scan_2th-om_m_Cr2O3_55-75deg_PIXscan_4min_1.xy
55.0019 52.0
55.0166 69.0
55.0314 68.0
55.0462 63.0
55.0609 60.0
55.0757 50.0
55.0905 65.0
55.1053 39.0
55.12 70.0
55.1348 61.0
55.1496 69.0
55.1643 51.0
55.1791 62.0
55.1939 57.0
55.2087 54.0
55.2234 51.0
55.2382 67.0
55.253 66.0
55.2678 62.0
55.2825 55.0
55.2973 45.0
55.3121 70.0
55.3268 58.0
55.3416 67.0
55.3564 57.0
55.3712 45.0
55.3859 60.0
55.4007 65.0
55.4155 50.0
55.4302 63.0
55.445 54.0
55.4598 61.0
55.4746 53.0
55.4893 57.0
55.5041 60.0
55.5189 61.0
55.5336 75.0
55.5484 54.0
55.5632 66.0
55.578 70.0
55.5927 63.0
55.6075 56.0
55.6223 67.0
55.637 66.0
55.6518 69.0
55.6666 50.0
55.6814 67.0
55.6961 69.0
55.7109 69.0
55.7257 59.0
55.7404 63.0
55.7552 69.0
55.77 68.0
55.7848 56.0
55.7995 66.0
55.8143 54.0
55.8291 50.0
55.8438 55.0
55.8586 55.0
55.8734 56.0
55.8882 51.0
55.9029 49.0
55.9177 69.0
55.9325 64.0
55.9472 53.0
55.962 67.0
55.9768 54.0
55.9916 64.0
56.0063 64.0
56.0211 56.0
56.0359 58.0
56.0506 46.0
56.0654 70.0
56.0802 67.0
56.095 59.0
56.1097 70.0
56.1245 39.0
56.1393 68.0
56.154 53.0
56.1688 52.0
56.1836 63.0
56.1984 55.0
56.2131 63.0
56.2279 57.0
56.2427 50.0
56.2574 63.0
56.2722 64.0
56.287 62.0
56.3018 60.0
56.3165 60.0
56.3313 58.0
56.3461 60.0
56.3608 62.0
56.3756 59.0
56.3904 52.0
56.4052 67.0
56.4199 60.0
56.4347 52.0
56.4495 51.0
56.4642 49.0
56.479 51.0
56.4938 50.0
56.5086 69.0
56.5233 70.0
56.5381 62.0
56.5529 68.0
56.5676 59.0
56.5824 59.0
56.5972 59.0
56.612 52.0
56.6267 47.0
56.6415 58.0
56.6563 64.0
56.671 60.0
56.6858 64.0
56.7006 83.0
56.7154 69.0
56.7301 73.0
56.7449 58.0
56.7597 62.0
56.7745 67.0
56.7892 55.0
56.804 62.0
56.8188 59.0
56.8335 60.0
56.8483 48.0
56.8631 67.0
56.8779 71.0
56.8926 69.0
56.9074 67.0
56.9222 51.0
56.9369 46.0
56.9517 62.0
56.9665 57.0
56.9813 67.0
56.996 61.0
57.0108 60.0
57.0256 59.0
57.0403 62.0
57.0551 47.0
57.0699 60.0
57.0847 61.0
57.0994 57.0
57.1142 64.0
57.129 58.0
57.1437 49.0
57.1585 54.0
57.1733 67.0
57.1881 53.0
57.2028 64.0
57.2176 64.0
57.2324 71.0
57.2471 64.0
57.2619 59.0
57.2767 62.0
57.2915 60.0
57.3062 56.0
57.321 59.0
57.3358 60.0
57.3505 51.0
57.3653 56.0
57.3801 67.0
57.3949 61.0
57.4096 59.0
57.4244 53.0
57.4392 58.0
57.4539 54.0
57.4687 59.0
57.4835 58.0
57.4983 74.0
57.513 53.0
57.5278 79.0
57.5426 68.0
57.5573 57.0
57.5721 56.0
57.5869 53.0
57.6017 52.0
57.6164 59.0
57.6312 65.0
57.646 65.0
57.6607 52.0
57.6755 60.0
57.6903 57.0
57.7051 66.0
57.7198 60.0
57.7346 66.0
57.7494 59.0
57.7641 67.0
57.7789 88.0
57.7937 79.0
57.8085 72.0
57.8232 85.0
57.838 95.0
57.8528 91.0
57.8675 95.0
57.8823 112.0
57.8971 94.0
57.9119 90.0
57.9266 93.0
57.9414 97.0
57.9562 90.0
57.9709 97.0
57.9857 69.0
58.0005 82.0
58.0153 81.0
58.03 71.0
58.0448 79.0
58.0596 69.0
58.0743 77.0
58.0891 68.0
58.1039 65.0
58.1187 59.0
58.1334 55.0
58.1482 63.0
58.163 60.0
58.1777 70.0
58.1925 63.0
58.2073 73.0
58.2221 49.0
58.2368 64.0
58.2516 69.0
58.2664 55.0
58.2812 47.0
58.2959 56.0
58.3107 68.0
58.3255 61.0
58.3402 70.0
58.355 62.0
58.3698 70.0
58.3846 57.0
58.3993 61.0
58.4141 57.0
58.4289 53.0
58.4436 58.0
58.4584 51.0
58.4732 67.0
58.488 48.0
58.5027 61.0
58.5175 57.0
58.5323 61.0
58.547 56.0
58.5618 73.0
58.5766 51.0
58.5914 55.0
58.6061 60.0
58.6209 58.0
58.6357 56.0
58.6504 64.0
58.6652 72.0
58.68 68.0
58.6948 58.0
58.7095 73.0
58.7243 59.0
58.7391 54.0
58.7538 48.0
58.7686 60.0
58.7834 69.0
58.7982 60.0
58.8129 63.0
58.8277 71.0
58.8425 69.0
58.8572 60.0
58.872 66.0
58.8868 65.0
58.9016 64.0
58.9163 56.0
58.9311 53.0
58.9459 59.0
58.9606 46.0
58.9754 51.0
58.9902 59.0
59.005 66.0
59.0197 59.0
59.0345 61.0
59.0493 62.0
59.064 56.0
59.0788 64.0
59.0936 72.0
59.1084 70.0
59.1231 57.0
59.1379 60.0
59.1527 44.0
59.1674 64.0
59.1822 57.0
59.197 65.0
59.2118 49.0
59.2265 60.0
59.2413 66.0
59.2561 64.0
59.2708 51.0
59.2856 56.0
59.3004 74.0
59.3152 60.0
59.3299 70.0
59.3447 61.0
59.3595 56.0
59.3742 57.0
59.389 65.0
59.4038 64.0
59.4186 70.0
59.4333 73.0
59.4481 74.0
59.4629 65.0
59.4776 51.0
59.4924 54.0
59.5072 54.0
59.522 63.0
59.5367 63.0
59.5515 64.0
59.5663 49.0
59.581 71.0
59.5958 62.0
59.6106 78.0
59.6254 71.0
59.6401 58.0
59.6549 56.0
59.6697 58.0
59.6844 58.0
59.6992 57.0
59.714 51.0
59.7288 63.0
59.7435 64.0
59.7583 65.0
59.7731 58.0
59.7878 66.0
59.8026 48.0
59.8174 58.0
59.8322 58.0
59.8469 73.0
59.8617 53.0
59.8765 54.0
59.8913 57.0
59.906 58.0
59.9208 53.0
59.9356 51.0
59.9503 66.0
59.9651 50.0
59.9799 57.0
59.9947 59.0
60.0094 53.0
60.0242 66.0
60.039 56.0
60.0537 62.0
60.0685 60.0
60.0833 72.0
60.0981 60.0
60.1128 70.0
60.1276 66.0
60.1424 66.0
60.1571 56.0
60.1719 60.0
60.1867 64.0
60.2015 55.0
60.2162 64.0
60.231 60.0
60.2458 55.0
60.2605 65.0
60.2753 63.0
60.2901 72.0
60.3049 68.0
60.3196 85.0
60.3344 69.0
60.3492 55.0
60.3639 60.0
60.3787 69.0
60.3935 61.0
60.4083 72.0
60.423 68.0
60.4378 67.0
60.4526 55.0
60.4673 65.0
60.4821 58.0
60.4969 69.0
60.5117 72.0
60.5264 85.0
60.5412 82.0
60.556 77.0
60.5707 73.0
60.5855 84.0
60.6003 66.0
60.6151 59.0
60.6298 60.0
60.6446 76.0
60.6594 83.0
60.6741 87.0
60.6889 70.0
60.7037 87.0
60.7185 97.0
60.7332 83.0
60.748 112.0
60.7628 109.0
60.7775 144.0
60.7923 256.0
60.8071 393.0
60.8219 591.0
60.8366 776.0
60.8514 681.0
60.8662 522.0
60.8809 350.0
60.8957 327.0
60.9105 315.0
60.9253 282.0
60.94 203.0
60.9548 152.0
60.9696 125.0
60.9843 94.0
60.9991 109.0
61.0139 106.0
61.0287 86.0
61.0434 83.0
61.0582 66.0
61.073 85.0
61.0877 91.0
61.1025 80.0
61.1173 80.0
61.1321 86.0
61.1468 73.0
61.1616 79.0
61.1764 79.0
61.1911 68.0
61.2059 66.0
61.2207 66.0
61.2355 66.0
61.2502 78.0
61.265 62.0
61.2798 71.0
61.2945 85.0
61.3093 66.0
61.3241 56.0
61.3389 71.0
61.3536 53.0
61.3684 71.0
61.3832 71.0
61.398 56.0
61.4127 57.0
61.4275 72.0
61.4423 76.0
61.457 76.0
61.4718 60.0
61.4866 65.0
61.5014 62.0
61.5161 71.0
61.5309 75.0
61.5457 72.0
61.5604 80.0
61.5752 64.0
61.59 56.0
61.6048 79.0
61.6195 61.0
61.6343 72.0
61.6491 69.0
61.6638 69.0
61.6786 81.0
61.6934 68.0
61.7082 68.0
61.7229 71.0
61.7377 76.0
61.7525 70.0
61.7672 74.0
61.782 84.0
61.7968 73.0
61.8116 76.0
61.8263 74.0
61.8411 87.0
61.8559 84.0
61.8706 59.0
61.8854 66.0
61.9002 73.0
61.915 64.0
61.9297 78.0
61.9445 56.0
61.9593 58.0
61.974 75.0
61.9888 72.0
62.0036 67.0
62.0184 58.0
62.0331 54.0
62.0479 73.0
62.0627 66.0
62.0774 74.0
62.0922 81.0
62.107 78.0
62.1218 69.0
62.1365 73.0
62.1513 76.0
62.1661 68.0
62.1808 68.0
62.1956 72.0
62.2104 67.0
62.2252 67.0
62.2399 67.0
62.2547 75.0
62.2695 73.0
62.2842 62.0
62.299 79.0
62.3138 73.0
62.3286 85.0
62.3433 85.0
62.3581 70.0
62.3729 70.0
62.3876 59.0
62.4024 62.0
62.4172 71.0
62.432 60.0
62.4467 56.0
62.4615 80.0
62.4763 75.0
62.491 74.0
62.5058 85.0
62.5206 74.0
62.5354 80.0
62.5501 96.0
62.5649 59.0
62.5797 74.0
62.5944 66.0
62.6092 91.0
62.624 85.0
62.6388 75.0
62.6535 71.0
62.6683 65.0
62.6831 69.0
62.6978 81.0
62.7126 62.0
62.7274 84.0
62.7422 62.0
62.7569 68.0
62.7717 93.0
62.7865 72.0
62.8012 80.0
62.816 76.0
62.8308 60.0
62.8456 85.0
62.8603 79.0
62.8751 85.0
62.8899 66.0
62.9047 76.0
62.9194 74.0
62.9342 87.0
62.949 79.0
62.9637 88.0
62.9785 71.0
62.9933 65.0
63.0081 83.0
63.0228 79.0
63.0376 76.0
63.0524 91.0
63.0671 86.0
63.0819 84.0
63.0967 80.0
63.1115 82.0
63.1262 72.0
63.141 74.0
63.1558 92.0
63.1705 76.0
63.1853 82.0
63.2001 85.0
63.2149 76.0
63.2296 75.0
63.2444 76.0
63.2592 74.0
63.2739 100.0
63.2887 87.0
63.3035 83.0
63.3183 90.0
63.333 96.0
63.3478 76.0
63.3626 79.0
63.3773 89.0
63.3921 73.0
63.4069 77.0
63.4217 90.0
63.4364 88.0
63.4512 98.0
63.466 105.0
63.4807 101.0
63.4955 94.0
63.5103 106.0
63.5251 97.0
63.5398 81.0
63.5546 112.0
63.5694 92.0
63.5841 103.0
63.5989 104.0
63.6137 95.0
63.6285 90.0
63.6432 89.0
63.658 97.0
63.6728 106.0
63.6875 92.0
63.7023 98.0
63.7171 114.0
63.7319 107.0
63.7466 111.0
63.7614 108.0
63.7762 121.0
63.7909 108.0
63.8057 119.0
63.8205 106.0
63.8353 127.0
63.85 119.0
63.8648 106.0
63.8796 125.0
63.8943 135.0
63.9091 136.0
63.9239 132.0
63.9387 118.0
63.9534 127.0
63.9682 150.0
63.983 150.0
63.9977 145.0
64.0125 142.0
64.0273 143.0
64.0421 158.0
64.0568 142.0
64.0716 164.0
64.0864 153.0
64.1011 166.0
64.1159 176.0
64.1307 176.0
64.1455 197.0
64.1602 199.0
64.175 212.0
64.1898 185.0
64.2045 240.0
64.2193 185.0
64.2341 206.0
64.2489 281.0
64.2636 259.0
64.2784 268.0
64.2932 285.0
64.3079 312.0
64.3227 355.0
64.3375 361.0
64.3523 342.0
64.367 360.0
64.3818 421.0
64.3966 452.0
64.4114 464.0
64.4261 454.0
64.4409 570.0
64.4557 574.0
64.4704 582.0
64.4852 686.0
64.5 706.0
64.5148 827.0
64.5295 869.0
64.5443 909.0
64.5591 1047.0
64.5738 1194.0
64.5886 1245.0
64.6034 1464.0
64.6182 1586.0
64.6329 1814.0
64.6477 2100.0
64.6625 2459.0
64.6772 2835.0
64.692 3159.0
64.7068 3624.0
64.7216 4059.0
64.7363 4700.0
64.7511 5040.0
64.7659 5443.0
64.7806 5689.0
64.7954 5978.0
64.8102 5673.0
64.825 5518.0
64.8397 5190.0
64.8545 4672.0
64.8693 4472.0
64.884 4289.0
64.8988 3967.0
64.9136 3909.0
64.9284 3877.0
64.9431 3914.0
64.9579 3646.0
64.9727 3542.0
64.9874 3263.0
65.0022 3072.0
65.017 2814.0
65.0318 2363.0
65.0465 2132.0
65.0613 1866.0
65.0761 1494.0
65.0908 1375.0
65.1056 1207.0
65.1204 1000.0
65.1352 936.0
65.1499 751.0
65.1647 693.0
65.1795 589.0
65.1942 543.0
65.209 500.0
65.2238 491.0
65.2386 416.0
65.2533 390.0
65.2681 370.0
65.2829 318.0
65.2976 316.0
65.3124 304.0
65.3272 279.0
65.342 314.0
65.3567 280.0
65.3715 261.0
65.3863 238.0
65.401 225.0
65.4158 212.0
65.4306 229.0
65.4454 217.0
65.4601 196.0
65.4749 209.0
65.4897 186.0
65.5044 195.0
65.5192 197.0
65.534 183.0
65.5488 193.0
65.5635 170.0
65.5783 171.0
65.5931 141.0
65.6078 149.0
65.6226 148.0
65.6374 137.0
65.6522 168.0
65.6669 139.0
65.6817 159.0
65.6965 168.0
65.7112 154.0
65.726 149.0
65.7408 118.0
65.7556 126.0
65.7703 153.0
65.7851 108.0
65.7999 128.0
65.8146 120.0
65.8294 153.0
65.8442 122.0
65.859 110.0
65.8737 135.0
65.8885 117.0
65.9033 118.0
65.9181 147.0
65.9328 102.0
65.9476 122.0
65.9624 138.0
65.9771 131.0
65.9919 130.0
66.0067 147.0
66.0215 129.0
66.0362 126.0
66.051 130.0
66.0658 138.0
66.0805 133.0
66.0953 118.0
66.1101 120.0
66.1249 106.0
66.1396 114.0
66.1544 118.0
66.1692 133.0
66.1839 111.0
66.1987 120.0
66.2135 137.0
66.2283 117.0
66.243 120.0
66.2578 141.0
66.2726 133.0
66.2873 154.0
66.3021 129.0
66.3169 138.0
66.3317 124.0
66.3464 153.0
66.3612 134.0
66.376 127.0
66.3907 138.0
66.4055 131.0
66.4203 146.0
66.4351 142.0
66.4498 156.0
66.4646 138.0
66.4794 137.0
66.4941 149.0
66.5089 133.0
66.5237 125.0
66.5385 141.0
66.5532 145.0
66.568 141.0
66.5828 142.0
66.5975 168.0
66.6123 134.0
66.6271 161.0
66.6419 168.0
66.6566 150.0
66.6714 141.0
66.6862 162.0
66.7009 141.0
66.7157 168.0
66.7305 155.0
66.7453 202.0
66.76 160.0
66.7748 169.0
66.7896 171.0
66.8043 179.0
66.8191 158.0
66.8339 190.0
66.8487 184.0
66.8634 184.0
66.8782 173.0
66.893 178.0
66.9077 187.0
66.9225 177.0
66.9373 186.0
66.9521 178.0
66.9668 185.0
66.9816 183.0
66.9964 210.0
67.0111 189.0
67.0259 204.0
67.0407 264.0
67.0555 190.0
67.0702 255.0
67.085 214.0
67.0998 259.0
67.1145 200.0
67.1293 212.0
67.1441 257.0
67.1589 259.0
67.1736 280.0
67.1884 279.0
67.2032 260.0
67.2179 292.0
67.2327 218.0
67.2475 276.0
67.2623 299.0
67.277 275.0
67.2918 309.0
67.3066 317.0
67.3213 298.0
67.3361 335.0
67.3509 313.0
67.3657 332.0
67.3804 354.0
67.3952 300.0
67.41 390.0
67.4248 362.0
67.4395 334.0
67.4543 344.0
67.4691 379.0
67.4838 412.0
67.4986 402.0
67.5134 412.0
67.5282 409.0
67.5429 413.0
67.5577 444.0
67.5725 454.0
67.5872 426.0
67.602 509.0
67.6168 469.0
67.6316 556.0
67.6463 515.0
67.6611 605.0
67.6759 547.0
67.6906 621.0
67.7054 649.0
67.7202 696.0
67.735 772.0
67.7497 926.0
67.7645 1079.0
67.7793 1220.0
67.794 1337.0
67.8088 1630.0
67.8236 1709.0
67.8384 1744.0
67.8531 1873.0
67.8679 1900.0
67.8827 1715.0
67.8974 1719.0
67.9122 1629.0
67.927 1837.0
67.9418 1791.0
67.9565 2005.0
67.9713 2044.0
67.9861 2349.0
68.0008 2752.0
68.0156 3189.0
68.0304 3957.0
68.0452 4997.0
68.0599 5976.0
68.0747 8536.0
68.0895 11250.0
68.1042 18958.0
68.119 32449.0
68.1338 79042.0
68.1486 197564.0
68.1633 226671.0
68.1781 138824.0
68.1929 69431.0
68.2076 33808.0
68.2224 18409.0
68.2372 12279.0
68.252 9561.0
68.2667 8531.0
68.2815 9349.0
68.2963 12676.0
68.311 20499.0
68.3258 42913.0
68.3406 88116.0
68.3554 109253.0
68.3701 77591.0
68.3849 39039.0
68.3997 19195.0
68.4144 10594.0
68.4292 6949.0
68.444 4826.0
68.4588 3890.0
68.4735 3178.0
68.4883 2557.0
68.5031 2299.0
68.5178 2031.0
68.5326 1817.0
68.5474 1570.0
68.5622 1482.0
68.5769 1402.0
68.5917 1212.0
68.6065 1104.0
68.6212 1056.0
68.636 969.0
68.6508 939.0
68.6656 906.0
68.6803 831.0
68.6951 780.0
68.7099 707.0
68.7246 722.0
68.7394 703.0
68.7542 613.0
68.769 607.0
68.7837 611.0
68.7985 529.0
68.8133 541.0
68.828 515.0
68.8428 524.0
68.8576 450.0
68.8724 448.0
68.8871 423.0
68.9019 418.0
68.9167 424.0
68.9315 439.0
68.9462 421.0
68.961 354.0
68.9758 374.0
68.9905 375.0
69.0053 306.0
69.0201 339.0
69.0349 342.0
69.0496 305.0
69.0644 310.0
69.0792 273.0
69.0939 284.0
69.1087 255.0
69.1235 303.0
69.1383 294.0
69.153 277.0
69.1678 257.0
69.1826 277.0
69.1973 218.0
69.2121 273.0
69.2269 191.0
69.2417 215.0
69.2564 180.0
69.2712 224.0
69.286 194.0
69.3007 178.0
69.3155 190.0
69.3303 182.0
69.3451 170.0
69.3598 187.0
69.3746 157.0
69.3894 175.0
69.4041 160.0
69.4189 165.0
69.4337 159.0
69.4485 152.0
69.4632 157.0
69.478 153.0
69.4928 143.0
69.5075 126.0
69.5223 138.0
69.5371 141.0
69.5519 150.0
69.5666 140.0
69.5814 145.0
69.5962 132.0
69.6109 136.0
69.6257 120.0
69.6405 142.0
69.6553 111.0
69.67 132.0
69.6848 123.0
69.6996 129.0
69.7143 125.0
69.7291 111.0
69.7439 136.0
69.7587 103.0
69.7734 113.0
69.7882 114.0
69.803 127.0
69.8177 109.0
69.8325 88.0
69.8473 115.0
69.8621 115.0
69.8768 101.0
69.8916 93.0
69.9064 89.0
69.9211 95.0
69.9359 116.0
69.9507 100.0
69.9655 87.0
69.9802 117.0
69.995 123.0
70.0098 78.0
70.0245 120.0
70.0393 111.0
70.0541 100.0
70.0689 98.0
70.0836 93.0
70.0984 91.0
70.1132 95.0
70.1279 82.0
70.1427 90.0
70.1575 96.0
70.1723 84.0
70.187 96.0
70.2018 75.0
70.2166 87.0
70.2313 92.0
70.2461 83.0
70.2609 90.0
70.2757 95.0
70.2904 70.0
70.3052 110.0
70.32 86.0
70.3347 93.0
70.3495 89.0
70.3643 72.0
70.3791 90.0
70.3938 103.0
70.4086 87.0
70.4234 99.0
70.4382 88.0
70.4529 84.0
70.4677 92.0
70.4825 78.0
70.4972 87.0
70.512 87.0
70.5268 88.0
70.5416 88.0
70.5563 68.0
70.5711 76.0
70.5859 88.0
70.6006 90.0
70.6154 88.0
70.6302 77.0
70.645 77.0
70.6597 66.0
70.6745 86.0
70.6893 98.0
70.704 73.0
70.7188 86.0
70.7336 77.0
70.7484 67.0
70.7631 97.0
70.7779 73.0
70.7927 96.0
70.8074 68.0
70.8222 73.0
70.837 79.0
70.8518 67.0
70.8665 86.0
70.8813 67.0
70.8961 103.0
70.9108 81.0
70.9256 75.0
70.9404 92.0
70.9552 82.0
70.9699 66.0
70.9847 66.0
70.9995 66.0
71.0142 67.0
71.029 70.0
71.0438 89.0
71.0586 58.0
71.0733 83.0
71.0881 73.0
71.1029 71.0
71.1176 84.0
71.1324 80.0
71.1472 83.0
71.162 72.0
71.1767 79.0
71.1915 65.0
71.2063 73.0
71.221 87.0
71.2358 68.0
71.2506 89.0
71.2654 78.0
71.2801 78.0
71.2949 75.0
71.3097 81.0
71.3244 83.0
71.3392 83.0
71.354 86.0
71.3688 74.0
71.3835 61.0
71.3983 68.0
71.4131 69.0
71.4278 75.0
71.4426 79.0
71.4574 68.0
71.4722 71.0
71.4869 80.0
71.5017 79.0
71.5165 72.0
71.5312 75.0
71.546 79.0
71.5608 89.0
71.5756 69.0
71.5903 75.0
71.6051 84.0
71.6199 68.0
71.6346 62.0
71.6494 71.0
71.6642 81.0
71.679 72.0
71.6937 77.0
71.7085 74.0
71.7233 67.0
71.738 79.0
71.7528 55.0
71.7676 53.0
71.7824 75.0
71.7971 70.0
71.8119 71.0
71.8267 88.0
71.8414 75.0
71.8562 62.0
71.871 62.0
71.8858 80.0
71.9005 71.0
71.9153 76.0
71.9301 74.0
71.9449 68.0
71.9596 58.0
71.9744 65.0
71.9892 76.0
72.0039 57.0
72.0187 72.0
72.0335 79.0
72.0483 61.0
72.063 58.0
72.0778 61.0
72.0926 62.0
72.1073 61.0
72.1221 74.0
72.1369 64.0
72.1517 55.0
72.1664 70.0
72.1812 72.0
72.196 67.0
72.2107 63.0
72.2255 78.0
72.2403 61.0
72.2551 67.0
72.2698 74.0
72.2846 65.0
72.2994 70.0
72.3141 69.0
72.3289 62.0
72.3437 68.0
72.3585 72.0
72.3732 61.0
72.388 57.0
72.4028 65.0
72.4175 62.0
72.4323 77.0
72.4471 79.0
72.4619 71.0
72.4766 63.0
72.4914 65.0
72.5062 63.0
72.5209 68.0
72.5357 72.0
72.5505 73.0
72.5653 70.0
72.58 60.0
72.5948 63.0
72.6096 70.0
72.6243 76.0
72.6391 65.0
72.6539 71.0
72.6687 68.0
72.6834 72.0
72.6982 60.0
72.713 86.0
72.7277 79.0
72.7425 70.0
72.7573 72.0
72.7721 72.0
72.7868 61.0
72.8016 71.0
72.8164 77.0
72.8311 78.0
72.8459 80.0
72.8607 64.0
72.8755 64.0
72.8902 63.0
72.905 61.0
72.9198 55.0
72.9345 72.0
72.9493 65.0
72.9641 69.0
72.9789 58.0
72.9936 67.0
73.0084 75.0
73.0232 79.0
73.0379 76.0
73.0527 76.0
73.0675 69.0
73.0823 83.0
73.097 60.0
73.1118 70.0
73.1266 58.0
73.1413 60.0
73.1561 65.0
73.1709 74.0
73.1857 68.0
73.2004 56.0
73.2152 56.0
73.23 67.0
73.2447 75.0
73.2595 54.0
73.2743 86.0
73.2891 71.0
73.3038 56.0
73.3186 74.0
73.3334 66.0
73.3481 70.0
73.3629 62.0
73.3777 61.0
73.3925 58.0
73.4072 66.0
73.422 66.0
73.4368 56.0
73.4516 56.0
73.4663 68.0
73.4811 74.0
73.4959 66.0
73.5106 64.0
73.5254 62.0
73.5402 68.0
73.555 68.0
73.5697 58.0
73.5845 82.0
73.5993 81.0
73.614 72.0
73.6288 55.0
73.6436 73.0
73.6584 75.0
73.6731 72.0
73.6879 59.0
73.7027 65.0
73.7174 88.0
73.7322 62.0
73.747 72.0
73.7618 59.0
73.7765 68.0
73.7913 69.0
73.8061 75.0
73.8208 64.0
73.8356 80.0
73.8504 68.0
73.8652 58.0
73.8799 85.0
73.8947 74.0
73.9095 66.0
73.9242 66.0
73.939 64.0
73.9538 66.0
73.9686 68.0
73.9833 63.0
73.9981 74.0
74.0129 68.0
74.0276 59.0
74.0424 76.0
74.0572 60.0
74.072 70.0
74.0867 71.0
74.1015 78.0
74.1163 59.0
74.131 64.0
74.1458 54.0
74.1606 69.0
74.1754 58.0
74.1901 68.0
74.2049 70.0
74.2197 66.0
74.2344 86.0
74.2492 62.0
74.264 63.0
74.2788 65.0
74.2935 70.0
74.3083 56.0
74.3231 69.0
74.3378 71.0
74.3526 64.0
74.3674 72.0
74.3822 65.0
74.3969 74.0
74.4117 65.0
74.4265 50.0
74.4412 64.0
74.456 72.0
74.4708 65.0
74.4856 65.0
74.5003 66.0
74.5151 68.0
74.5299 80.0
74.5446 66.0
74.5594 80.0
74.5742 63.0
74.589 68.0
74.6037 59.0
74.6185 57.0
74.6333 60.0
74.648 52.0
74.6628 59.0
74.6776 55.0
74.6924 57.0
74.7071 72.0
74.7219 76.0
74.7367 63.0
74.7514 71.0
74.7662 65.0
74.781 52.0
74.7958 80.0
74.8105 55.0
74.8253 67.0
74.8401 60.0
74.8548 75.0
74.8696 63.0
74.8844 71.0
74.8992 61.0
74.9139 72.0
74.9287 67.0
74.9435 55.0
74.9583 69.0
74.973 72.0
74.9878 58.0
74.9976 75.0