File: data/W6855m/XRD_Omega/W6855m_Cr2O3_scan_omega_2deg_step_0.002deg0_3.xy
31.91340 544.0
31.91540 533.0
31.91740 580.0
31.91940 551.0
31.92140 531.0
31.92340 578.0
31.92540 555.0
31.92740 554.0
31.92940 558.0
31.93140 547.0
31.93340 546.0
31.93540 534.0
31.93740 575.0
31.93940 563.0
31.94140 577.0
31.94340 555.0
31.94540 506.0
31.94740 564.0
31.94940 556.0
31.95140 547.0
31.95340 563.0
31.95540 529.0
31.95740 573.0
31.95940 566.0
31.96140 607.0
31.96340 562.0
31.96540 637.0
31.96740 601.0
31.96940 560.0
31.97140 584.0
31.97340 608.0
31.97540 654.0
31.97740 621.0
31.97940 662.0
31.98140 624.0
31.98340 596.0
31.98540 620.0
31.98740 562.0
31.98940 596.0
31.99140 587.0
31.99340 609.0
31.99540 613.0
31.99740 592.0
31.99940 651.0
32.00140 676.0
32.00340 636.0
32.00540 642.0
32.00740 605.0
32.00940 654.0
32.01140 684.0
32.01340 646.0
32.01540 593.0
32.01740 643.0
32.01940 595.0
32.02140 652.0
32.02340 648.0
32.02540 666.0
32.02740 651.0
32.02940 652.0
32.03140 647.0
32.03340 652.0
32.03540 678.0
32.03740 660.0
32.03940 669.0
32.04140 720.0
32.04340 709.0
32.04540 717.0
32.04740 640.0
32.04940 672.0
32.05140 694.0
32.05340 729.0
32.05540 718.0
32.05740 695.0
32.05940 669.0
32.06140 722.0
32.06340 735.0
32.06540 696.0
32.06740 736.0
32.06940 679.0
32.07140 709.0
32.07340 724.0
32.07540 704.0
32.07740 712.0
32.07940 685.0
32.08140 703.0
32.08340 826.0
32.08540 773.0
32.08740 762.0
32.08940 791.0
32.09140 711.0
32.09340 785.0
32.09540 770.0
32.09740 765.0
32.09940 840.0
32.10140 782.0
32.10340 764.0
32.10540 780.0
32.10740 737.0
32.10940 802.0
32.11140 843.0
32.11340 801.0
32.11540 796.0
32.11740 770.0
32.11940 753.0
32.12140 817.0
32.12340 807.0
32.12540 833.0
32.12740 789.0
32.12940 796.0
32.13140 841.0
32.13340 785.0
32.13540 779.0
32.13740 770.0
32.13940 805.0
32.14140 823.0
32.14340 814.0
32.14540 860.0
32.14740 848.0
32.14940 810.0
32.15140 839.0
32.15340 845.0
32.15540 836.0
32.15740 864.0
32.15940 908.0
32.16140 901.0
32.16340 937.0
32.16540 864.0
32.16740 867.0
32.16940 851.0
32.17140 907.0
32.17340 871.0
32.17540 867.0
32.17740 868.0
32.17940 891.0
32.18140 944.0
32.18340 941.0
32.18540 886.0
32.18740 958.0
32.18940 962.0
32.19140 931.0
32.19340 940.0
32.19540 973.0
32.19740 961.0
32.19940 963.0
32.20140 930.0
32.20340 980.0
32.20540 946.0
32.20740 1013.0
32.20940 958.0
32.21140 941.0
32.21340 939.0
32.21540 946.0
32.21740 983.0
32.21940 1020.0
32.22140 1032.0
32.22340 1007.0
32.22540 1010.0
32.22740 956.0
32.22940 1022.0
32.23140 989.0
32.23340 1054.0
32.23540 1044.0
32.23740 1016.0
32.23940 986.0
32.24140 994.0
32.24340 1074.0
32.24540 1025.0
32.24740 1060.0
32.24940 1059.0
32.25140 1040.0
32.25340 1054.0
32.25540 1024.0
32.25740 1033.0
32.25940 1093.0
32.26140 1025.0
32.26340 1146.0
32.26540 1153.0
32.26740 1076.0
32.26940 1122.0
32.27140 1094.0
32.27340 1099.0
32.27540 1147.0
32.27740 1109.0
32.27940 1179.0
32.28140 1124.0
32.28340 1188.0
32.28540 1132.0
32.28740 1139.0
32.28940 1187.0
32.29140 1173.0
32.29340 1177.0
32.29540 1161.0
32.29740 1129.0
32.29940 1146.0
32.30140 1127.0
32.30340 1204.0
32.30540 1195.0
32.30740 1211.0
32.30940 1261.0
32.31140 1165.0
32.31340 1210.0
32.31540 1188.0
32.31740 1296.0
32.31940 1179.0
32.32140 1215.0
32.32340 1266.0
32.32540 1245.0
32.32740 1290.0
32.32940 1249.0
32.33140 1294.0
32.33340 1269.0
32.33540 1276.0
32.33740 1337.0
32.33940 1313.0
32.34140 1280.0
32.34340 1256.0
32.34540 1310.0
32.34740 1331.0
32.34940 1329.0
32.35140 1383.0
32.35340 1349.0
32.35540 1290.0
32.35740 1338.0
32.35940 1368.0
32.36140 1387.0
32.36340 1412.0
32.36540 1349.0
32.36740 1355.0
32.36940 1413.0
32.37140 1446.0
32.37340 1366.0
32.37540 1397.0
32.37740 1399.0
32.37940 1439.0
32.38140 1434.0
32.38340 1486.0
32.38540 1512.0
32.38740 1438.0
32.38940 1509.0
32.39140 1456.0
32.39340 1539.0
32.39540 1502.0
32.39740 1499.0
32.39940 1435.0
32.40140 1541.0
32.40340 1533.0
32.40540 1509.0
32.40740 1492.0
32.40940 1474.0
32.41140 1568.0
32.41340 1580.0
32.41540 1526.0
32.41740 1488.0
32.41940 1494.0
32.42140 1541.0
32.42340 1550.0
32.42540 1545.0
32.42740 1700.0
32.42940 1523.0
32.43140 1552.0
32.43340 1619.0
32.43540 1579.0
32.43740 1626.0
32.43940 1602.0
32.44140 1623.0
32.44340 1638.0
32.44540 1545.0
32.44740 1699.0
32.44940 1589.0
32.45140 1649.0
32.45340 1670.0
32.45540 1571.0
32.45740 1660.0
32.45940 1741.0
32.46140 1738.0
32.46340 1722.0
32.46540 1709.0
32.46740 1741.0
32.46940 1748.0
32.47140 1680.0
32.47340 1784.0
32.47540 1764.0
32.47740 1762.0
32.47940 1753.0
32.48140 1715.0
32.48340 1808.0
32.48540 1766.0
32.48740 1762.0
32.48940 1752.0
32.49140 1851.0
32.49340 1805.0
32.49540 1791.0
32.49740 1813.0
32.49940 1909.0
32.50140 1860.0
32.50340 1907.0
32.50540 1916.0
32.50740 1873.0
32.50940 1927.0
32.51140 1931.0
32.51340 1875.0
32.51540 1948.0
32.51740 1965.0
32.51940 1872.0
32.52140 1975.0
32.52340 1887.0
32.52540 1938.0
32.52740 1939.0
32.52940 2018.0
32.53140 1952.0
32.53340 2030.0
32.53540 1983.0
32.53740 2028.0
32.53940 1970.0
32.54140 2025.0
32.54340 2071.0
32.54540 2058.0
32.54740 2027.0
32.54940 2093.0
32.55140 2141.0
32.55340 2136.0
32.55540 2188.0
32.55740 2105.0
32.55940 2184.0
32.56140 2154.0
32.56340 2194.0
32.56540 2205.0
32.56740 2275.0
32.56940 2278.0
32.57140 2326.0
32.57340 2354.0
32.57540 2295.0
32.57740 2389.0
32.57940 2408.0
32.58140 2466.0
32.58340 2552.0
32.58540 2593.0
32.58740 2710.0
32.58940 2804.0
32.59140 2898.0
32.59340 2968.0
32.59540 2963.0
32.59740 3059.0
32.59940 3242.0
32.60140 3239.0
32.60340 3391.0
32.60540 3367.0
32.60740 3417.0
32.60940 3426.0
32.61140 3497.0
32.61340 3579.0
32.61540 3512.0
32.61740 3660.0
32.61940 3553.0
32.62140 3399.0
32.62340 3280.0
32.62540 3326.0
32.62740 3229.0
32.62940 3329.0
32.63140 3180.0
32.63340 3171.0
32.63540 3119.0
32.63740 2999.0
32.63940 2910.0
32.64140 2951.0
32.64340 2973.0
32.64540 2941.0
32.64740 3045.0
32.64940 2988.0
32.65140 2981.0
32.65340 2884.0
32.65540 2839.0
32.65740 2954.0
32.65940 2944.0
32.66140 2862.0
32.66340 2893.0
32.66540 3015.0
32.66740 2865.0
32.66940 2840.0
32.67140 2885.0
32.67340 2960.0
32.67540 2929.0
32.67740 2952.0
32.67940 2939.0
32.68140 2860.0
32.68340 2978.0
32.68540 2874.0
32.68740 3016.0
32.68940 2987.0
32.69140 2866.0
32.69340 2888.0
32.69540 2968.0
32.69740 2878.0
32.69940 2871.0
32.70140 2928.0
32.70340 2939.0
32.70540 2822.0
32.70740 2848.0
32.70940 2687.0
32.71140 2810.0
32.71340 2795.0
32.71540 2779.0
32.71740 2765.0
32.71940 2785.0
32.72140 2837.0
32.72340 2799.0
32.72540 2791.0
32.72740 2816.0
32.72940 2819.0
32.73140 2910.0
32.73340 2814.0
32.73540 2795.0
32.73740 2911.0
32.73940 3018.0
32.74140 2876.0
32.74340 2911.0
32.74540 2883.0
32.74740 2886.0
32.74940 2807.0
32.75140 2884.0
32.75340 2934.0
32.75540 2927.0
32.75740 2933.0
32.75940 2910.0
32.76140 2886.0
32.76340 2829.0
32.76540 2736.0
32.76740 2718.0
32.76940 2812.0
32.77140 2775.0
32.77340 2901.0
32.77540 2787.0
32.77740 2806.0
32.77940 2699.0
32.78140 2766.0
32.78340 2790.0
32.78540 2769.0
32.78740 2797.0
32.78940 2727.0
32.79140 2798.0
32.79340 2733.0
32.79540 2739.0
32.79740 2728.0
32.79940 2690.0
32.80140 2721.0
32.80340 2687.0
32.80540 2734.0
32.80740 2794.0
32.80940 2866.0
32.81140 2822.0
32.81340 2693.0
32.81540 2679.0
32.81740 2744.0
32.81940 2822.0
32.82140 2778.0
32.82340 2685.0
32.82540 2799.0
32.82740 2659.0
32.82940 2668.0
32.83140 2698.0
32.83340 2669.0
32.83540 2791.0
32.83740 2778.0
32.83940 2801.0
32.84140 2830.0
32.84340 2748.0
32.84540 2782.0
32.84740 2768.0
32.84940 2829.0
32.85140 2730.0
32.85340 2847.0
32.85540 2927.0
32.85740 2901.0
32.85940 2802.0
32.86140 2865.0
32.86340 2899.0
32.86540 2856.0
32.86740 2979.0
32.86940 2944.0
32.87140 2937.0
32.87340 2859.0
32.87540 2883.0
32.87740 3026.0
32.87940 2932.0
32.88140 2930.0
32.88340 2985.0
32.88540 2947.0
32.88740 2977.0
32.88940 3001.0
32.89140 3009.0
32.89340 3061.0
32.89540 3039.0
32.89740 2942.0
32.89940 2950.0
32.90140 2989.0
32.90340 2864.0
32.90540 2923.0
32.90740 2989.0
32.90940 2991.0
32.91140 2955.0
32.91340 2944.0
32.91540 2877.0
32.91740 2852.0
32.91940 2907.0
32.92140 2919.0
32.92340 2864.0
32.92540 2901.0
32.92740 2872.0
32.92940 2868.0
32.93140 2789.0
32.93340 2953.0
32.93540 2843.0
32.93740 2814.0
32.93940 2845.0
32.94140 2900.0
32.94340 2805.0
32.94540 2789.0
32.94740 2874.0
32.94940 2784.0
32.95140 2861.0
32.95340 2857.0
32.95540 2796.0
32.95740 2788.0
32.95940 2838.0
32.96140 2789.0
32.96340 2710.0
32.96540 2717.0
32.96740 2855.0
32.96940 2705.0
32.97140 2864.0
32.97340 2750.0
32.97540 2731.0
32.97740 2709.0
32.97940 2747.0
32.98140 2660.0
32.98340 2703.0
32.98540 2790.0
32.98740 2662.0
32.98940 2802.0
32.99140 2670.0
32.99340 2769.0
32.99540 2760.0
32.99740 2819.0
32.99940 2682.0
33.00140 2738.0
33.00340 2626.0
33.00540 2615.0
33.00740 2602.0
33.00940 2600.0
33.01140 2676.0
33.01340 2608.0
33.01540 2695.0
33.01740 2567.0
33.01940 2726.0
33.02140 2563.0
33.02340 2650.0
33.02540 2596.0
33.02740 2660.0
33.02940 2559.0
33.03140 2653.0
33.03340 2657.0
33.03540 2583.0
33.03740 2664.0
33.03940 2647.0
33.04140 2605.0
33.04340 2467.0
33.04540 2570.0
33.04740 2546.0
33.04940 2552.0
33.05140 2491.0
33.05340 2568.0
33.05540 2534.0
33.05740 2547.0
33.05940 2627.0
33.06140 2531.0
33.06340 2446.0
33.06540 2505.0
33.06740 2561.0
33.06940 2427.0
33.07140 2511.0
33.07340 2414.0
33.07540 2434.0
33.07740 2384.0
33.07940 2452.0
33.08140 2470.0
33.08340 2476.0
33.08540 2434.0
33.08740 2435.0
33.08940 2396.0
33.09140 2383.0
33.09340 2391.0
33.09540 2404.0
33.09740 2346.0
33.09940 2345.0
33.10140 2394.0
33.10340 2484.0
33.10540 2389.0
33.10740 2392.0
33.10940 2315.0
33.11140 2300.0
33.11340 2338.0
33.11540 2281.0
33.11740 2368.0
33.11940 2211.0
33.12140 2281.0
33.12340 2327.0
33.12540 2303.0
33.12740 2183.0
33.12940 2296.0
33.13140 2224.0
33.13340 2263.0
33.13540 2241.0
33.13740 2169.0
33.13940 2136.0
33.14140 2248.0
33.14340 2134.0
33.14540 2266.0
33.14740 2259.0
33.14940 2239.0
33.15140 2180.0
33.15340 2135.0
33.15540 2147.0
33.15740 2144.0
33.15940 2249.0
33.16140 2134.0
33.16340 2093.0
33.16540 2144.0
33.16740 2146.0
33.16940 2133.0
33.17140 2087.0
33.17340 1987.0
33.17540 2089.0
33.17740 2033.0
33.17940 2100.0
33.18140 2069.0
33.18340 2029.0
33.18540 2070.0
33.18740 2078.0
33.18940 1922.0
33.19140 1947.0
33.19340 1918.0
33.19540 1913.0
33.19740 1944.0
33.19940 1973.0
33.20140 1958.0
33.20340 1951.0
33.20540 1915.0
33.20740 1914.0
33.20940 1893.0
33.21140 1940.0
33.21340 1936.0
33.21540 1946.0
33.21740 1828.0
33.21940 1822.0
33.22140 1765.0
33.22340 1877.0
33.22540 1849.0
33.22740 1830.0
33.22940 1743.0
33.23140 1731.0
33.23340 1749.0
33.23540 1749.0
33.23740 1708.0
33.23940 1698.0
33.24140 1688.0
33.24340 1802.0
33.24540 1772.0
33.24740 1771.0
33.24940 1705.0
33.25140 1728.0
33.25340 1664.0
33.25540 1631.0
33.25740 1705.0
33.25940 1673.0
33.26140 1587.0
33.26340 1621.0
33.26540 1568.0
33.26740 1585.0
33.26940 1588.0
33.27140 1540.0
33.27340 1576.0
33.27540 1592.0
33.27740 1581.0
33.27940 1587.0
33.28140 1591.0
33.28340 1626.0
33.28540 1588.0
33.28740 1589.0
33.28940 1555.0
33.29140 1569.0
33.29340 1513.0
33.29540 1534.0
33.29740 1502.0
33.29940 1369.0
33.30140 1471.0
33.30340 1441.0
33.30540 1516.0
33.30740 1452.0
33.30940 1408.0
33.31140 1388.0
33.31340 1375.0
33.31540 1417.0
33.31740 1509.0
33.31940 1458.0
33.32140 1344.0
33.32340 1431.0
33.32540 1376.0
33.32740 1330.0
33.32940 1423.0
33.33140 1378.0
33.33340 1409.0
33.33540 1345.0
33.33740 1298.0
33.33940 1367.0
33.34140 1380.0
33.34340 1291.0
33.34540 1274.0
33.34740 1304.0
33.34940 1309.0
33.35140 1298.0
33.35340 1292.0
33.35540 1379.0
33.35740 1277.0
33.35940 1278.0
33.36140 1240.0
33.36340 1258.0
33.36540 1272.0
33.36740 1207.0
33.36940 1243.0
33.37140 1198.0
33.37340 1176.0
33.37540 1228.0
33.37740 1249.0
33.37940 1156.0
33.38140 1114.0
33.38340 1147.0
33.38540 1191.0
33.38740 1130.0
33.38940 1191.0
33.39140 1124.0
33.39340 1194.0
33.39540 1139.0
33.39740 1129.0
33.39940 1091.0
33.40140 1125.0
33.40340 1118.0
33.40540 1103.0
33.40740 1077.0
33.40940 1082.0
33.41140 1100.0
33.41340 1088.0
33.41540 1072.0
33.41740 1040.0
33.41940 1084.0
33.42140 1016.0
33.42340 1057.0
33.42540 1038.0
33.42740 1014.0
33.42940 1062.0
33.43140 1061.0
33.43340 1021.0
33.43540 1017.0
33.43740 973.0
33.43940 1031.0
33.44140 1008.0
33.44340 1004.0
33.44540 950.0
33.44740 948.0
33.44940 1031.0
33.45140 977.0
33.45340 970.0
33.45540 984.0
33.45740 986.0
33.45940 983.0
33.46140 944.0
33.46340 976.0
33.46540 998.0
33.46740 916.0
33.46940 891.0
33.47140 950.0
33.47340 938.0
33.47540 976.0
33.47740 941.0
33.47940 936.0
33.48140 897.0
33.48340 923.0
33.48540 916.0
33.48740 898.0
33.48940 928.0
33.49140 924.0
33.49340 872.0
33.49540 871.0
33.49740 855.0
33.49940 890.0
33.50140 815.0
33.50340 817.0
33.50540 869.0
33.50740 853.0
33.50940 830.0
33.51140 830.0
33.51340 822.0
33.51540 846.0
33.51740 854.0
33.51940 804.0
33.52140 790.0
33.52340 773.0
33.52540 781.0
33.52740 791.0
33.52940 785.0
33.53140 748.0
33.53340 801.0
33.53540 751.0
33.53740 800.0
33.53940 796.0
33.54140 764.0
33.54340 768.0
33.54540 751.0
33.54740 693.0
33.54940 708.0
33.55140 751.0
33.55340 719.0
33.55540 724.0
33.55740 726.0
33.55940 747.0
33.56140 698.0
33.56340 715.0
33.56540 658.0
33.56740 753.0
33.56940 686.0
33.57140 705.0
33.57340 686.0
33.57540 745.0
33.57740 730.0
33.57940 672.0
33.58140 705.0
33.58340 638.0
33.58540 655.0
33.58740 689.0
33.58940 673.0
33.59140 652.0
33.59340 726.0
33.59540 655.0
33.59740 686.0
33.59940 648.0
33.60140 636.0
33.60340 699.0
33.60540 682.0
33.60740 701.0
33.60940 615.0
33.61140 637.0
33.61340 639.0
33.61540 622.0
33.61740 624.0
33.61940 608.0
33.62140 651.0
33.62340 660.0
33.62540 619.0
33.62740 600.0
33.62940 583.0
33.63140 619.0
33.63340 579.0
33.63540 634.0
33.63740 610.0
33.63940 603.0
33.64140 586.0
33.64340 618.0
33.64540 623.0
33.64740 526.0
33.64940 601.0
33.65140 572.0
33.65340 549.0
33.65540 570.0
33.65740 563.0
33.65940 590.0
33.66140 555.0
33.66340 539.0
33.66540 518.0
33.66740 542.0
33.66940 526.0
33.67140 554.0
33.67340 545.0
33.67540 574.0
33.67740 555.0
33.67940 553.0
33.68140 587.0
33.68340 533.0
33.68540 579.0
33.68740 536.0
33.68940 553.0
33.69140 487.0
33.69340 513.0
33.69540 528.0
33.69740 517.0
33.69940 552.0
33.70140 526.0
33.70340 519.0
33.70540 526.0
33.70740 520.0
33.70940 504.0
33.71140 548.0
33.71340 512.0
33.71540 519.0
33.71740 525.0
33.71940 502.0
33.72140 501.0
33.72340 470.0
33.72540 512.0
33.72740 460.0
33.72940 483.0
33.73140 519.0
33.73340 474.0
33.73540 490.0
33.73740 452.0
33.73940 500.0
33.74140 484.0
33.74340 491.0
33.74540 458.0
33.74740 458.0
33.74940 461.0
33.75140 448.0
33.75340 428.0
33.75540 486.0
33.75740 468.0
33.75940 501.0
33.76140 457.0
33.76340 443.0
33.76540 469.0
33.76740 472.0
33.76940 461.0
33.77140 454.0
33.77340 460.0
33.77540 442.0
33.77740 449.0
33.77940 452.0
33.78140 453.0
33.78340 438.0
33.78540 478.0
33.78740 416.0
33.78940 412.0
33.79140 426.0
33.79340 390.0
33.79540 418.0
33.79740 427.0
33.79940 433.0
33.80140 477.0
33.80340 403.0
33.80540 459.0
33.80740 399.0
33.80940 382.0
33.81140 410.0
33.81340 401.0
33.81540 404.0
33.81740 399.0
33.81940 426.0
33.82140 421.0
33.82340 393.0
33.82540 408.0
33.82740 420.0
33.82940 412.0
33.83140 419.0
33.83340 372.0
33.83540 374.0
33.83740 396.0
33.83940 386.0
33.84140 363.0
33.84340 370.0
33.84540 412.0
33.84740 366.0
33.84940 413.0
33.85140 377.0
33.85340 380.0
33.85540 382.0
33.85740 382.0
33.85940 410.0
33.86140 408.0
33.86340 396.0
33.86540 369.0
33.86740 376.0
33.86940 375.0
33.87140 370.0
33.87340 425.0
33.87540 361.0
33.87740 365.0
33.87940 368.0
33.88140 323.0
33.88340 349.0
33.88540 363.0
33.88740 353.0
33.88940 360.0
33.89140 362.0
33.89340 346.0
33.89540 348.0
33.89740 367.0