File: data/w6931a/XRD_Omega/film_a_scan_omega_4deg_step_0.005deg0.xy
15.65070 50.0
15.65570 50.0
15.66070 43.0
15.66570 44.0
15.67070 51.0
15.67570 66.0
15.68070 63.0
15.68570 53.0
15.69070 67.0
15.69570 50.0
15.70070 58.0
15.70570 50.0
15.71070 62.0
15.71570 51.0
15.72070 64.0
15.72570 52.0
15.73070 61.0
15.73570 67.0
15.74070 53.0
15.74570 68.0
15.75070 60.0
15.75570 61.0
15.76070 57.0
15.76570 64.0
15.77070 66.0
15.77570 68.0
15.78070 60.0
15.78570 72.0
15.79070 65.0
15.79570 52.0
15.80070 77.0
15.80570 59.0
15.81070 56.0
15.81570 58.0
15.82070 59.0
15.82570 56.0
15.83070 72.0
15.83570 65.0
15.84070 73.0
15.84570 65.0
15.85070 72.0
15.85570 68.0
15.86070 71.0
15.86570 71.0
15.87070 78.0
15.87570 65.0
15.88070 64.0
15.88570 84.0
15.89070 71.0
15.89570 66.0
15.90070 65.0
15.90570 92.0
15.91070 66.0
15.91570 85.0
15.92070 75.0
15.92570 76.0
15.93070 73.0
15.93570 84.0
15.94070 78.0
15.94570 94.0
15.95070 77.0
15.95570 77.0
15.96070 80.0
15.96570 60.0
15.97070 85.0
15.97570 85.0
15.98070 78.0
15.98570 83.0
15.99070 87.0
15.99570 87.0
16.00070 83.0
16.00570 80.0
16.01070 85.0
16.01570 83.0
16.02070 76.0
16.02570 81.0
16.03070 98.0
16.03570 98.0
16.04070 107.0
16.04570 97.0
16.05070 80.0
16.05570 110.0
16.06070 80.0
16.06570 95.0
16.07070 102.0
16.07570 103.0
16.08070 93.0
16.08570 94.0
16.09070 106.0
16.09570 95.0
16.10070 99.0
16.10570 98.0
16.11070 97.0
16.11570 96.0
16.12070 119.0
16.12570 110.0
16.13070 110.0
16.13570 113.0
16.14070 109.0
16.14570 103.0
16.15070 124.0
16.15570 118.0
16.16070 103.0
16.16570 114.0
16.17070 106.0
16.17570 118.0
16.18070 132.0
16.18570 107.0
16.19070 126.0
16.19570 118.0
16.20070 100.0
16.20570 129.0
16.21070 142.0
16.21570 140.0
16.22070 138.0
16.22570 128.0
16.23070 128.0
16.23570 132.0
16.24070 137.0
16.24570 132.0
16.25070 138.0
16.25570 143.0
16.26070 125.0
16.26570 140.0
16.27070 137.0
16.27570 134.0
16.28070 123.0
16.28570 116.0
16.29070 141.0
16.29570 167.0
16.30070 141.0
16.30570 161.0
16.31070 178.0
16.31570 166.0
16.32070 175.0
16.32570 162.0
16.33070 160.0
16.33570 167.0
16.34070 185.0
16.34570 184.0
16.35070 168.0
16.35570 177.0
16.36070 192.0
16.36570 193.0
16.37070 171.0
16.37570 175.0
16.38070 195.0
16.38570 156.0
16.39070 180.0
16.39570 187.0
16.40070 175.0
16.40570 175.0
16.41070 179.0
16.41570 198.0
16.42070 197.0
16.42570 186.0
16.43070 236.0
16.43570 186.0
16.44070 207.0
16.44570 240.0
16.45070 209.0
16.45570 218.0
16.46070 215.0
16.46570 229.0
16.47070 242.0
16.47570 235.0
16.48070 241.0
16.48570 245.0
16.49070 232.0
16.49570 235.0
16.50070 263.0
16.50570 234.0
16.51070 247.0
16.51570 270.0
16.52070 246.0
16.52570 260.0
16.53070 265.0
16.53570 242.0
16.54070 274.0
16.54570 260.0
16.55070 288.0
16.55570 262.0
16.56070 275.0
16.56570 276.0
16.57070 276.0
16.57570 290.0
16.58070 267.0
16.58570 287.0
16.59070 316.0
16.59570 292.0
16.60070 298.0
16.60570 264.0
16.61070 324.0
16.61570 312.0
16.62070 324.0
16.62570 367.0
16.63070 310.0
16.63570 320.0
16.64070 318.0
16.64570 374.0
16.65070 347.0
16.65570 323.0
16.66070 349.0
16.66570 380.0
16.67070 406.0
16.67570 392.0
16.68070 372.0
16.68570 382.0
16.69070 337.0
16.69570 399.0
16.70070 373.0
16.70570 409.0
16.71070 426.0
16.71570 405.0
16.72070 401.0
16.72570 423.0
16.73070 403.0
16.73570 436.0
16.74070 426.0
16.74570 471.0
16.75070 448.0
16.75570 460.0
16.76070 455.0
16.76570 468.0
16.77070 436.0
16.77570 471.0
16.78070 534.0
16.78570 511.0
16.79070 525.0
16.79570 561.0
16.80070 582.0
16.80570 537.0
16.81070 536.0
16.81570 590.0
16.82070 519.0
16.82570 567.0
16.83070 549.0
16.83570 548.0
16.84070 514.0
16.84570 623.0
16.85070 623.0
16.85570 594.0
16.86070 616.0
16.86570 661.0
16.87070 628.0
16.87570 610.0
16.88070 691.0
16.88570 649.0
16.89070 740.0
16.89570 730.0
16.90070 677.0
16.90570 708.0
16.91070 721.0
16.91570 745.0
16.92070 752.0
16.92570 774.0
16.93070 778.0
16.93570 827.0
16.94070 816.0
16.94570 821.0
16.95070 894.0
16.95570 856.0
16.96070 877.0
16.96570 850.0
16.97070 863.0
16.97570 887.0
16.98070 959.0
16.98570 948.0
16.99070 918.0
16.99570 994.0
17.00070 957.0
17.00570 970.0
17.01070 952.0
17.01570 995.0
17.02070 1007.0
17.02570 1011.0
17.03070 1040.0
17.03570 1133.0
17.04070 1078.0
17.04570 1125.0
17.05070 1102.0
17.05570 1203.0
17.06070 1167.0
17.06570 1279.0
17.07070 1268.0
17.07570 1253.0
17.08070 1295.0
17.08570 1257.0
17.09070 1251.0
17.09570 1363.0
17.10070 1388.0
17.10570 1338.0
17.11070 1401.0
17.11570 1496.0
17.12070 1492.0
17.12570 1410.0
17.13070 1509.0
17.13570 1506.0
17.14070 1519.0
17.14570 1630.0
17.15070 1547.0
17.15570 1632.0
17.16070 1628.0
17.16570 1604.0
17.17070 1716.0
17.17570 1735.0
17.18070 1759.0
17.18570 1816.0
17.19070 1907.0
17.19570 1840.0
17.20070 1925.0
17.20570 1933.0
17.21070 2042.0
17.21570 2078.0
17.22070 1997.0
17.22570 2060.0
17.23070 2114.0
17.23570 2119.0
17.24070 2198.0
17.24570 2158.0
17.25070 2381.0
17.25570 2344.0
17.26070 2270.0
17.26570 2416.0
17.27070 2419.0
17.27570 2468.0
17.28070 2513.0
17.28570 2555.0
17.29070 2522.0
17.29570 2689.0
17.30070 2623.0
17.30570 2688.0
17.31070 2774.0
17.31570 2854.0
17.32070 2956.0
17.32570 2875.0
17.33070 2962.0
17.33570 2948.0
17.34070 2974.0
17.34570 3036.0
17.35070 3151.0
17.35570 3223.0
17.36070 3231.0
17.36570 3295.0
17.37070 3500.0
17.37570 3369.0
17.38070 3469.0
17.38570 3429.0
17.39070 3587.0
17.39570 3588.0
17.40070 3707.0
17.40570 3830.0
17.41070 3850.0
17.41570 3819.0
17.42070 3867.0
17.42570 3975.0
17.43070 4008.0
17.43570 4086.0
17.44070 4092.0
17.44570 4242.0
17.45070 4202.0
17.45570 4378.0
17.46070 4363.0
17.46570 4474.0
17.47070 4590.0
17.47570 4636.0
17.48070 4602.0
17.48570 4857.0
17.49070 4805.0
17.49570 4902.0
17.50070 4950.0
17.50570 4945.0
17.51070 5106.0
17.51570 5147.0
17.52070 5262.0
17.52570 5307.0
17.53070 5368.0
17.53570 5351.0
17.54070 5518.0
17.54570 5553.0
17.55070 5634.0
17.55570 5754.0
17.56070 6095.0
17.56570 6008.0
17.57070 6224.0
17.57570 6492.0
17.58070 6648.0
17.58570 6797.0
17.59070 7102.0
17.59570 7143.0
17.60070 7558.0
17.60570 7687.0
17.61070 7723.0
17.61570 8059.0
17.62070 7927.0
17.62570 7841.0
17.63070 7837.0
17.63570 7783.0
17.64070 7682.0
17.64570 7565.0
17.65070 7522.0
17.65570 7524.0
17.66070 7303.0
17.66570 7219.0
17.67070 7127.0
17.67570 7031.0
17.68070 6939.0
17.68570 6548.0
17.69070 6721.0
17.69570 6436.0
17.70070 6466.0
17.70570 6090.0
17.71070 5957.0
17.71570 6035.0
17.72070 5973.0
17.72570 5802.0
17.73070 5530.0
17.73570 5424.0
17.74070 5425.0
17.74570 5217.0
17.75070 5287.0
17.75570 5107.0
17.76070 5097.0
17.76570 4827.0
17.77070 4778.0
17.77570 4768.0
17.78070 4561.0
17.78570 4593.0
17.79070 4436.0
17.79570 4323.0
17.80070 4201.0
17.80570 4180.0
17.81070 4271.0
17.81570 4080.0
17.82070 4043.0
17.82570 3994.0
17.83070 3904.0
17.83570 3945.0
17.84070 3772.0
17.84570 3706.0
17.85070 3627.0
17.85570 3598.0
17.86070 3617.0
17.86570 3565.0
17.87070 3422.0
17.87570 3400.0
17.88070 3340.0
17.88570 3407.0
17.89070 3316.0
17.89570 3210.0
17.90070 3230.0
17.90570 3182.0
17.91070 3092.0
17.91570 2976.0
17.92070 2949.0
17.92570 2788.0
17.93070 2902.0
17.93570 2846.0
17.94070 2718.0
17.94570 2699.0
17.95070 2681.0
17.95570 2647.0
17.96070 2607.0
17.96570 2470.0
17.97070 2602.0
17.97570 2492.0
17.98070 2364.0
17.98570 2407.0
17.99070 2366.0
17.99570 2178.0
18.00070 2221.0
18.00570 2172.0
18.01070 2126.0
18.01570 2121.0
18.02070 2117.0
18.02570 2103.0
18.03070 1972.0
18.03570 1938.0
18.04070 1967.0
18.04570 1974.0
18.05070 1917.0
18.05570 1774.0
18.06070 1882.0
18.06570 1727.0
18.07070 1792.0
18.07570 1665.0
18.08070 1726.0
18.08570 1683.0
18.09070 1668.0
18.09570 1571.0
18.10070 1564.0
18.10570 1523.0
18.11070 1495.0
18.11570 1547.0
18.12070 1537.0
18.12570 1347.0
18.13070 1421.0
18.13570 1390.0
18.14070 1346.0
18.14570 1375.0
18.15070 1369.0
18.15570 1333.0
18.16070 1263.0
18.16570 1225.0
18.17070 1211.0
18.17570 1182.0
18.18070 1237.0
18.18570 1201.0
18.19070 1186.0
18.19570 1159.0
18.20070 1186.0
18.20570 1145.0
18.21070 1067.0
18.21570 1031.0
18.22070 1031.0
18.22570 1049.0
18.23070 1024.0
18.23570 1058.0
18.24070 1002.0
18.24570 919.0
18.25070 963.0
18.25570 975.0
18.26070 906.0
18.26570 921.0
18.27070 888.0
18.27570 898.0
18.28070 886.0
18.28570 817.0
18.29070 817.0
18.29570 854.0
18.30070 809.0
18.30570 811.0
18.31070 799.0
18.31570 805.0
18.32070 817.0
18.32570 769.0
18.33070 756.0
18.33570 728.0
18.34070 701.0
18.34570 696.0
18.35070 683.0
18.35570 643.0
18.36070 697.0
18.36570 656.0
18.37070 703.0
18.37570 651.0
18.38070 652.0
18.38570 630.0
18.39070 567.0
18.39570 601.0
18.40070 583.0
18.40570 617.0
18.41070 592.0
18.41570 607.0
18.42070 512.0
18.42570 529.0
18.43070 524.0
18.43570 562.0
18.44070 515.0
18.44570 528.0
18.45070 548.0
18.45570 533.0
18.46070 473.0
18.46570 469.0
18.47070 498.0
18.47570 451.0
18.48070 460.0
18.48570 480.0
18.49070 427.0
18.49570 418.0
18.50070 424.0
18.50570 424.0
18.51070 406.0
18.51570 415.0
18.52070 400.0
18.52570 451.0
18.53070 435.0
18.53570 410.0
18.54070 356.0
18.54570 405.0
18.55070 342.0
18.55570 353.0
18.56070 352.0
18.56570 327.0
18.57070 372.0
18.57570 380.0
18.58070 335.0
18.58570 364.0
18.59070 347.0
18.59570 317.0
18.60070 313.0
18.60570 311.0
18.61070 312.0
18.61570 331.0
18.62070 313.0
18.62570 318.0
18.63070 311.0
18.63570 284.0
18.64070 303.0
18.64570 246.0
18.65070 296.0
18.65570 261.0
18.66070 265.0
18.66570 297.0
18.67070 273.0
18.67570 271.0
18.68070 262.0
18.68570 258.0
18.69070 246.0
18.69570 248.0
18.70070 245.0
18.70570 242.0
18.71070 225.0
18.71570 256.0
18.72070 248.0
18.72570 236.0
18.73070 231.0
18.73570 220.0
18.74070 216.0
18.74570 216.0
18.75070 225.0
18.75570 240.0
18.76070 201.0
18.76570 197.0
18.77070 186.0
18.77570 198.0
18.78070 213.0
18.78570 209.0
18.79070 205.0
18.79570 215.0
18.80070 168.0
18.80570 173.0
18.81070 194.0
18.81570 205.0
18.82070 195.0
18.82570 186.0
18.83070 186.0
18.83570 191.0
18.84070 181.0
18.84570 180.0
18.85070 179.0
18.85570 164.0
18.86070 160.0
18.86570 168.0
18.87070 174.0
18.87570 163.0
18.88070 153.0
18.88570 174.0
18.89070 166.0
18.89570 177.0
18.90070 168.0
18.90570 177.0
18.91070 128.0
18.91570 128.0
18.92070 161.0
18.92570 135.0
18.93070 162.0
18.93570 128.0
18.94070 129.0
18.94570 153.0
18.95070 156.0
18.95570 126.0
18.96070 130.0
18.96570 133.0
18.97070 120.0
18.97570 140.0
18.98070 133.0
18.98570 136.0
18.99070 126.0
18.99570 122.0
19.00070 130.0
19.00570 127.0
19.01070 119.0
19.01570 118.0
19.02070 119.0
19.02570 125.0
19.03070 128.0
19.03570 104.0
19.04070 83.0
19.04570 117.0
19.05070 113.0
19.05570 98.0
19.06070 89.0
19.06570 111.0
19.07070 115.0
19.07570 116.0
19.08070 120.0
19.08570 108.0
19.09070 109.0
19.09570 98.0
19.10070 99.0
19.10570 110.0
19.11070 116.0
19.11570 108.0
19.12070 114.0
19.12570 102.0
19.13070 84.0
19.13570 78.0
19.14070 90.0
19.14570 74.0
19.15070 88.0
19.15570 90.0
19.16070 89.0
19.16570 86.0
19.17070 72.0
19.17570 107.0
19.18070 96.0
19.18570 94.0
19.19070 89.0
19.19570 88.0
19.20070 97.0
19.20570 75.0
19.21070 76.0
19.21570 90.0
19.22070 73.0
19.22570 92.0
19.23070 72.0
19.23570 77.0
19.24070 77.0
19.24570 55.0
19.25070 84.0
19.25570 75.0
19.26070 80.0
19.26570 72.0
19.27070 67.0
19.27570 67.0
19.28070 76.0
19.28570 71.0
19.29070 81.0
19.29570 63.0
19.30070 63.0
19.30570 59.0
19.31070 65.0
19.31570 58.0
19.32070 71.0
19.32570 72.0
19.33070 70.0
19.33570 58.0
19.34070 58.0
19.34570 75.0
19.35070 71.0
19.35570 65.0
19.36070 69.0
19.36570 69.0
19.37070 82.0
19.37570 65.0
19.38070 70.0
19.38570 67.0
19.39070 63.0
19.39570 50.0
19.40070 53.0
19.40570 52.0
19.41070 60.0
19.41570 71.0
19.42070 59.0
19.42570 69.0
19.43070 49.0
19.43570 53.0
19.44070 63.0
19.44570 59.0
19.45070 61.0
19.45570 67.0
19.46070 68.0
19.46570 55.0
19.47070 64.0
19.47570 55.0
19.48070 47.0
19.48570 59.0
19.49070 51.0
19.49570 53.0
19.50070 57.0
19.50570 50.0
19.51070 55.0
19.51570 47.0
19.52070 57.0
19.52570 44.0
19.53070 55.0
19.53570 48.0
19.54070 62.0
19.54570 62.0
19.55070 50.0
19.55570 38.0
19.56070 52.0
19.56570 47.0
19.57070 58.0
19.57570 55.0
19.58070 53.0
19.58570 58.0
19.59070 55.0
19.59570 37.0
19.60070 50.0
19.60570 42.0
19.61070 45.0