File: data/W6957r/XRD_2ThetaOmega/r_scan_2th-om_10-130deg_PIXscan_17min_C1.xy
10.0035 47.0
10.0872 39.0
10.1709 46.0
10.2546 45.0
10.3383 53.0
10.422 55.0
10.5057 48.0
10.5894 54.0
10.6731 49.0
10.7568 51.0
10.8405 52.0
10.9242 45.0
11.0079 53.0
11.0916 52.0
11.1753 52.0
11.259 64.0
11.3428 45.0
11.4265 46.0
11.5102 48.0
11.5939 38.0
11.6776 41.0
11.7613 48.0
11.845 52.0
11.9287 49.0
12.0124 40.0
12.0961 42.0
12.1798 30.0
12.2635 50.0
12.3472 36.0
12.4309 41.0
12.5146 36.0
12.5983 48.0
12.682 32.0
12.7657 45.0
12.8495 36.0
12.9332 35.0
13.0169 50.0
13.1006 35.0
13.1843 40.0
13.268 33.0
13.3517 40.0
13.4354 22.0
13.5191 36.0
13.6028 28.0
13.6865 30.0
13.7702 33.0
13.8539 42.0
13.9376 28.0
14.0213 31.0
14.105 44.0
14.1887 43.0
14.2724 30.0
14.3562 36.0
14.4399 34.0
14.5236 37.0
14.6073 33.0
14.691 35.0
14.7747 30.0
14.8584 36.0
14.9421 25.0
15.0258 30.0
15.1095 33.0
15.1932 35.0
15.2769 27.0
15.3606 35.0
15.4443 25.0
15.528 38.0
15.6117 24.0
15.6954 20.0
15.7791 33.0
15.8629 35.0
15.9466 21.0
16.0303 34.0
16.114 24.0
16.1977 42.0
16.2814 25.0
16.3651 31.0
16.4488 34.0
16.5325 24.0
16.6162 25.0
16.6999 23.0
16.7836 27.0
16.8673 26.0
16.951 30.0
17.0347 22.0
17.1184 25.0
17.2021 31.0
17.2858 28.0
17.3696 22.0
17.4533 27.0
17.537 31.0
17.6207 20.0
17.7044 32.0
17.7881 29.0
17.8718 22.0
17.9555 34.0
18.0392 39.0
18.1229 32.0
18.2066 24.0
18.2903 20.0
18.374 27.0
18.4577 24.0
18.5414 32.0
18.6251 26.0
18.7088 36.0
18.7925 28.0
18.8763 26.0
18.96 28.0
19.0437 26.0
19.1274 23.0
19.2111 20.0
19.2948 26.0
19.3785 28.0
19.4622 19.0
19.5459 21.0
19.6296 25.0
19.7133 24.0
19.797 32.0
19.8807 24.0
19.9644 31.0
20.0481 33.0
20.1318 26.0
20.2155 28.0
20.2992 25.0
20.383 25.0
20.4667 25.0
20.5504 29.0
20.6341 31.0
20.7178 30.0
20.8015 23.0
20.8852 28.0
20.9689 19.0
21.0526 27.0
21.1363 25.0
21.22 24.0
21.3037 26.0
21.3874 36.0
21.4711 29.0
21.5548 29.0
21.6385 21.0
21.7222 20.0
21.8059 29.0
21.8897 32.0
21.9734 33.0
22.0571 37.0
22.1408 26.0
22.2245 30.0
22.3082 20.0
22.3919 22.0
22.4756 32.0
22.5593 28.0
22.643 24.0
22.7267 25.0
22.8104 27.0
22.8941 28.0
22.9778 45.0
23.0615 146.0
23.1452 38.0
23.2289 35.0
23.3126 27.0
23.3964 32.0
23.4801 39.0
23.5638 37.0
23.6475 32.0
23.7312 51.0
23.8149 39.0
23.8986 67.0
23.9823 78.0
24.066 90.0
24.1497 158.0
24.2334 305.0
24.3171 835.0
24.4008 1805.0
24.4845 1248.0
24.5682 335.0
24.6519 195.0
24.7356 124.0
24.8193 121.0
24.9031 114.0
24.9868 134.0
25.0705 149.0
25.1542 172.0
25.2379 262.0
25.3216 361.0
25.4053 1311.0
25.489 8874.0
25.5727 41030.0
25.6564 2000.0
25.7401 519.0
25.8238 265.0
25.9075 182.0
25.9912 105.0
26.0749 84.0
26.1586 59.0
26.2423 51.0
26.326 44.0
26.4098 36.0
26.4935 38.0
26.5772 36.0
26.6609 27.0
26.7446 34.0
26.8283 27.0
26.912 29.0
26.9957 17.0
27.0794 28.0
27.1631 32.0
27.2468 25.0
27.3305 31.0
27.4142 28.0
27.4979 22.0
27.5816 18.0
27.6653 26.0
27.749 28.0
27.8327 25.0
27.9165 27.0
28.0002 23.0
28.0839 26.0
28.1676 21.0
28.2513 15.0
28.335 23.0
28.4187 27.0
28.5024 30.0
28.5861 25.0
28.6698 19.0
28.7535 30.0
28.8372 23.0
28.9209 22.0
29.0046 30.0
29.0883 31.0
29.172 25.0
29.2557 17.0
29.3394 14.0
29.4232 21.0
29.5069 18.0
29.5906 14.0
29.6743 24.0
29.758 13.0
29.8417 23.0
29.9254 16.0
30.0091 16.0
30.0928 25.0
30.1765 19.0
30.2602 10.0
30.3439 20.0
30.4276 17.0
30.5113 14.0
30.595 16.0
30.6787 20.0
30.7624 18.0
30.8461 23.0
30.9298 23.0
31.0136 19.0
31.0973 14.0
31.181 11.0
31.2647 13.0
31.3484 20.0
31.4321 22.0
31.5158 19.0
31.5995 18.0
31.6832 18.0
31.7669 21.0
31.8506 21.0
31.9343 24.0
32.018 28.0
32.1017 28.0
32.1854 16.0
32.2691 21.0
32.3528 15.0
32.4365 19.0
32.5203 20.0
32.604 20.0
32.6877 17.0
32.7714 16.0
32.8551 21.0
32.9388 18.0
33.0225 18.0
33.1062 8.0
33.1899 21.0
33.2736 15.0
33.3573 23.0
33.441 19.0
33.5247 20.0
33.6084 25.0
33.6921 29.0
33.7758 13.0
33.8595 20.0
33.9432 26.0
34.027 21.0
34.1107 15.0
34.1944 19.0
34.2781 15.0
34.3618 22.0
34.4455 23.0
34.5292 15.0
34.6129 17.0
34.6966 12.0
34.7803 21.0
34.864 13.0
34.9477 16.0
35.0314 19.0
35.1151 27.0
35.1988 27.0
35.2825 19.0
35.3662 20.0
35.4499 21.0
35.5337 22.0
35.6174 24.0
35.7011 26.0
35.7848 12.0
35.8685 17.0
35.9522 24.0
36.0359 19.0
36.1196 16.0
36.2033 16.0
36.287 13.0
36.3707 27.0
36.4544 16.0
36.5381 23.0
36.6218 19.0
36.7055 21.0
36.7892 18.0
36.8729 20.0
36.9566 19.0
37.0404 13.0
37.1241 12.0
37.2078 20.0
37.2915 17.0
37.3752 22.0
37.4589 12.0
37.5426 25.0
37.6263 12.0
37.71 15.0
37.7937 22.0
37.8774 22.0
37.9611 14.0
38.0448 18.0
38.1285 14.0
38.2122 11.0
38.2959 20.0
38.3796 22.0
38.4633 23.0
38.5471 16.0
38.6308 16.0
38.7145 22.0
38.7982 25.0
38.8819 15.0
38.9656 25.0
39.0493 22.0
39.133 20.0
39.2167 19.0
39.3004 20.0
39.3841 23.0
39.4678 17.0
39.5515 17.0
39.6352 19.0
39.7189 14.0
39.8026 22.0
39.8863 15.0
39.97 14.0
40.0538 19.0
40.1375 27.0
40.2212 17.0
40.3049 24.0
40.3886 15.0
40.4723 18.0
40.556 18.0
40.6397 13.0
40.7234 16.0
40.8071 8.0
40.8908 25.0
40.9745 24.0
41.0582 28.0
41.1419 27.0
41.2256 21.0
41.3093 23.0
41.393 19.0
41.4767 26.0
41.5605 20.0
41.6442 18.0
41.7279 28.0
41.8116 25.0
41.8953 18.0
41.979 20.0
42.0627 24.0
42.1464 16.0
42.2301 22.0
42.3138 16.0
42.3975 17.0
42.4812 27.0
42.5649 18.0
42.6486 15.0
42.7323 23.0
42.816 14.0
42.8997 16.0
42.9834 23.0
43.0672 19.0
43.1509 26.0
43.2346 24.0
43.3183 28.0
43.402 25.0
43.4857 24.0
43.5694 22.0
43.6531 23.0
43.7368 23.0
43.8205 30.0
43.9042 31.0
43.9879 23.0
44.0716 32.0
44.1553 21.0
44.239 41.0
44.3227 40.0
44.4064 41.0
44.4901 42.0
44.5739 29.0
44.6576 27.0
44.7413 23.0
44.825 28.0
44.9087 28.0
44.9924 29.0
45.0761 25.0
45.1598 21.0
45.2435 14.0
45.3272 17.0
45.4109 26.0
45.4946 27.0
45.5783 20.0
45.662 20.0
45.7457 21.0
45.8294 29.0
45.9131 18.0
45.9968 25.0
46.0806 27.0
46.1643 14.0
46.248 26.0
46.3317 15.0
46.4154 19.0
46.4991 22.0
46.5828 9.0
46.6665 20.0
46.7502 27.0
46.8339 26.0
46.9176 31.0
47.0013 32.0
47.085 168.0
47.1687 118.0
47.2524 38.0
47.3361 22.0
47.4198 24.0
47.5035 29.0
47.5873 31.0
47.671 21.0
47.7547 26.0
47.8384 21.0
47.9221 28.0
48.0058 23.0
48.0895 19.0
48.1732 32.0
48.2569 21.0
48.3406 25.0
48.4243 31.0
48.508 14.0
48.5917 21.0
48.6754 27.0
48.7591 19.0
48.8428 29.0
48.9265 40.0
49.0102 38.0
49.094 38.0
49.1777 37.0
49.2614 31.0
49.3451 47.0
49.4288 56.0
49.5125 41.0
49.5962 94.0
49.6799 123.0
49.7636 201.0
49.8473 345.0
49.931 523.0
50.0147 858.0
50.0984 1214.0
50.1821 1021.0
50.2658 644.0
50.3495 286.0
50.4332 140.0
50.5169 99.0
50.6007 71.0
50.6844 59.0
50.7681 56.0
50.8518 50.0
50.9355 60.0
51.0192 70.0
51.1029 68.0
51.1866 64.0
51.2703 76.0
51.354 77.0
51.4377 84.0
51.5214 82.0
51.6051 95.0
51.6888 100.0
51.7725 127.0
51.8562 139.0
51.9399 159.0
52.0236 191.0
52.1074 285.0
52.1911 389.0
52.2748 972.0
52.3585 1067.0
52.4422 5254.0
52.5259 71512.0
52.6096 13341.0
52.6933 9564.0
52.777 1024.0
52.8607 518.0
52.9444 344.0
53.0281 198.0
53.1118 169.0
53.1955 130.0
53.2792 113.0
53.3629 64.0
53.4466 60.0
53.5303 55.0
53.6141 62.0
53.6978 62.0
53.7815 51.0
53.8652 41.0
53.9489 40.0
54.0326 29.0
54.1163 41.0
54.2 31.0
54.2837 44.0
54.3674 32.0
54.4511 30.0
54.5348 29.0
54.6185 25.0
54.7022 37.0
54.7859 35.0
54.8696 30.0
54.9533 33.0
55.037 34.0
55.1208 24.0
55.2045 26.0
55.2882 31.0
55.3719 27.0
55.4556 35.0
55.5393 30.0
55.623 35.0
55.7067 28.0
55.7904 29.0
55.8741 20.0
55.9578 14.0
56.0415 36.0
56.1252 33.0
56.2089 27.0
56.2926 18.0
56.3763 27.0
56.46 18.0
56.5437 27.0
56.6275 29.0
56.7112 17.0
56.7949 25.0
56.8786 18.0
56.9623 24.0
57.046 28.0
57.1297 25.0
57.2134 21.0
57.2971 19.0
57.3808 22.0
57.4645 28.0
57.5482 22.0
57.6319 31.0
57.7156 31.0
57.7993 26.0
57.883 26.0
57.9667 23.0
58.0504 19.0
58.1342 33.0
58.2179 20.0
58.3016 25.0
58.3853 26.0
58.469 22.0
58.5527 27.0
58.6364 18.0
58.7201 25.0
58.8038 28.0
58.8875 27.0
58.9712 24.0
59.0549 27.0
59.1386 23.0
59.2223 27.0
59.306 28.0
59.3897 28.0
59.4734 21.0
59.5571 29.0
59.6409 33.0
59.7246 16.0
59.8083 31.0
59.892 30.0
59.9757 26.0
60.0594 21.0
60.1431 21.0
60.2268 19.0
60.3105 16.0
60.3942 31.0
60.4779 24.0
60.5616 28.0
60.6453 25.0
60.729 33.0
60.8127 19.0
60.8964 26.0
60.9801 27.0
61.0638 24.0
61.1476 29.0
61.2313 24.0
61.315 32.0
61.3987 27.0
61.4824 19.0
61.5661 26.0
61.6498 29.0
61.7335 29.0
61.8172 20.0
61.9009 18.0
61.9846 34.0
62.0683 31.0
62.152 32.0
62.2357 37.0
62.3194 17.0
62.4031 23.0
62.4868 28.0
62.5705 24.0
62.6543 18.0
62.738 23.0
62.8217 23.0
62.9054 15.0
62.9891 21.0
63.0728 22.0
63.1565 24.0
63.2402 26.0
63.3239 33.0
63.4076 26.0
63.4913 18.0
63.575 29.0
63.6587 25.0
63.7424 28.0
63.8261 23.0
63.9098 23.0
63.9935 19.0
64.0772 30.0
64.161 27.0
64.2447 21.0
64.3284 34.0
64.4121 23.0
64.4958 30.0
64.5795 43.0
64.6632 22.0
64.7469 24.0
64.8306 31.0
64.9143 26.0
64.998 21.0
65.0817 19.0
65.1654 29.0
65.2491 21.0
65.3328 27.0
65.4165 28.0
65.5002 27.0
65.5839 27.0
65.6677 36.0
65.7514 28.0
65.8351 31.0
65.9188 27.0
66.0025 28.0
66.0862 31.0
66.1699 22.0
66.2536 24.0
66.3373 28.0
66.421 28.0
66.5047 24.0
66.5884 28.0
66.6721 25.0
66.7558 23.0
66.8395 29.0
66.9232 23.0
67.0069 25.0
67.0906 30.0
67.1744 25.0
67.2581 27.0
67.3418 33.0
67.4255 26.0
67.5092 32.0
67.5929 17.0
67.6766 24.0
67.7603 24.0
67.844 26.0
67.9277 28.0
68.0114 21.0
68.0951 27.0
68.1788 30.0
68.2625 24.0
68.3462 31.0
68.4299 28.0
68.5136 24.0
68.5973 23.0
68.6811 30.0
68.7648 27.0
68.8485 29.0
68.9322 26.0
69.0159 25.0
69.0996 25.0
69.1833 32.0
69.267 28.0
69.3507 35.0
69.4344 25.0
69.5181 34.0
69.6018 23.0
69.6855 33.0
69.7692 27.0
69.8529 26.0
69.9366 34.0
70.0203 21.0
70.104 19.0
70.1878 28.0
70.2715 17.0
70.3552 30.0
70.4389 27.0
70.5226 29.0
70.6063 30.0
70.69 33.0
70.7737 22.0
70.8574 30.0
70.9411 18.0
71.0248 23.0
71.1085 31.0
71.1922 22.0
71.2759 43.0
71.3596 22.0
71.4433 31.0
71.527 25.0
71.6107 23.0
71.6945 27.0
71.7782 23.0
71.8619 28.0
71.9456 32.0
72.0293 30.0
72.113 31.0
72.1967 32.0
72.2804 24.0
72.3641 25.0
72.4478 28.0
72.5315 24.0
72.6152 22.0
72.6989 27.0
72.7826 28.0
72.8663 36.0
72.95 26.0
73.0337 23.0
73.1174 29.0
73.2012 27.0
73.2849 21.0
73.3686 26.0
73.4523 33.0
73.536 23.0
73.6197 40.0
73.7034 39.0
73.7871 32.0
73.8708 25.0
73.9545 41.0
74.0382 24.0
74.1219 26.0
74.2056 26.0
74.2893 18.0
74.373 33.0
74.4567 26.0
74.5404 24.0
74.6241 22.0
74.7079 30.0
74.7916 22.0
74.8753 27.0
74.959 24.0
75.0427 33.0
75.1264 28.0
75.2101 31.0
75.2938 31.0
75.3775 28.0
75.4612 24.0
75.5449 20.0
75.6286 21.0
75.7123 29.0
75.796 22.0
75.8797 28.0
75.9634 26.0
76.0471 19.0
76.1308 29.0
76.2146 29.0
76.2983 20.0
76.382 37.0
76.4657 32.0
76.5494 41.0
76.6331 26.0
76.7168 21.0
76.8005 31.0
76.8842 29.0
76.9679 32.0
77.0516 28.0
77.1353 29.0
77.219 33.0
77.3027 21.0
77.3864 31.0
77.4701 39.0
77.5538 34.0
77.6375 30.0
77.7213 24.0
77.805 29.0
77.8887 31.0
77.9724 26.0
78.0561 27.0
78.1398 32.0
78.2235 31.0
78.3072 35.0
78.3909 43.0
78.4746 29.0
78.5583 44.0
78.642 46.0
78.7257 61.0
78.8094 56.0
78.8931 57.0
78.9768 73.0
79.0605 70.0
79.1442 57.0
79.228 40.0
79.3117 41.0
79.3954 32.0
79.4791 31.0
79.5628 28.0
79.6465 38.0
79.7302 36.0
79.8139 24.0
79.8976 23.0
79.9813 31.0
80.065 29.0
80.1487 31.0
80.2324 30.0
80.3161 26.0
80.3998 40.0
80.4835 24.0
80.5672 23.0
80.6509 34.0
80.7347 39.0
80.8184 27.0
80.9021 29.0
80.9858 19.0
81.0695 23.0
81.1532 35.0
81.2369 33.0
81.3206 31.0
81.4043 41.0
81.488 31.0
81.5717 34.0
81.6554 28.0
81.7391 35.0
81.8228 25.0
81.9065 36.0
81.9902 42.0
82.0739 33.0
82.1576 30.0
82.2414 40.0
82.3251 36.0
82.4088 45.0
82.4925 37.0
82.5762 32.0
82.6599 41.0
82.7436 55.0
82.8273 48.0
82.911 67.0
82.9947 69.0
83.0784 171.0
83.1621 3415.0
83.2458 648.0
83.3295 168.0
83.4132 1609.0
83.4969 356.0
83.5806 80.0
83.6643 50.0
83.7481 45.0
83.8318 37.0
83.9155 43.0
83.9992 41.0
84.0829 32.0
84.1666 30.0
84.2503 35.0
84.334 39.0
84.4177 41.0
84.5014 34.0
84.5851 33.0
84.6688 35.0
84.7525 29.0
84.8362 27.0
84.9199 32.0
85.0036 26.0
85.0873 35.0
85.171 27.0
85.2548 26.0
85.3385 18.0
85.4222 29.0
85.5059 28.0
85.5896 25.0
85.6733 40.0
85.757 31.0
85.8407 26.0
85.9244 26.0
86.0081 35.0
86.0918 25.0
86.1755 29.0
86.2592 35.0
86.3429 34.0
86.4266 34.0
86.5103 33.0
86.594 29.0
86.6777 14.0
86.7615 30.0
86.8452 34.0
86.9289 26.0
87.0126 32.0
87.0963 35.0
87.18 27.0
87.2637 24.0
87.3474 27.0
87.4311 20.0
87.5148 26.0
87.5985 25.0
87.6822 24.0
87.7659 25.0
87.8496 23.0
87.9333 31.0
88.017 26.0
88.1007 35.0
88.1844 27.0
88.2682 27.0
88.3519 28.0
88.4356 28.0
88.5193 36.0
88.603 18.0
88.6867 16.0
88.7704 25.0
88.8541 27.0
88.9378 28.0
89.0215 17.0
89.1052 30.0
89.1889 24.0
89.2726 29.0
89.3563 26.0
89.44 27.0
89.5237 17.0
89.6074 30.0
89.6911 20.0
89.7749 34.0
89.8586 29.0
89.9423 31.0
90.026 20.0
90.1097 27.0
90.1934 30.0
90.2771 46.0
90.3608 23.0
90.4445 23.0
90.5282 19.0
90.6119 27.0
90.6956 33.0
90.7793 23.0
90.863 32.0
90.9467 29.0
91.0304 24.0
91.1141 19.0
91.1978 28.0
91.2816 21.0
91.3653 37.0
91.449 29.0
91.5327 28.0
91.6164 24.0
91.7001 29.0
91.7838 35.0
91.8675 20.0
91.9512 26.0
92.0349 33.0
92.1186 21.0
92.2023 23.0
92.286 20.0
92.3697 25.0
92.4534 38.0
92.5371 20.0
92.6208 28.0
92.7045 32.0
92.7883 35.0
92.872 28.0
92.9557 35.0
93.0394 29.0
93.1231 24.0
93.2068 26.0
93.2905 24.0
93.3742 37.0
93.4579 25.0
93.5416 25.0
93.6253 18.0
93.709 42.0
93.7927 22.0
93.8764 31.0
93.9601 21.0
94.0438 23.0
94.1275 32.0
94.2112 25.0
94.295 35.0
94.3787 23.0
94.4624 30.0
94.5461 19.0
94.6298 33.0
94.7135 26.0
94.7972 21.0
94.8809 31.0
94.9646 29.0
95.0483 26.0
95.132 27.0
95.2157 30.0
95.2994 35.0
95.3831 25.0
95.4668 38.0
95.5505 34.0
95.6342 31.0
95.7179 27.0
95.8017 29.0
95.8854 27.0
95.9691 31.0
96.0528 24.0
96.1365 27.0
96.2202 37.0
96.3039 26.0
96.3876 26.0
96.4713 33.0
96.555 20.0
96.6387 33.0
96.7224 28.0
96.8061 27.0
96.8898 29.0
96.9735 28.0
97.0572 31.0
97.1409 24.0
97.2246 26.0
97.3084 25.0
97.3921 34.0
97.4758 16.0
97.5595 29.0
97.6432 37.0
97.7269 22.0
97.8106 28.0
97.8943 43.0
97.978 40.0
98.0617 30.0
98.1454 20.0
98.2291 34.0
98.3128 39.0
98.3965 27.0
98.4802 23.0
98.5639 33.0
98.6476 28.0
98.7313 26.0
98.8151 30.0
98.8988 21.0
98.9825 34.0
99.0662 25.0
99.1499 25.0
99.2336 24.0
99.3173 26.0
99.401 28.0
99.4847 27.0
99.5684 35.0
99.6521 26.0
99.7358 23.0
99.8195 32.0
99.9032 23.0
99.9869 37.0
100.071 22.0
100.154 33.0
100.238 22.0
100.322 31.0
100.405 28.0
100.489 35.0
100.573 25.0
100.657 24.0
100.74 36.0
100.824 31.0
100.908 29.0
100.991 35.0
101.075 22.0
101.159 18.0
101.243 41.0
101.326 19.0
101.41 22.0
101.494 29.0
101.577 16.0
101.661 30.0
101.745 29.0
101.828 24.0
101.912 30.0
101.996 23.0
102.08 23.0
102.163 28.0
102.247 23.0
102.331 27.0
102.414 35.0
102.498 24.0
102.582 25.0
102.666 31.0
102.749 22.0
102.833 36.0
102.917 37.0
103 25.0
103.084 31.0
103.168 37.0
103.251 39.0
103.335 32.0
103.419 31.0
103.503 31.0
103.586 27.0
103.67 27.0
103.754 30.0
103.837 27.0
103.921 32.0
104.005 33.0
104.089 31.0
104.172 34.0
104.256 33.0
104.34 29.0
104.423 22.0
104.507 31.0
104.591 34.0
104.674 34.0
104.758 30.0
104.842 31.0
104.926 36.0
105.009 22.0
105.093 28.0
105.177 30.0
105.26 36.0
105.344 34.0
105.428 21.0
105.511 29.0
105.595 25.0
105.679 30.0
105.763 25.0
105.846 33.0
105.93 29.0
106.014 25.0
106.097 42.0
106.181 44.0
106.265 63.0
106.349 51.0
106.432 35.0
106.516 32.0
106.6 39.0
106.683 19.0
106.767 31.0
106.851 35.0
106.934 27.0
107.018 30.0
107.102 25.0
107.186 28.0
107.269 26.0
107.353 21.0
107.437 27.0
107.52 33.0
107.604 30.0
107.688 35.0
107.772 28.0
107.855 38.0
107.939 28.0
108.023 35.0
108.106 36.0
108.19 30.0
108.274 22.0
108.357 29.0
108.441 25.0
108.525 24.0
108.609 32.0
108.692 25.0
108.776 18.0
108.86 26.0
108.943 27.0
109.027 29.0
109.111 18.0
109.195 23.0
109.278 27.0
109.362 17.0
109.446 36.0
109.529 30.0
109.613 40.0
109.697 31.0
109.78 22.0
109.864 41.0
109.948 24.0
110.032 29.0
110.115 31.0
110.199 40.0
110.283 21.0
110.366 30.0
110.45 29.0
110.534 25.0
110.618 20.0
110.701 40.0
110.785 25.0
110.869 23.0
110.952 26.0
111.036 24.0
111.12 25.0
111.203 28.0
111.287 33.0
111.371 29.0
111.455 25.0
111.538 36.0
111.622 32.0
111.706 28.0
111.789 31.0
111.873 36.0
111.957 30.0
112.041 34.0
112.124 26.0
112.208 27.0
112.292 31.0
112.375 26.0
112.459 34.0
112.543 39.0
112.626 22.0
112.71 20.0
112.794 35.0
112.878 25.0
112.961 32.0
113.045 34.0
113.129 22.0
113.212 23.0
113.296 22.0
113.38 39.0
113.464 28.0
113.547 42.0
113.631 33.0
113.715 26.0
113.798 26.0
113.882 28.0
113.966 29.0
114.049 37.0
114.133 24.0
114.217 20.0
114.301 24.0
114.384 33.0
114.468 23.0
114.552 38.0
114.635 36.0
114.719 39.0
114.803 30.0
114.887 28.0
114.97 24.0
115.054 40.0
115.138 40.0
115.221 27.0
115.305 39.0
115.389 23.0
115.472 44.0
115.556 61.0
115.64 43.0
115.724 48.0
115.807 45.0
115.891 54.0
115.975 50.0
116.058 54.0
116.142 49.0
116.226 50.0
116.31 44.0
116.393 33.0
116.477 42.0
116.561 28.0
116.644 33.0
116.728 40.0
116.812 41.0
116.895 27.0
116.979 38.0
117.063 37.0
117.147 29.0
117.23 35.0
117.314 32.0
117.398 34.0
117.481 27.0
117.565 35.0
117.649 24.0
117.733 32.0
117.816 37.0
117.9 35.0
117.984 29.0
118.067 35.0
118.151 36.0
118.235 39.0
118.318 32.0
118.402 33.0
118.486 25.0
118.57 35.0
118.653 32.0
118.737 25.0
118.821 38.0
118.904 41.0
118.988 48.0
119.072 28.0
119.156 38.0
119.239 34.0
119.323 37.0
119.407 29.0
119.49 33.0
119.574 19.0
119.658 27.0
119.741 22.0
119.825 35.0
119.909 32.0
119.993 35.0
120.076 28.0
120.16 35.0
120.244 25.0
120.327 37.0
120.411 32.0
120.495 37.0
120.578 33.0
120.662 36.0
120.746 25.0
120.83 39.0
120.913 37.0
120.997 35.0
121.081 38.0
121.164 38.0
121.248 39.0
121.332 36.0
121.416 41.0
121.499 37.0
121.583 41.0
121.667 33.0
121.75 38.0
121.834 35.0
121.918 47.0
122.001 39.0
122.085 54.0
122.169 39.0
122.253 38.0
122.336 42.0
122.42 39.0
122.504 50.0
122.587 44.0
122.671 48.0
122.755 47.0
122.839 48.0
122.922 50.0
123.006 48.0
123.09 38.0
123.173 63.0
123.257 50.0
123.341 56.0
123.424 62.0
123.508 90.0
123.592 97.0
123.676 114.0
123.759 130.0
123.843 120.0
123.927 101.0
124.01 99.0
124.094 125.0
124.178 191.0
124.262 319.0
124.345 502.0
124.429 1093.0
124.513 4059.0
124.596 16827.0
124.68 3774.0
124.764 1069.0
124.847 536.0
124.931 587.0
125.015 1178.0
125.099 6024.0
125.182 4624.0
125.266 1069.0
125.35 448.0
125.433 203.0
125.517 180.0
125.601 112.0
125.685 87.0
125.768 104.0
125.852 74.0
125.936 70.0
126.019 68.0
126.103 71.0
126.187 63.0
126.27 58.0
126.354 66.0
126.438 56.0
126.522 47.0
126.605 37.0
126.689 48.0
126.773 46.0
126.856 47.0
126.94 43.0
127.024 47.0
127.108 35.0
127.191 54.0
127.275 55.0
127.359 33.0
127.442 37.0
127.526 35.0
127.61 39.0
127.693 38.0
127.777 39.0
127.861 46.0
127.945 43.0
128.028 36.0
128.112 32.0
128.196 37.0
128.279 37.0
128.363 36.0
128.447 35.0
128.531 36.0
128.614 31.0
128.698 23.0
128.782 31.0
128.865 45.0
128.949 31.0
129.033 43.0
129.116 32.0
129.2 36.0
129.284 31.0
129.368 36.0
129.451 26.0
129.535 31.0
129.619 33.0
129.702 33.0
129.786 25.0
129.87 45.0
129.954 32.0
129.998 26.0