File: data/W6784r/XRD_Omega/scan_omega_4deg_step_0.005deg0_6.xy
23.13050 43.0
23.13550 41.0
23.14050 43.0
23.14550 45.0
23.15050 34.0
23.15550 40.0
23.16050 48.0
23.16550 43.0
23.17050 39.0
23.17550 43.0
23.18050 36.0
23.18550 43.0
23.19050 49.0
23.19550 43.0
23.20050 37.0
23.20550 59.0
23.21050 33.0
23.21550 55.0
23.22050 54.0
23.22550 34.0
23.23050 47.0
23.23550 48.0
23.24050 40.0
23.24550 32.0
23.25050 38.0
23.25550 47.0
23.26050 44.0
23.26550 35.0
23.27050 40.0
23.27550 56.0
23.28050 47.0
23.28550 48.0
23.29050 49.0
23.29550 42.0
23.30050 43.0
23.30550 49.0
23.31050 43.0
23.31550 56.0
23.32050 50.0
23.32550 59.0
23.33050 37.0
23.33550 41.0
23.34050 47.0
23.34550 55.0
23.35050 45.0
23.35550 45.0
23.36050 31.0
23.36550 50.0
23.37050 39.0
23.37550 50.0
23.38050 47.0
23.38550 34.0
23.39050 43.0
23.39550 45.0
23.40050 46.0
23.40550 46.0
23.41050 46.0
23.41550 42.0
23.42050 52.0
23.42550 46.0
23.43050 58.0
23.43550 49.0
23.44050 43.0
23.44550 54.0
23.45050 81.0
23.45550 38.0
23.46050 57.0
23.46550 51.0
23.47050 65.0
23.47550 45.0
23.48050 58.0
23.48550 68.0
23.49050 41.0
23.49550 44.0
23.50050 54.0
23.50550 44.0
23.51050 39.0
23.51550 40.0
23.52050 42.0
23.52550 50.0
23.53050 61.0
23.53550 42.0
23.54050 48.0
23.54550 48.0
23.55050 37.0
23.55550 46.0
23.56050 38.0
23.56550 69.0
23.57050 48.0
23.57550 44.0
23.58050 45.0
23.58550 44.0
23.59050 60.0
23.59550 73.0
23.60050 50.0
23.60550 52.0
23.61050 51.0
23.61550 53.0
23.62050 59.0
23.62550 59.0
23.63050 49.0
23.63550 50.0
23.64050 56.0
23.64550 61.0
23.65050 48.0
23.65550 59.0
23.66050 58.0
23.66550 61.0
23.67050 68.0
23.67550 57.0
23.68050 40.0
23.68550 63.0
23.69050 57.0
23.69550 64.0
23.70050 66.0
23.70550 59.0
23.71050 48.0
23.71550 54.0
23.72050 60.0
23.72550 58.0
23.73050 59.0
23.73550 62.0
23.74050 57.0
23.74550 55.0
23.75050 60.0
23.75550 59.0
23.76050 48.0
23.76550 55.0
23.77050 47.0
23.77550 65.0
23.78050 70.0
23.78550 87.0
23.79050 65.0
23.79550 59.0
23.80050 59.0
23.80550 62.0
23.81050 61.0
23.81550 60.0
23.82050 68.0
23.82550 64.0
23.83050 66.0
23.83550 79.0
23.84050 71.0
23.84550 65.0
23.85050 67.0
23.85550 60.0
23.86050 70.0
23.86550 80.0
23.87050 60.0
23.87550 80.0
23.88050 77.0
23.88550 64.0
23.89050 74.0
23.89550 81.0
23.90050 67.0
23.90550 68.0
23.91050 71.0
23.91550 68.0
23.92050 87.0
23.92550 78.0
23.93050 72.0
23.93550 66.0
23.94050 77.0
23.94550 83.0
23.95050 79.0
23.95550 81.0
23.96050 77.0
23.96550 77.0
23.97050 98.0
23.97550 83.0
23.98050 86.0
23.98550 89.0
23.99050 106.0
23.99550 88.0
24.00050 81.0
24.00550 103.0
24.01050 98.0
24.01550 75.0
24.02050 87.0
24.02550 82.0
24.03050 99.0
24.03550 89.0
24.04050 81.0
24.04550 94.0
24.05050 99.0
24.05550 113.0
24.06050 111.0
24.06550 105.0
24.07050 101.0
24.07550 97.0
24.08050 84.0
24.08550 93.0
24.09050 95.0
24.09550 106.0
24.10050 105.0
24.10550 115.0
24.11050 93.0
24.11550 89.0
24.12050 101.0
24.12550 121.0
24.13050 109.0
24.13550 124.0
24.14050 111.0
24.14550 108.0
24.15050 123.0
24.15550 121.0
24.16050 125.0
24.16550 114.0
24.17050 118.0
24.17550 116.0
24.18050 135.0
24.18550 140.0
24.19050 142.0
24.19550 141.0
24.20050 143.0
24.20550 153.0
24.21050 138.0
24.21550 128.0
24.22050 145.0
24.22550 152.0
24.23050 146.0
24.23550 162.0
24.24050 152.0
24.24550 150.0
24.25050 152.0
24.25550 167.0
24.26050 156.0
24.26550 160.0
24.27050 157.0
24.27550 174.0
24.28050 148.0
24.28550 181.0
24.29050 193.0
24.29550 166.0
24.30050 198.0
24.30550 181.0
24.31050 192.0
24.31550 195.0
24.32050 184.0
24.32550 209.0
24.33050 185.0
24.33550 181.0
24.34050 203.0
24.34550 222.0
24.35050 178.0
24.35550 209.0
24.36050 196.0
24.36550 219.0
24.37050 207.0
24.37550 225.0
24.38050 220.0
24.38550 231.0
24.39050 221.0
24.39550 238.0
24.40050 255.0
24.40550 236.0
24.41050 259.0
24.41550 235.0
24.42050 258.0
24.42550 226.0
24.43050 256.0
24.43550 257.0
24.44050 271.0
24.44550 270.0
24.45050 259.0
24.45550 299.0
24.46050 269.0
24.46550 291.0
24.47050 310.0
24.47550 293.0
24.48050 321.0
24.48550 320.0
24.49050 293.0
24.49550 289.0
24.50050 326.0
24.50550 337.0
24.51050 349.0
24.51550 346.0
24.52050 349.0
24.52550 358.0
24.53050 376.0
24.53550 368.0
24.54050 395.0
24.54550 356.0
24.55050 407.0
24.55550 375.0
24.56050 396.0
24.56550 389.0
24.57050 398.0
24.57550 453.0
24.58050 437.0
24.58550 432.0
24.59050 453.0
24.59550 442.0
24.60050 455.0
24.60550 457.0
24.61050 439.0
24.61550 457.0
24.62050 500.0
24.62550 469.0
24.63050 505.0
24.63550 502.0
24.64050 537.0
24.64550 535.0
24.65050 546.0
24.65550 521.0
24.66050 569.0
24.66550 538.0
24.67050 621.0
24.67550 559.0
24.68050 601.0
24.68550 570.0
24.69050 618.0
24.69550 581.0
24.70050 594.0
24.70550 672.0
24.71050 565.0
24.71550 616.0
24.72050 638.0
24.72550 642.0
24.73050 680.0
24.73550 682.0
24.74050 696.0
24.74550 684.0
24.75050 672.0
24.75550 704.0
24.76050 678.0
24.76550 734.0
24.77050 699.0
24.77550 780.0
24.78050 784.0
24.78550 792.0
24.79050 764.0
24.79550 773.0
24.80050 817.0
24.80550 826.0
24.81050 835.0
24.81550 817.0
24.82050 898.0
24.82550 874.0
24.83050 818.0
24.83550 853.0
24.84050 934.0
24.84550 880.0
24.85050 879.0
24.85550 945.0
24.86050 903.0
24.86550 965.0
24.87050 990.0
24.87550 930.0
24.88050 934.0
24.88550 991.0
24.89050 956.0
24.89550 1009.0
24.90050 1009.0
24.90550 983.0
24.91050 972.0
24.91550 996.0
24.92050 1024.0
24.92550 1060.0
24.93050 1099.0
24.93550 1108.0
24.94050 1050.0
24.94550 1098.0
24.95050 1079.0
24.95550 1118.0
24.96050 1171.0
24.96550 1156.0
24.97050 1149.0
24.97550 1181.0
24.98050 1118.0
24.98550 1197.0
24.99050 1145.0
24.99550 1226.0
25.00050 1220.0
25.00550 1237.0
25.01050 1192.0
25.01550 1247.0
25.02050 1272.0
25.02550 1248.0
25.03050 1243.0
25.03550 1191.0
25.04050 1290.0
25.04550 1309.0
25.05050 1175.0
25.05550 1231.0
25.06050 1187.0
25.06550 1225.0
25.07050 1220.0
25.07550 1228.0
25.08050 1338.0
25.08550 1175.0
25.09050 1269.0
25.09550 1332.0
25.10050 1290.0
25.10550 1277.0
25.11050 1359.0
25.11550 1197.0
25.12050 1254.0
25.12550 1351.0
25.13050 1247.0
25.13550 1280.0
25.14050 1253.0
25.14550 1266.0
25.15050 1254.0
25.15550 1298.0
25.16050 1253.0
25.16550 1261.0
25.17050 1292.0
25.17550 1301.0
25.18050 1324.0
25.18550 1238.0
25.19050 1323.0
25.19550 1327.0
25.20050 1212.0
25.20550 1218.0
25.21050 1262.0
25.21550 1249.0
25.22050 1196.0
25.22550 1205.0
25.23050 1189.0
25.23550 1192.0
25.24050 1114.0
25.24550 1141.0
25.25050 1141.0
25.25550 1098.0
25.26050 1074.0
25.26550 1116.0
25.27050 1114.0
25.27550 1095.0
25.28050 1038.0
25.28550 1115.0
25.29050 1112.0
25.29550 1064.0
25.30050 1011.0
25.30550 1026.0
25.31050 1049.0
25.31550 1028.0
25.32050 1004.0
25.32550 987.0
25.33050 976.0
25.33550 1031.0
25.34050 991.0
25.34550 942.0
25.35050 898.0
25.35550 904.0
25.36050 964.0
25.36550 916.0
25.37050 896.0
25.37550 853.0
25.38050 871.0
25.38550 866.0
25.39050 890.0
25.39550 830.0
25.40050 844.0
25.40550 822.0
25.41050 797.0
25.41550 848.0
25.42050 783.0
25.42550 781.0
25.43050 750.0
25.43550 847.0
25.44050 778.0
25.44550 713.0
25.45050 745.0
25.45550 678.0
25.46050 763.0
25.46550 716.0
25.47050 672.0
25.47550 684.0
25.48050 721.0
25.48550 676.0
25.49050 680.0
25.49550 669.0
25.50050 662.0
25.50550 639.0
25.51050 598.0
25.51550 607.0
25.52050 639.0
25.52550 586.0
25.53050 604.0
25.53550 605.0
25.54050 569.0
25.54550 623.0
25.55050 526.0
25.55550 579.0
25.56050 559.0
25.56550 506.0
25.57050 533.0
25.57550 538.0
25.58050 541.0
25.58550 546.0
25.59050 501.0
25.59550 487.0
25.60050 509.0
25.60550 452.0
25.61050 471.0
25.61550 476.0
25.62050 431.0
25.62550 405.0
25.63050 481.0
25.63550 429.0
25.64050 431.0
25.64550 439.0
25.65050 356.0
25.65550 406.0
25.66050 372.0
25.66550 376.0
25.67050 375.0
25.67550 380.0
25.68050 375.0
25.68550 372.0
25.69050 376.0
25.69550 358.0
25.70050 322.0
25.70550 365.0
25.71050 339.0
25.71550 345.0
25.72050 310.0
25.72550 309.0
25.73050 292.0
25.73550 303.0
25.74050 276.0
25.74550 316.0
25.75050 298.0
25.75550 311.0
25.76050 283.0
25.76550 259.0
25.77050 290.0
25.77550 260.0
25.78050 269.0
25.78550 285.0
25.79050 269.0
25.79550 247.0
25.80050 269.0
25.80550 263.0
25.81050 245.0
25.81550 252.0
25.82050 217.0
25.82550 237.0
25.83050 226.0
25.83550 238.0
25.84050 207.0
25.84550 220.0
25.85050 221.0
25.85550 207.0
25.86050 225.0
25.86550 224.0
25.87050 196.0
25.87550 196.0
25.88050 226.0
25.88550 200.0
25.89050 190.0
25.89550 157.0
25.90050 185.0
25.90550 140.0
25.91050 192.0
25.91550 176.0
25.92050 185.0
25.92550 169.0
25.93050 178.0
25.93550 168.0
25.94050 157.0
25.94550 160.0
25.95050 176.0
25.95550 142.0
25.96050 150.0
25.96550 142.0
25.97050 154.0
25.97550 132.0
25.98050 123.0
25.98550 159.0
25.99050 154.0
25.99550 131.0
26.00050 142.0
26.00550 152.0
26.01050 117.0
26.01550 147.0
26.02050 122.0
26.02550 141.0
26.03050 132.0
26.03550 130.0
26.04050 130.0
26.04550 136.0
26.05050 115.0
26.05550 124.0
26.06050 131.0
26.06550 113.0
26.07050 112.0
26.07550 118.0
26.08050 137.0
26.08550 121.0
26.09050 109.0
26.09550 106.0
26.10050 93.0
26.10550 127.0
26.11050 109.0
26.11550 116.0
26.12050 114.0
26.12550 93.0
26.13050 106.0
26.13550 112.0
26.14050 94.0
26.14550 97.0
26.15050 81.0
26.15550 105.0
26.16050 102.0
26.16550 87.0
26.17050 98.0
26.17550 103.0
26.18050 96.0
26.18550 102.0
26.19050 94.0
26.19550 79.0
26.20050 82.0
26.20550 87.0
26.21050 90.0
26.21550 103.0
26.22050 80.0
26.22550 79.0
26.23050 87.0
26.23550 90.0
26.24050 95.0
26.24550 82.0
26.25050 73.0
26.25550 77.0
26.26050 82.0
26.26550 85.0
26.27050 70.0
26.27550 81.0
26.28050 79.0
26.28550 91.0
26.29050 97.0
26.29550 64.0
26.30050 66.0
26.30550 85.0
26.31050 71.0
26.31550 65.0
26.32050 68.0
26.32550 63.0
26.33050 62.0
26.33550 81.0
26.34050 78.0
26.34550 73.0
26.35050 84.0
26.35550 64.0
26.36050 73.0
26.36550 64.0
26.37050 62.0
26.37550 68.0
26.38050 68.0
26.38550 63.0
26.39050 68.0
26.39550 76.0
26.40050 73.0
26.40550 59.0
26.41050 67.0
26.41550 71.0
26.42050 65.0
26.42550 80.0
26.43050 59.0
26.43550 58.0
26.44050 49.0
26.44550 64.0
26.45050 59.0
26.45550 47.0
26.46050 52.0
26.46550 62.0
26.47050 60.0
26.47550 63.0
26.48050 54.0
26.48550 55.0
26.49050 39.0
26.49550 46.0
26.50050 56.0
26.50550 44.0
26.51050 49.0
26.51550 67.0
26.52050 64.0
26.52550 55.0
26.53050 54.0
26.53550 51.0
26.54050 51.0
26.54550 55.0
26.55050 49.0
26.55550 37.0
26.56050 62.0
26.56550 66.0
26.57050 53.0
26.57550 61.0
26.58050 42.0
26.58550 43.0
26.59050 35.0
26.59550 59.0
26.60050 50.0
26.60550 57.0
26.61050 52.0
26.61550 53.0
26.62050 49.0
26.62550 50.0
26.63050 53.0
26.63550 43.0
26.64050 49.0
26.64550 55.0
26.65050 38.0
26.65550 40.0
26.66050 60.0
26.66550 38.0
26.67050 39.0
26.67550 62.0
26.68050 50.0
26.68550 48.0
26.69050 42.0
26.69550 47.0
26.70050 38.0
26.70550 51.0
26.71050 54.0
26.71550 38.0
26.72050 47.0
26.72550 53.0
26.73050 40.0
26.73550 43.0
26.74050 38.0
26.74550 57.0
26.75050 38.0
26.75550 50.0
26.76050 41.0
26.76550 40.0
26.77050 58.0
26.77550 38.0
26.78050 36.0
26.78550 52.0
26.79050 40.0
26.79550 46.0
26.80050 52.0
26.80550 50.0
26.81050 38.0
26.81550 37.0
26.82050 45.0
26.82550 45.0
26.83050 27.0
26.83550 38.0
26.84050 34.0
26.84550 51.0
26.85050 46.0
26.85550 44.0
26.86050 46.0
26.86550 34.0
26.87050 53.0
26.87550 46.0
26.88050 33.0
26.88550 43.0
26.89050 43.0
26.89550 47.0
26.90050 32.0
26.90550 46.0
26.91050 49.0
26.91550 32.0
26.92050 42.0
26.92550 48.0
26.93050 40.0
26.93550 38.0
26.94050 45.0
26.94550 47.0
26.95050 37.0
26.95550 39.0
26.96050 37.0
26.96550 47.0
26.97050 32.0
26.97550 46.0
26.98050 47.0
26.98550 43.0
26.99050 48.0
26.99550 52.0
27.00050 32.0
27.00550 45.0
27.01050 35.0
27.01550 45.0
27.02050 36.0
27.02550 36.0
27.03050 49.0
27.03550 40.0
27.04050 47.0
27.04550 30.0
27.05050 45.0
27.05550 33.0
27.06050 32.0
27.06550 26.0
27.07050 33.0
27.07550 42.0
27.08050 60.0
27.08550 43.0
27.09050 43.0