File: data/W6908a/XRD_2ThetaOmega/scan_2th-om_a_Cr2O3_30-40deg_PIXscan_4min_9.xy
30.0025 73.0
30.0123 90.0
30.0222 67.0
30.032 91.0
30.0419 65.0
30.0517 98.0
30.0615 66.0
30.0714 90.0
30.0812 87.0
30.0911 84.0
30.1009 71.0
30.1108 72.0
30.1206 85.0
30.1305 91.0
30.1403 95.0
30.1502 61.0
30.16 86.0
30.1699 97.0
30.1797 86.0
30.1896 91.0
30.1994 88.0
30.2093 74.0
30.2191 71.0
30.229 92.0
30.2388 69.0
30.2487 71.0
30.2585 69.0
30.2684 77.0
30.2782 77.0
30.288 75.0
30.2979 79.0
30.3077 79.0
30.3176 86.0
30.3274 79.0
30.3373 89.0
30.3471 67.0
30.357 70.0
30.3668 86.0
30.3767 96.0
30.3865 77.0
30.3964 77.0
30.4062 83.0
30.4161 93.0
30.4259 91.0
30.4358 81.0
30.4456 82.0
30.4555 71.0
30.4653 72.0
30.4752 87.0
30.485 78.0
30.4948 95.0
30.5047 91.0
30.5145 81.0
30.5244 82.0
30.5342 74.0
30.5441 76.0
30.5539 84.0
30.5638 86.0
30.5736 66.0
30.5835 79.0
30.5933 64.0
30.6032 83.0
30.613 99.0
30.6229 93.0
30.6327 82.0
30.6426 80.0
30.6524 80.0
30.6623 75.0
30.6721 89.0
30.682 75.0
30.6918 69.0
30.7016 66.0
30.7115 73.0
30.7213 71.0
30.7312 74.0
30.741 99.0
30.7509 75.0
30.7607 74.0
30.7706 86.0
30.7804 66.0
30.7903 89.0
30.8001 68.0
30.81 80.0
30.8198 87.0
30.8297 88.0
30.8395 78.0
30.8494 80.0
30.8592 89.0
30.8691 98.0
30.8789 80.0
30.8888 67.0
30.8986 87.0
30.9085 80.0
30.9183 74.0
30.9281 75.0
30.938 74.0
30.9478 91.0
30.9577 85.0
30.9675 87.0
30.9774 81.0
30.9872 91.0
30.9971 91.0
31.0069 77.0
31.0168 78.0
31.0266 88.0
31.0365 70.0
31.0463 81.0
31.0562 81.0
31.066 77.0
31.0759 77.0
31.0857 94.0
31.0956 83.0
31.1054 77.0
31.1153 72.0
31.1251 76.0
31.1349 93.0
31.1448 91.0
31.1546 79.0
31.1645 82.0
31.1743 71.0
31.1842 93.0
31.194 77.0
31.2039 90.0
31.2137 103.0
31.2236 81.0
31.2334 77.0
31.2433 64.0
31.2531 91.0
31.263 72.0
31.2728 79.0
31.2827 96.0
31.2925 87.0
31.3024 79.0
31.3122 90.0
31.3221 72.0
31.3319 81.0
31.3418 88.0
31.3516 77.0
31.3614 88.0
31.3713 91.0
31.3811 85.0
31.391 71.0
31.4008 85.0
31.4107 65.0
31.4205 75.0
31.4304 85.0
31.4402 80.0
31.4501 83.0
31.4599 82.0
31.4698 74.0
31.4796 58.0
31.4895 77.0
31.4993 94.0
31.5092 71.0
31.519 87.0
31.5289 83.0
31.5387 75.0
31.5486 82.0
31.5584 71.0
31.5682 86.0
31.5781 80.0
31.5879 76.0
31.5978 89.0
31.6076 72.0
31.6175 85.0
31.6273 90.0
31.6372 98.0
31.647 94.0
31.6569 100.0
31.6667 85.0
31.6766 79.0
31.6864 78.0
31.6963 82.0
31.7061 87.0
31.716 57.0
31.7258 71.0
31.7357 79.0
31.7455 75.0
31.7554 66.0
31.7652 89.0
31.7751 85.0
31.7849 78.0
31.7947 88.0
31.8046 77.0
31.8144 61.0
31.8243 70.0
31.8341 93.0
31.844 74.0
31.8538 79.0
31.8637 86.0
31.8735 78.0
31.8834 68.0
31.8932 72.0
31.9031 92.0
31.9129 76.0
31.9228 64.0
31.9326 78.0
31.9425 79.0
31.9523 76.0
31.9622 91.0
31.972 103.0
31.9819 69.0
31.9917 88.0
32.0015 73.0
32.0114 87.0
32.0212 79.0
32.0311 69.0
32.0409 69.0
32.0508 74.0
32.0606 76.0
32.0705 67.0
32.0803 94.0
32.0902 77.0
32.1 77.0
32.1099 82.0
32.1197 92.0
32.1296 90.0
32.1394 74.0
32.1493 84.0
32.1591 73.0
32.169 98.0
32.1788 67.0
32.1887 82.0
32.1985 79.0
32.2083 98.0
32.2182 90.0
32.228 86.0
32.2379 87.0
32.2477 82.0
32.2576 90.0
32.2674 82.0
32.2773 87.0
32.2871 70.0
32.297 90.0
32.3068 77.0
32.3167 80.0
32.3265 80.0
32.3364 84.0
32.3462 80.0
32.3561 70.0
32.3659 94.0
32.3758 91.0
32.3856 84.0
32.3955 92.0
32.4053 82.0
32.4152 68.0
32.425 85.0
32.4348 81.0
32.4447 90.0
32.4545 69.0
32.4644 82.0
32.4742 84.0
32.4841 80.0
32.4939 72.0
32.5038 88.0
32.5136 65.0
32.5235 68.0
32.5333 58.0
32.5432 84.0
32.553 72.0
32.5629 85.0
32.5727 76.0
32.5826 71.0
32.5924 100.0
32.6023 84.0
32.6121 73.0
32.622 89.0
32.6318 80.0
32.6416 89.0
32.6515 89.0
32.6613 86.0
32.6712 88.0
32.681 76.0
32.6909 85.0
32.7007 81.0
32.7106 85.0
32.7204 83.0
32.7303 84.0
32.7401 89.0
32.75 92.0
32.7598 81.0
32.7697 90.0
32.7795 88.0
32.7894 101.0
32.7992 77.0
32.8091 71.0
32.8189 74.0
32.8288 75.0
32.8386 76.0
32.8485 75.0
32.8583 72.0
32.8681 86.0
32.878 84.0
32.8878 75.0
32.8977 71.0
32.9075 93.0
32.9174 77.0
32.9272 68.0
32.9371 75.0
32.9469 84.0
32.9568 87.0
32.9666 92.0
32.9765 69.0
32.9863 81.0
32.9962 78.0
33.006 85.0
33.0159 88.0
33.0257 88.0
33.0356 82.0
33.0454 95.0
33.0553 92.0
33.0651 83.0
33.0749 90.0
33.0848 94.0
33.0946 79.0
33.1045 73.0
33.1143 84.0
33.1242 80.0
33.134 87.0
33.1439 75.0
33.1537 58.0
33.1636 78.0
33.1734 88.0
33.1833 95.0
33.1931 81.0
33.203 81.0
33.2128 70.0
33.2227 78.0
33.2325 80.0
33.2424 71.0
33.2522 82.0
33.2621 68.0
33.2719 84.0
33.2818 79.0
33.2916 76.0
33.3014 89.0
33.3113 99.0
33.3211 89.0
33.331 81.0
33.3408 90.0
33.3507 77.0
33.3605 74.0
33.3704 96.0
33.3802 84.0
33.3901 74.0
33.3999 89.0
33.4098 97.0
33.4196 85.0
33.4295 89.0
33.4393 89.0
33.4492 85.0
33.459 81.0
33.4689 86.0
33.4787 90.0
33.4886 73.0
33.4984 93.0
33.5082 73.0
33.5181 68.0
33.5279 84.0
33.5378 95.0
33.5476 93.0
33.5575 81.0
33.5673 84.0
33.5772 86.0
33.587 80.0
33.5969 97.0
33.6067 93.0
33.6166 97.0
33.6264 89.0
33.6363 110.0
33.6461 109.0
33.656 84.0
33.6658 113.0
33.6757 90.0
33.6855 102.0
33.6954 73.0
33.7052 97.0
33.715 87.0
33.7249 92.0
33.7347 89.0
33.7446 94.0
33.7544 101.0
33.7643 92.0
33.7741 102.0
33.784 108.0
33.7938 107.0
33.8037 103.0
33.8135 109.0
33.8234 121.0
33.8332 126.0
33.8431 174.0
33.8529 192.0
33.8628 393.0
33.8726 667.0
33.8825 1062.0
33.8923 1265.0
33.9022 1434.0
33.912 1202.0
33.9219 1079.0
33.9317 770.0
33.9415 514.0
33.9514 341.0
33.9612 217.0
33.9711 206.0
33.9809 172.0
33.9908 126.0
34.0006 154.0
34.0105 134.0
34.0203 122.0
34.0302 122.0
34.04 94.0
34.0499 107.0
34.0597 102.0
34.0696 121.0
34.0794 108.0
34.0893 116.0
34.0991 113.0
34.109 102.0
34.1188 109.0
34.1287 127.0
34.1385 110.0
34.1483 95.0
34.1582 108.0
34.168 97.0
34.1779 97.0
34.1877 84.0
34.1976 80.0
34.2074 112.0
34.2173 106.0
34.2271 102.0
34.237 107.0
34.2468 96.0
34.2567 95.0
34.2665 99.0
34.2764 116.0
34.2862 100.0
34.2961 83.0
34.3059 83.0
34.3158 104.0
34.3256 99.0
34.3355 94.0
34.3453 84.0
34.3552 88.0
34.365 90.0
34.3748 91.0
34.3847 85.0
34.3945 113.0
34.4044 109.0
34.4142 98.0
34.4241 106.0
34.4339 103.0
34.4438 97.0
34.4536 82.0
34.4635 105.0
34.4733 93.0
34.4832 102.0
34.493 94.0
34.5029 96.0
34.5127 91.0
34.5226 96.0
34.5324 90.0
34.5423 101.0
34.5521 90.0
34.562 122.0
34.5718 86.0
34.5816 79.0
34.5915 91.0
34.6013 99.0
34.6112 99.0
34.621 89.0
34.6309 96.0
34.6407 96.0
34.6506 95.0
34.6604 99.0
34.6703 118.0
34.6801 92.0
34.69 105.0
34.6998 107.0
34.7097 92.0
34.7195 114.0
34.7294 115.0
34.7392 100.0
34.7491 95.0
34.7589 92.0
34.7688 86.0
34.7786 105.0
34.7884 87.0
34.7983 97.0
34.8081 96.0
34.818 100.0
34.8278 91.0
34.8377 98.0
34.8475 115.0
34.8574 90.0
34.8672 95.0
34.8771 91.0
34.8869 99.0
34.8968 106.0
34.9066 94.0
34.9165 123.0
34.9263 102.0
34.9362 96.0
34.946 110.0
34.9559 111.0
34.9657 96.0
34.9756 109.0
34.9854 112.0
34.9953 101.0
35.0051 111.0
35.0149 101.0
35.0248 104.0
35.0346 107.0
35.0445 114.0
35.0543 119.0
35.0642 101.0
35.074 98.0
35.0839 94.0
35.0937 116.0
35.1036 118.0
35.1134 106.0
35.1233 117.0
35.1331 99.0
35.143 114.0
35.1528 102.0
35.1627 118.0
35.1725 120.0
35.1824 110.0
35.1922 112.0
35.2021 104.0
35.2119 106.0
35.2217 102.0
35.2316 107.0
35.2414 112.0
35.2513 112.0
35.2611 102.0
35.271 100.0
35.2808 117.0
35.2907 105.0
35.3005 102.0
35.3104 107.0
35.3202 111.0
35.3301 114.0
35.3399 85.0
35.3498 111.0
35.3596 109.0
35.3695 111.0
35.3793 117.0
35.3892 99.0
35.399 111.0
35.4089 130.0
35.4187 138.0
35.4286 103.0
35.4384 119.0
35.4482 112.0
35.4581 123.0
35.4679 149.0
35.4778 136.0
35.4876 156.0
35.4975 138.0
35.5073 119.0
35.5172 142.0
35.527 139.0
35.5369 177.0
35.5467 170.0
35.5566 154.0
35.5664 152.0
35.5763 177.0
35.5861 181.0
35.596 189.0
35.6058 184.0
35.6157 223.0
35.6255 208.0
35.6354 216.0
35.6452 217.0
35.655 243.0
35.6649 224.0
35.6747 229.0
35.6846 267.0
35.6944 272.0
35.7043 310.0
35.7141 309.0
35.724 297.0
35.7338 322.0
35.7437 330.0
35.7535 346.0
35.7634 338.0
35.7732 332.0
35.7831 348.0
35.7929 395.0
35.8028 375.0
35.8126 375.0
35.8225 414.0
35.8323 364.0
35.8422 381.0
35.852 407.0
35.8619 469.0
35.8717 432.0
35.8815 482.0
35.8914 461.0
35.9012 448.0
35.9111 463.0
35.9209 485.0
35.9308 499.0
35.9406 547.0
35.9505 553.0
35.9603 533.0
35.9702 532.0
35.98 550.0
35.9899 589.0
35.9997 601.0
36.0096 622.0
36.0194 587.0
36.0293 608.0
36.0391 654.0
36.049 616.0
36.0588 654.0
36.0687 597.0
36.0785 628.0
36.0883 622.0
36.0982 653.0
36.108 653.0
36.1179 629.0
36.1277 690.0
36.1376 642.0
36.1474 681.0
36.1573 628.0
36.1671 618.0
36.177 620.0
36.1868 666.0
36.1967 652.0
36.2065 614.0
36.2164 646.0
36.2262 693.0
36.2361 611.0
36.2459 611.0
36.2558 666.0
36.2656 613.0
36.2755 610.0
36.2853 595.0
36.2951 646.0
36.305 569.0
36.3148 640.0
36.3247 608.0
36.3345 607.0
36.3444 639.0
36.3542 619.0
36.3641 574.0
36.3739 567.0
36.3838 549.0
36.3936 550.0
36.4035 523.0
36.4133 612.0
36.4232 542.0
36.433 542.0
36.4429 536.0
36.4527 448.0
36.4626 504.0
36.4724 515.0
36.4823 457.0
36.4921 496.0
36.502 438.0
36.5118 471.0
36.5216 481.0
36.5315 453.0
36.5413 409.0
36.5512 408.0
36.561 428.0
36.5709 437.0
36.5807 399.0
36.5906 399.0
36.6004 417.0
36.6103 415.0
36.6201 408.0
36.63 373.0
36.6398 377.0
36.6497 379.0
36.6595 366.0
36.6694 382.0
36.6792 381.0
36.6891 345.0
36.6989 343.0
36.7088 395.0
36.7186 339.0
36.7284 335.0
36.7383 333.0
36.7481 332.0
36.758 392.0
36.7678 358.0
36.7777 342.0
36.7875 306.0
36.7974 328.0
36.8072 337.0
36.8171 358.0
36.8269 363.0
36.8368 364.0
36.8466 358.0
36.8565 338.0
36.8663 381.0
36.8762 363.0
36.886 387.0
36.8959 372.0
36.9057 387.0
36.9156 402.0
36.9254 379.0
36.9353 404.0
36.9451 377.0
36.9549 402.0
36.9648 384.0
36.9746 386.0
36.9845 412.0
36.9943 416.0
37.0042 379.0
37.014 439.0
37.0239 458.0
37.0337 414.0
37.0436 497.0
37.0534 495.0
37.0633 472.0
37.0731 483.0
37.083 513.0
37.0928 498.0
37.1027 523.0
37.1125 522.0
37.1224 531.0
37.1322 543.0
37.1421 519.0
37.1519 551.0
37.1617 593.0
37.1716 568.0
37.1814 616.0
37.1913 628.0
37.2011 626.0
37.211 649.0
37.2208 662.0
37.2307 663.0
37.2405 704.0
37.2504 705.0
37.2602 771.0
37.2701 764.0
37.2799 768.0
37.2898 838.0
37.2996 856.0
37.3095 865.0
37.3193 891.0
37.3292 911.0
37.339 949.0
37.3489 966.0
37.3587 1047.0
37.3686 1068.0
37.3784 1065.0
37.3882 1130.0
37.3981 1211.0
37.4079 1221.0
37.4178 1332.0
37.4276 1491.0
37.4375 1927.0
37.4473 2182.0
37.4572 2691.0
37.467 3099.0
37.4769 3578.0
37.4867 3775.0
37.4966 4096.0
37.5064 4145.0
37.5163 4081.0
37.5261 3996.0
37.536 4009.0
37.5458 4300.0
37.5557 4741.0
37.5655 5788.0
37.5754 7325.0
37.5852 9518.0
37.595 13569.0
37.6049 20536.0
37.6147 37515.0
37.6246 89758.0
37.6344 186959.0
37.6443 260559.0
37.6541 286432.0
37.664 285839.0
37.6738 257927.0
37.6837 170708.0
37.6935 78947.0
37.7034 42280.0
37.7132 37030.0
37.7231 60903.0
37.7329 110368.0
37.7428 141795.0
37.7526 150819.0
37.7625 149126.0
37.7723 130216.0
37.7822 77424.0
37.792 34518.0
37.8018 17294.0
37.8117 10923.0
37.8215 7744.0
37.8314 6031.0
37.8412 5120.0
37.8511 4193.0
37.8609 3668.0
37.8708 3292.0
37.8806 2968.0
37.8905 2614.0
37.9003 2366.0
37.9102 2175.0
37.92 2001.0
37.9299 1828.0
37.9397 1715.0
37.9496 1790.0
37.9594 1631.0
37.9693 1497.0
37.9791 1470.0
37.989 1413.0
37.9988 1322.0
38.0087 1261.0
38.0185 1203.0
38.0283 1143.0
38.0382 1120.0
38.048 1125.0
38.0579 1073.0
38.0677 929.0
38.0776 988.0
38.0874 903.0
38.0973 907.0
38.1071 903.0
38.117 892.0
38.1268 855.0
38.1367 789.0
38.1465 757.0
38.1564 768.0
38.1662 736.0
38.1761 715.0
38.1859 707.0
38.1958 697.0
38.2056 614.0
38.2155 603.0
38.2253 604.0
38.2351 577.0
38.245 566.0
38.2548 603.0
38.2647 581.0
38.2745 529.0
38.2844 489.0
38.2942 526.0
38.3041 481.0
38.3139 463.0
38.3238 434.0
38.3336 429.0
38.3435 407.0
38.3533 442.0
38.3632 415.0
38.373 395.0
38.3829 405.0
38.3927 384.0
38.4026 379.0
38.4124 362.0
38.4223 389.0
38.4321 348.0
38.442 352.0
38.4518 327.0
38.4616 308.0
38.4715 326.0
38.4813 309.0
38.4912 325.0
38.501 311.0
38.5109 298.0
38.5207 276.0
38.5306 298.0
38.5404 265.0
38.5503 213.0
38.5601 255.0
38.57 197.0
38.5798 206.0
38.5897 202.0
38.5995 217.0
38.6094 214.0
38.6192 188.0
38.6291 198.0
38.6389 169.0
38.6488 176.0
38.6586 183.0
38.6684 185.0
38.6783 163.0
38.6881 155.0
38.698 162.0
38.7078 180.0
38.7177 170.0
38.7275 156.0
38.7374 160.0
38.7472 137.0
38.7571 161.0
38.7669 130.0
38.7768 153.0
38.7866 150.0
38.7965 167.0
38.8063 160.0
38.8162 126.0
38.826 154.0
38.8359 148.0
38.8457 139.0
38.8556 142.0
38.8654 135.0
38.8753 154.0
38.8851 135.0
38.8949 135.0
38.9048 128.0
38.9146 141.0
38.9245 140.0
38.9343 114.0
38.9442 121.0
38.954 134.0
38.9639 167.0
38.9737 123.0
38.9836 127.0
38.9934 123.0
39.0033 111.0
39.0131 147.0
39.023 127.0
39.0328 131.0
39.0427 118.0
39.0525 136.0
39.0624 129.0
39.0722 117.0
39.0821 117.0
39.0919 135.0
39.1017 113.0
39.1116 114.0
39.1214 113.0
39.1313 115.0
39.1411 114.0
39.151 120.0
39.1608 101.0
39.1707 111.0
39.1805 120.0
39.1904 118.0
39.2002 108.0
39.2101 101.0
39.2199 138.0
39.2298 106.0
39.2396 112.0
39.2495 90.0
39.2593 108.0
39.2692 115.0
39.279 107.0
39.2889 96.0
39.2987 100.0
39.3085 102.0
39.3184 99.0
39.3282 107.0
39.3381 110.0
39.3479 118.0
39.3578 104.0
39.3676 101.0
39.3775 122.0
39.3873 101.0
39.3972 117.0
39.407 96.0
39.4169 107.0
39.4267 121.0
39.4366 97.0
39.4464 98.0
39.4563 94.0
39.4661 105.0
39.476 100.0
39.4858 95.0
39.4957 116.0
39.5055 100.0
39.5154 101.0
39.5252 100.0
39.535 93.0
39.5449 103.0
39.5547 96.0
39.5646 90.0
39.5744 105.0
39.5843 104.0
39.5941 105.0
39.604 110.0
39.6138 101.0
39.6237 93.0
39.6335 105.0
39.6434 105.0
39.6532 111.0
39.6631 111.0
39.6729 104.0
39.6828 91.0
39.6926 100.0
39.7025 97.0
39.7123 101.0
39.7222 109.0
39.732 103.0
39.7418 99.0
39.7517 108.0
39.7615 103.0
39.7714 106.0
39.7812 118.0
39.7911 105.0
39.8009 102.0
39.8108 106.0
39.8206 107.0
39.8305 93.0
39.8403 103.0
39.8502 96.0
39.86 94.0
39.8699 114.0
39.8797 91.0
39.8896 100.0
39.8994 78.0
39.9093 121.0
39.9191 97.0
39.929 89.0
39.9388 83.0
39.9487 92.0
39.9585 90.0
39.9683 99.0
39.9782 86.0
39.988 101.0
39.9979 90.0