File: data/W6774c/XRD_2ThetaOmega/W6774c_absolute_2th-om_10-130deg_PIXscan_17min_12.xy
10.0035 38.0
10.0872 29.0
10.1709 34.0
10.2546 28.0
10.3383 35.0
10.422 29.0
10.5057 39.0
10.5894 24.0
10.6731 30.0
10.7568 23.0
10.8405 41.0
10.9242 44.0
11.0079 22.0
11.0916 29.0
11.1753 28.0
11.259 28.0
11.3428 28.0
11.4265 24.0
11.5102 28.0
11.5939 26.0
11.6776 24.0
11.7613 25.0
11.845 28.0
11.9287 32.0
12.0124 29.0
12.0961 28.0
12.1798 40.0
12.2635 17.0
12.3472 33.0
12.4309 41.0
12.5146 34.0
12.5983 31.0
12.682 21.0
12.7657 24.0
12.8495 33.0
12.9332 22.0
13.0169 24.0
13.1006 13.0
13.1843 36.0
13.268 31.0
13.3517 31.0
13.4354 35.0
13.5191 40.0
13.6028 32.0
13.6865 22.0
13.7702 28.0
13.8539 36.0
13.9376 31.0
14.0213 20.0
14.105 24.0
14.1887 26.0
14.2724 35.0
14.3562 23.0
14.4399 24.0
14.5236 24.0
14.6073 24.0
14.691 25.0
14.7747 11.0
14.8584 24.0
14.9421 19.0
15.0258 27.0
15.1095 20.0
15.1932 16.0
15.2769 21.0
15.3606 21.0
15.4443 26.0
15.528 28.0
15.6117 19.0
15.6954 24.0
15.7791 31.0
15.8629 24.0
15.9466 18.0
16.0303 28.0
16.114 28.0
16.1977 27.0
16.2814 34.0
16.3651 21.0
16.4488 18.0
16.5325 32.0
16.6162 28.0
16.6999 19.0
16.7836 22.0
16.8673 13.0
16.951 24.0
17.0347 19.0
17.1184 22.0
17.2021 25.0
17.2858 16.0
17.3696 26.0
17.4533 17.0
17.537 28.0
17.6207 25.0
17.7044 20.0
17.7881 23.0
17.8718 21.0
17.9555 21.0
18.0392 15.0
18.1229 19.0
18.2066 15.0
18.2903 16.0
18.374 18.0
18.4577 20.0
18.5414 35.0
18.6251 17.0
18.7088 26.0
18.7925 23.0
18.8763 20.0
18.96 24.0
19.0437 16.0
19.1274 29.0
19.2111 25.0
19.2948 18.0
19.3785 23.0
19.4622 19.0
19.5459 21.0
19.6296 18.0
19.7133 14.0
19.797 23.0
19.8807 23.0
19.9644 15.0
20.0481 25.0
20.1318 21.0
20.2155 11.0
20.2992 23.0
20.383 75.0
20.4667 40.0
20.5504 27.0
20.6341 13.0
20.7178 19.0
20.8015 23.0
20.8852 15.0
20.9689 18.0
21.0526 16.0
21.1363 23.0
21.22 25.0
21.3037 15.0
21.3874 18.0
21.4711 11.0
21.5548 19.0
21.6385 11.0
21.7222 15.0
21.8059 17.0
21.8897 14.0
21.9734 21.0
22.0571 23.0
22.1408 25.0
22.2245 22.0
22.3082 17.0
22.3919 16.0
22.4756 16.0
22.5593 14.0
22.643 24.0
22.7267 21.0
22.8104 17.0
22.8941 19.0
22.9778 19.0
23.0615 17.0
23.1452 16.0
23.2289 12.0
23.3126 14.0
23.3964 19.0
23.4801 17.0
23.5638 12.0
23.6475 12.0
23.7312 23.0
23.8149 14.0
23.8986 20.0
23.9823 14.0
24.066 19.0
24.1497 18.0
24.2334 18.0
24.3171 24.0
24.4008 14.0
24.4845 18.0
24.5682 21.0
24.6519 10.0
24.7356 13.0
24.8193 13.0
24.9031 14.0
24.9868 28.0
25.0705 7.0
25.1542 13.0
25.2379 18.0
25.3216 20.0
25.4053 15.0
25.489 14.0
25.5727 18.0
25.6564 12.0
25.7401 16.0
25.8238 17.0
25.9075 19.0
25.9912 13.0
26.0749 17.0
26.1586 15.0
26.2423 15.0
26.326 22.0
26.4098 17.0
26.4935 15.0
26.5772 19.0
26.6609 13.0
26.7446 13.0
26.8283 14.0
26.912 19.0
26.9957 16.0
27.0794 14.0
27.1631 8.0
27.2468 12.0
27.3305 14.0
27.4142 11.0
27.4979 17.0
27.5816 14.0
27.6653 15.0
27.749 14.0
27.8327 18.0
27.9165 11.0
28.0002 15.0
28.0839 11.0
28.1676 13.0
28.2513 12.0
28.335 14.0
28.4187 14.0
28.5024 10.0
28.5861 14.0
28.6698 13.0
28.7535 16.0
28.8372 8.0
28.9209 11.0
29.0046 22.0
29.0883 18.0
29.172 17.0
29.2557 14.0
29.3394 11.0
29.4232 22.0
29.5069 22.0
29.5906 18.0
29.6743 21.0
29.758 17.0
29.8417 14.0
29.9254 18.0
30.0091 10.0
30.0928 12.0
30.1765 11.0
30.2602 11.0
30.3439 14.0
30.4276 13.0
30.5113 14.0
30.595 10.0
30.6787 12.0
30.7624 13.0
30.8461 15.0
30.9298 8.0
31.0136 15.0
31.0973 14.0
31.181 12.0
31.2647 16.0
31.3484 14.0
31.4321 9.0
31.5158 6.0
31.5995 16.0
31.6832 15.0
31.7669 16.0
31.8506 12.0
31.9343 16.0
32.018 12.0
32.1017 25.0
32.1854 12.0
32.2691 15.0
32.3528 18.0
32.4365 15.0
32.5203 16.0
32.604 7.0
32.6877 9.0
32.7714 12.0
32.8551 20.0
32.9388 13.0
33.0225 13.0
33.1062 7.0
33.1899 15.0
33.2736 18.0
33.3573 13.0
33.441 18.0
33.5247 11.0
33.6084 9.0
33.6921 12.0
33.7758 13.0
33.8595 8.0
33.9432 14.0
34.027 20.0
34.1107 17.0
34.1944 15.0
34.2781 14.0
34.3618 6.0
34.4455 15.0
34.5292 10.0
34.6129 13.0
34.6966 14.0
34.7803 13.0
34.864 19.0
34.9477 16.0
35.0314 16.0
35.1151 13.0
35.1988 9.0
35.2825 14.0
35.3662 10.0
35.4499 17.0
35.5337 19.0
35.6174 13.0
35.7011 17.0
35.7848 14.0
35.8685 16.0
35.9522 8.0
36.0359 13.0
36.1196 18.0
36.2033 13.0
36.287 16.0
36.3707 12.0
36.4544 24.0
36.5381 11.0
36.6218 11.0
36.7055 13.0
36.7892 13.0
36.8729 19.0
36.9566 10.0
37.0404 18.0
37.1241 18.0
37.2078 17.0
37.2915 15.0
37.3752 23.0
37.4589 19.0
37.5426 14.0
37.6263 23.0
37.71 16.0
37.7937 27.0
37.8774 13.0
37.9611 33.0
38.0448 23.0
38.1285 46.0
38.2122 50.0
38.2959 23.0
38.3796 30.0
38.4633 23.0
38.5471 19.0
38.6308 29.0
38.7145 32.0
38.7982 50.0
38.8819 49.0
38.9656 67.0
39.0493 131.0
39.133 342.0
39.2167 615.0
39.3004 697.0
39.3841 537.0
39.4678 396.0
39.5515 212.0
39.6352 117.0
39.7189 66.0
39.8026 83.0
39.8863 36.0
39.97 27.0
40.0538 30.0
40.1375 28.0
40.2212 29.0
40.3049 21.0
40.3886 14.0
40.4723 11.0
40.556 14.0
40.6397 11.0
40.7234 13.0
40.8071 17.0
40.8908 21.0
40.9745 20.0
41.0582 24.0
41.1419 23.0
41.2256 32.0
41.3093 43.0
41.393 68.0
41.4767 102.0
41.5605 2566.0
41.6442 841.0
41.7279 2110.0
41.8116 99.0
41.8953 54.0
41.979 32.0
42.0627 23.0
42.1464 29.0
42.2301 28.0
42.3138 25.0
42.3975 14.0
42.4812 20.0
42.5649 11.0
42.6486 17.0
42.7323 19.0
42.816 18.0
42.8997 8.0
42.9834 18.0
43.0672 14.0
43.1509 23.0
43.2346 17.0
43.3183 15.0
43.402 19.0
43.4857 21.0
43.5694 18.0
43.6531 19.0
43.7368 19.0
43.8205 24.0
43.9042 16.0
43.9879 14.0
44.0716 16.0
44.1553 27.0
44.239 31.0
44.3227 29.0
44.4064 39.0
44.4901 31.0
44.5739 17.0
44.6576 20.0
44.7413 25.0
44.825 19.0
44.9087 12.0
44.9924 18.0
45.0761 13.0
45.1598 15.0
45.2435 14.0
45.3272 16.0
45.4109 7.0
45.4946 17.0
45.5783 12.0
45.662 11.0
45.7457 8.0
45.8294 14.0
45.9131 18.0
45.9968 16.0
46.0806 14.0
46.1643 9.0
46.248 12.0
46.3317 17.0
46.4154 17.0
46.4991 20.0
46.5828 14.0
46.6665 14.0
46.7502 14.0
46.8339 18.0
46.9176 10.0
47.0013 13.0
47.085 12.0
47.1687 13.0
47.2524 22.0
47.3361 9.0
47.4198 13.0
47.5035 20.0
47.5873 7.0
47.671 9.0
47.7547 6.0
47.8384 18.0
47.9221 20.0
48.0058 10.0
48.0895 14.0
48.1732 12.0
48.2569 11.0
48.3406 18.0
48.4243 12.0
48.508 9.0
48.5917 19.0
48.6754 10.0
48.7591 11.0
48.8428 7.0
48.9265 18.0
49.0102 14.0
49.094 11.0
49.1777 17.0
49.2614 13.0
49.3451 16.0
49.4288 7.0
49.5125 16.0
49.5962 15.0
49.6799 22.0
49.7636 16.0
49.8473 12.0
49.931 7.0
50.0147 18.0
50.0984 10.0
50.1821 15.0
50.2658 23.0
50.3495 12.0
50.4332 14.0
50.5169 13.0
50.6007 15.0
50.6844 22.0
50.7681 18.0
50.8518 11.0
50.9355 13.0
51.0192 23.0
51.1029 16.0
51.1866 11.0
51.2703 17.0
51.354 8.0
51.4377 18.0
51.5214 16.0
51.6051 24.0
51.6888 12.0
51.7725 8.0
51.8562 13.0
51.9399 21.0
52.0236 8.0
52.1074 10.0
52.1911 10.0
52.2748 13.0
52.3585 18.0
52.4422 10.0
52.5259 12.0
52.6096 17.0
52.6933 10.0
52.777 15.0
52.8607 10.0
52.9444 26.0
53.0281 13.0
53.1118 17.0
53.1955 10.0
53.2792 14.0
53.3629 18.0
53.4466 16.0
53.5303 12.0
53.6141 15.0
53.6978 14.0
53.7815 13.0
53.8652 14.0
53.9489 13.0
54.0326 16.0
54.1163 15.0
54.2 10.0
54.2837 5.0
54.3674 16.0
54.4511 4.0
54.5348 13.0
54.6185 16.0
54.7022 18.0
54.7859 16.0
54.8696 13.0
54.9533 8.0
55.037 15.0
55.1208 22.0
55.2045 9.0
55.2882 17.0
55.3719 10.0
55.4556 8.0
55.5393 10.0
55.623 15.0
55.7067 12.0
55.7904 8.0
55.8741 13.0
55.9578 15.0
56.0415 15.0
56.1252 8.0
56.2089 21.0
56.2926 17.0
56.3763 13.0
56.46 10.0
56.5437 10.0
56.6275 17.0
56.7112 10.0
56.7949 8.0
56.8786 17.0
56.9623 11.0
57.046 14.0
57.1297 7.0
57.2134 19.0
57.2971 14.0
57.3808 12.0
57.4645 11.0
57.5482 14.0
57.6319 12.0
57.7156 19.0
57.7993 11.0
57.883 10.0
57.9667 19.0
58.0504 13.0
58.1342 13.0
58.2179 8.0
58.3016 19.0
58.3853 9.0
58.469 12.0
58.5527 18.0
58.6364 14.0
58.7201 17.0
58.8038 12.0
58.8875 14.0
58.9712 12.0
59.0549 11.0
59.1386 14.0
59.2223 22.0
59.306 13.0
59.3897 9.0
59.4734 19.0
59.5571 14.0
59.6409 13.0
59.7246 14.0
59.8083 9.0
59.892 7.0
59.9757 14.0
60.0594 14.0
60.1431 12.0
60.2268 16.0
60.3105 13.0
60.3942 7.0
60.4779 11.0
60.5616 15.0
60.6453 17.0
60.729 14.0
60.8127 18.0
60.8964 9.0
60.9801 11.0
61.0638 7.0
61.1476 14.0
61.2313 18.0
61.315 11.0
61.3987 15.0
61.4824 16.0
61.5661 12.0
61.6498 15.0
61.7335 19.0
61.8172 11.0
61.9009 11.0
61.9846 10.0
62.0683 7.0
62.152 17.0
62.2357 5.0
62.3194 13.0
62.4031 12.0
62.4868 10.0
62.5705 20.0
62.6543 12.0
62.738 12.0
62.8217 14.0
62.9054 10.0
62.9891 13.0
63.0728 22.0
63.1565 7.0
63.2402 16.0
63.3239 12.0
63.4076 9.0
63.4913 19.0
63.575 8.0
63.6587 14.0
63.7424 16.0
63.8261 22.0
63.9098 17.0
63.9935 13.0
64.0772 13.0
64.161 9.0
64.2447 17.0
64.3284 17.0
64.4121 15.0
64.4958 11.0
64.5795 17.0
64.6632 19.0
64.7469 11.0
64.8306 14.0
64.9143 10.0
64.998 10.0
65.0817 21.0
65.1654 19.0
65.2491 12.0
65.3328 10.0
65.4165 18.0
65.5002 21.0
65.5839 11.0
65.6677 5.0
65.7514 15.0
65.8351 22.0
65.9188 11.0
66.0025 11.0
66.0862 16.0
66.1699 11.0
66.2536 15.0
66.3373 9.0
66.421 12.0
66.5047 11.0
66.5884 9.0
66.6721 13.0
66.7558 8.0
66.8395 13.0
66.9232 12.0
67.0069 15.0
67.0906 17.0
67.1744 11.0
67.2581 6.0
67.3418 11.0
67.4255 18.0
67.5092 13.0
67.5929 17.0
67.6766 15.0
67.7603 14.0
67.844 9.0
67.9277 14.0
68.0114 23.0
68.0951 12.0
68.1788 11.0
68.2625 14.0
68.3462 23.0
68.4299 14.0
68.5136 15.0
68.5973 13.0
68.6811 16.0
68.7648 16.0
68.8485 15.0
68.9322 15.0
69.0159 11.0
69.0996 16.0
69.1833 14.0
69.267 10.0
69.3507 10.0
69.4344 7.0
69.5181 12.0
69.6018 25.0
69.6855 8.0
69.7692 13.0
69.8529 17.0
69.9366 23.0
70.0203 17.0
70.104 14.0
70.1878 19.0
70.2715 10.0
70.3552 13.0
70.4389 18.0
70.5226 17.0
70.6063 23.0
70.69 6.0
70.7737 14.0
70.8574 17.0
70.9411 16.0
71.0248 21.0
71.1085 9.0
71.1922 15.0
71.2759 19.0
71.3596 14.0
71.4433 15.0
71.527 15.0
71.6107 15.0
71.6945 15.0
71.7782 12.0
71.8619 12.0
71.9456 14.0
72.0293 15.0
72.113 18.0
72.1967 17.0
72.2804 12.0
72.3641 15.0
72.4478 9.0
72.5315 17.0
72.6152 25.0
72.6989 12.0
72.7826 12.0
72.8663 12.0
72.95 19.0
73.0337 24.0
73.1174 15.0
73.2012 17.0
73.2849 16.0
73.3686 16.0
73.4523 11.0
73.536 11.0
73.6197 15.0
73.7034 17.0
73.7871 13.0
73.8708 26.0
73.9545 19.0
74.0382 11.0
74.1219 13.0
74.2056 6.0
74.2893 18.0
74.373 12.0
74.4567 13.0
74.5404 15.0
74.6241 22.0
74.7079 11.0
74.7916 12.0
74.8753 21.0
74.959 11.0
75.0427 16.0
75.1264 14.0
75.2101 22.0
75.2938 16.0
75.3775 11.0
75.4612 12.0
75.5449 7.0
75.6286 9.0
75.7123 15.0
75.796 11.0
75.8797 7.0
75.9634 15.0
76.0471 12.0
76.1308 19.0
76.2146 32.0
76.2983 17.0
76.382 13.0
76.4657 19.0
76.5494 14.0
76.6331 19.0
76.7168 9.0
76.8005 16.0
76.8842 15.0
76.9679 18.0
77.0516 9.0
77.1353 22.0
77.219 16.0
77.3027 14.0
77.3864 10.0
77.4701 10.0
77.5538 14.0
77.6375 15.0
77.7213 17.0
77.805 15.0
77.8887 10.0
77.9724 19.0
78.0561 16.0
78.1398 12.0
78.2235 16.0
78.3072 14.0
78.3909 16.0
78.4746 12.0
78.5583 13.0
78.642 9.0
78.7257 16.0
78.8094 12.0
78.8931 19.0
78.9768 17.0
79.0605 17.0
79.1442 9.0
79.228 12.0
79.3117 18.0
79.3954 16.0
79.4791 16.0
79.5628 18.0
79.6465 13.0
79.7302 16.0
79.8139 11.0
79.8976 28.0
79.9813 30.0
80.065 24.0
80.1487 15.0
80.2324 12.0
80.3161 12.0
80.3998 16.0
80.4835 17.0
80.5672 15.0
80.6509 13.0
80.7347 14.0
80.8184 14.0
80.9021 16.0
80.9858 8.0
81.0695 18.0
81.1532 13.0
81.2369 12.0
81.3206 24.0
81.4043 13.0
81.488 12.0
81.5717 15.0
81.6554 14.0
81.7391 17.0
81.8228 10.0
81.9065 17.0
81.9902 20.0
82.0739 16.0
82.1576 23.0
82.2414 19.0
82.3251 8.0
82.4088 24.0
82.4925 19.0
82.5762 16.0
82.6599 16.0
82.7436 13.0
82.8273 17.0
82.911 7.0
82.9947 15.0
83.0784 19.0
83.1621 17.0
83.2458 14.0
83.3295 17.0
83.4132 13.0
83.4969 13.0
83.5806 23.0
83.6643 19.0
83.7481 23.0
83.8318 16.0
83.9155 16.0
83.9992 24.0
84.0829 36.0
84.1666 45.0
84.2503 60.0
84.334 73.0
84.4177 115.0
84.5014 104.0
84.5851 135.0
84.6688 102.0
84.7525 111.0
84.8362 105.0
84.9199 97.0
85.0036 80.0
85.0873 63.0
85.171 53.0
85.2548 47.0
85.3385 46.0
85.4222 34.0
85.5059 30.0
85.5896 24.0
85.6733 21.0
85.757 19.0
85.8407 39.0
85.9244 53.0
86.0081 29.0
86.0918 21.0
86.1755 13.0
86.2592 13.0
86.3429 19.0
86.4266 12.0
86.5103 23.0
86.594 17.0
86.6777 19.0
86.7615 19.0
86.8452 7.0
86.9289 12.0
87.0126 21.0
87.0963 16.0
87.18 11.0
87.2637 16.0
87.3474 22.0
87.4311 22.0
87.5148 14.0
87.5985 16.0
87.6822 15.0
87.7659 14.0
87.8496 22.0
87.9333 18.0
88.017 20.0
88.1007 24.0
88.1844 14.0
88.2682 21.0
88.3519 10.0
88.4356 24.0
88.5193 23.0
88.603 12.0
88.6867 20.0
88.7704 23.0
88.8541 15.0
88.9378 24.0
89.0215 19.0
89.1052 16.0
89.1889 19.0
89.2726 22.0
89.3563 30.0
89.44 26.0
89.5237 22.0
89.6074 23.0
89.6911 28.0
89.7749 23.0
89.8586 23.0
89.9423 32.0
90.026 39.0
90.1097 41.0
90.1934 57.0
90.2771 62.0
90.3608 53.0
90.4445 122.0
90.5282 280.0
90.6119 2231.0
90.6956 3546.0
90.7793 411.0
90.863 446.0
90.9467 3662.0
91.0304 528.0
91.1141 126.0
91.1978 72.0
91.2816 64.0
91.3653 51.0
91.449 38.0
91.5327 34.0
91.6164 30.0
91.7001 24.0
91.7838 32.0
91.8675 30.0
91.9512 33.0
92.0349 22.0
92.1186 27.0
92.2023 14.0
92.286 23.0
92.3697 27.0
92.4534 29.0
92.5371 25.0
92.6208 19.0
92.7045 21.0
92.7883 23.0
92.872 18.0
92.9557 21.0
93.0394 22.0
93.1231 19.0
93.2068 21.0
93.2905 23.0
93.3742 24.0
93.4579 9.0
93.5416 22.0
93.6253 23.0
93.709 20.0
93.7927 21.0
93.8764 14.0
93.9601 12.0
94.0438 11.0
94.1275 14.0
94.2112 19.0
94.295 14.0
94.3787 16.0
94.4624 21.0
94.5461 21.0
94.6298 24.0
94.7135 18.0
94.7972 25.0
94.8809 19.0
94.9646 10.0
95.0483 19.0
95.132 19.0
95.2157 17.0
95.2994 18.0
95.3831 17.0
95.4668 9.0
95.5505 15.0
95.6342 12.0
95.7179 23.0
95.8017 11.0
95.8854 14.0
95.9691 21.0
96.0528 19.0
96.1365 10.0
96.2202 13.0
96.3039 12.0
96.3876 15.0
96.4713 17.0
96.555 16.0
96.6387 9.0
96.7224 12.0
96.8061 9.0
96.8898 18.0
96.9735 13.0
97.0572 14.0
97.1409 17.0
97.2246 16.0
97.3084 10.0
97.3921 17.0
97.4758 14.0
97.5595 10.0
97.6432 17.0
97.7269 21.0
97.8106 7.0
97.8943 13.0
97.978 18.0
98.0617 13.0
98.1454 15.0
98.2291 16.0
98.3128 25.0
98.3965 16.0
98.4802 16.0
98.5639 24.0
98.6476 22.0
98.7313 11.0
98.8151 15.0
98.8988 12.0
98.9825 20.0
99.0662 17.0
99.1499 14.0
99.2336 19.0
99.3173 14.0
99.401 21.0
99.4847 14.0
99.5684 14.0
99.6521 10.0
99.7358 14.0
99.8195 11.0
99.9032 24.0
99.9869 16.0
100.071 19.0
100.154 15.0
100.238 10.0
100.322 11.0
100.405 14.0
100.489 12.0
100.573 11.0
100.657 15.0
100.74 12.0
100.824 14.0
100.908 12.0
100.991 13.0
101.075 12.0
101.159 16.0
101.243 16.0
101.326 20.0
101.41 17.0
101.494 14.0
101.577 14.0
101.661 14.0
101.745 16.0
101.828 10.0
101.912 14.0
101.996 14.0
102.08 24.0
102.163 12.0
102.247 11.0
102.331 16.0
102.414 19.0
102.498 15.0
102.582 16.0
102.666 16.0
102.749 20.0
102.833 19.0
102.917 9.0
103 12.0
103.084 8.0
103.168 17.0
103.251 10.0
103.335 11.0
103.419 14.0
103.503 14.0
103.586 15.0
103.67 23.0
103.754 7.0
103.837 19.0
103.921 22.0
104.005 14.0
104.089 17.0
104.172 21.0
104.256 21.0
104.34 14.0
104.423 22.0
104.507 11.0
104.591 14.0
104.674 13.0
104.758 18.0
104.842 11.0
104.926 16.0
105.009 14.0
105.093 10.0
105.177 12.0
105.26 10.0
105.344 13.0
105.428 17.0
105.511 11.0
105.595 18.0
105.679 8.0
105.763 16.0
105.846 18.0
105.93 14.0
106.014 16.0
106.097 9.0
106.181 16.0
106.265 17.0
106.349 15.0
106.432 8.0
106.516 21.0
106.6 19.0
106.683 17.0
106.767 19.0
106.851 16.0
106.934 10.0
107.018 15.0
107.102 12.0
107.186 18.0
107.269 21.0
107.353 7.0
107.437 21.0
107.52 17.0
107.604 13.0
107.688 16.0
107.772 10.0
107.855 19.0
107.939 23.0
108.023 12.0
108.106 16.0
108.19 25.0
108.274 17.0
108.357 17.0
108.441 13.0
108.525 19.0
108.609 13.0
108.692 24.0
108.776 12.0
108.86 15.0
108.943 18.0
109.027 16.0
109.111 12.0
109.195 15.0
109.278 13.0
109.362 17.0
109.446 11.0
109.529 17.0
109.613 16.0
109.697 15.0
109.78 10.0
109.864 14.0
109.948 20.0
110.032 17.0
110.115 14.0
110.199 15.0
110.283 19.0
110.366 20.0
110.45 17.0
110.534 17.0
110.618 17.0
110.701 12.0
110.785 8.0
110.869 8.0
110.952 19.0
111.036 13.0
111.12 10.0
111.203 19.0
111.287 19.0
111.371 16.0
111.455 14.0
111.538 20.0
111.622 14.0
111.706 10.0
111.789 16.0
111.873 16.0
111.957 22.0
112.041 11.0
112.124 22.0
112.208 16.0
112.292 19.0
112.375 24.0
112.459 21.0
112.543 15.0
112.626 15.0
112.71 10.0
112.794 10.0
112.878 15.0
112.961 15.0
113.045 16.0
113.129 10.0
113.212 17.0
113.296 16.0
113.38 17.0
113.464 23.0
113.547 14.0
113.631 17.0
113.715 13.0
113.798 17.0
113.882 16.0
113.966 13.0
114.049 19.0
114.133 11.0
114.217 19.0
114.301 10.0
114.384 17.0
114.468 17.0
114.552 14.0
114.635 17.0
114.719 9.0
114.803 10.0
114.887 5.0
114.97 13.0
115.054 23.0
115.138 13.0
115.221 9.0
115.305 14.0
115.389 12.0
115.472 11.0
115.556 12.0
115.64 17.0
115.724 15.0
115.807 12.0
115.891 18.0
115.975 14.0
116.058 20.0
116.142 21.0
116.226 14.0
116.31 13.0
116.393 16.0
116.477 23.0
116.561 10.0
116.644 19.0
116.728 14.0
116.812 19.0
116.895 9.0
116.979 15.0
117.063 19.0
117.147 22.0
117.23 14.0
117.314 20.0
117.398 12.0
117.481 16.0
117.565 13.0
117.649 20.0
117.733 15.0
117.816 21.0
117.9 19.0
117.984 19.0
118.067 18.0
118.151 9.0
118.235 8.0
118.318 16.0
118.402 10.0
118.486 13.0
118.57 22.0
118.653 18.0
118.737 16.0
118.821 7.0
118.904 20.0
118.988 17.0
119.072 18.0
119.156 10.0
119.239 17.0
119.323 10.0
119.407 26.0
119.49 22.0
119.574 13.0
119.658 12.0
119.741 15.0
119.825 23.0
119.909 16.0
119.993 17.0
120.076 15.0
120.16 18.0
120.244 14.0
120.327 13.0
120.411 12.0
120.495 13.0
120.578 8.0
120.662 18.0
120.746 16.0
120.83 17.0
120.913 16.0
120.997 16.0
121.081 12.0
121.164 11.0
121.248 24.0
121.332 24.0
121.416 18.0
121.499 17.0
121.583 9.0
121.667 16.0
121.75 9.0
121.834 13.0
121.918 17.0
122.001 18.0
122.085 12.0
122.169 11.0
122.253 9.0
122.336 16.0
122.42 19.0
122.504 16.0
122.587 17.0
122.671 24.0
122.755 17.0
122.839 17.0
122.922 12.0
123.006 11.0
123.09 26.0
123.173 15.0
123.257 14.0
123.341 13.0
123.424 19.0
123.508 14.0
123.592 16.0
123.676 12.0
123.759 15.0
123.843 14.0
123.927 9.0
124.01 20.0
124.094 22.0
124.178 15.0
124.262 12.0
124.345 15.0
124.429 12.0
124.513 10.0
124.596 19.0
124.68 13.0
124.764 8.0
124.847 13.0
124.931 13.0
125.015 21.0
125.099 25.0
125.182 25.0
125.266 21.0
125.35 11.0
125.433 19.0
125.517 9.0
125.601 14.0
125.685 17.0
125.768 25.0
125.852 17.0
125.936 17.0
126.019 14.0
126.103 14.0
126.187 12.0
126.27 21.0
126.354 10.0
126.438 18.0
126.522 13.0
126.605 16.0
126.689 8.0
126.773 18.0
126.856 18.0
126.94 19.0
127.024 11.0
127.108 19.0
127.191 12.0
127.275 12.0
127.359 12.0
127.442 9.0
127.526 14.0
127.61 13.0
127.693 11.0
127.777 15.0
127.861 15.0
127.945 15.0
128.028 16.0
128.112 14.0
128.196 15.0
128.279 19.0
128.363 23.0
128.447 17.0
128.531 13.0
128.614 16.0
128.698 9.0
128.782 19.0
128.865 15.0
128.949 18.0
129.033 25.0
129.116 14.0
129.2 18.0
129.284 14.0
129.368 21.0
129.451 13.0
129.535 13.0
129.619 14.0
129.702 21.0
129.786 13.0
129.87 20.0
129.954 24.0
129.998 24.0