File: data/w6928a/XRD_2ThetaOmega/scan_2th-om_a_Cr2O3_30-40deg_PIXscan_4min_C1.xy
30.0025 47.0
30.0123 52.0
30.0222 45.0
30.032 41.0
30.0419 45.0
30.0517 48.0
30.0615 43.0
30.0714 43.0
30.0812 45.0
30.0911 43.0
30.1009 44.0
30.1108 40.0
30.1206 40.0
30.1305 48.0
30.1403 48.0
30.1502 32.0
30.16 43.0
30.1699 56.0
30.1797 53.0
30.1896 48.0
30.1994 43.0
30.2093 50.0
30.2191 49.0
30.229 45.0
30.2388 56.0
30.2487 57.0
30.2585 51.0
30.2684 55.0
30.2782 56.0
30.288 44.0
30.2979 54.0
30.3077 51.0
30.3176 50.0
30.3274 53.0
30.3373 44.0
30.3471 56.0
30.357 30.0
30.3668 40.0
30.3767 46.0
30.3865 49.0
30.3964 53.0
30.4062 39.0
30.4161 60.0
30.4259 49.0
30.4358 42.0
30.4456 63.0
30.4555 39.0
30.4653 36.0
30.4752 30.0
30.485 54.0
30.4948 39.0
30.5047 58.0
30.5145 59.0
30.5244 45.0
30.5342 56.0
30.5441 47.0
30.5539 49.0
30.5638 42.0
30.5736 36.0
30.5835 44.0
30.5933 57.0
30.6032 50.0
30.613 50.0
30.6229 46.0
30.6327 49.0
30.6426 49.0
30.6524 41.0
30.6623 49.0
30.6721 48.0
30.682 38.0
30.6918 43.0
30.7016 41.0
30.7115 42.0
30.7213 43.0
30.7312 41.0
30.741 46.0
30.7509 30.0
30.7607 45.0
30.7706 30.0
30.7804 63.0
30.7903 54.0
30.8001 44.0
30.81 40.0
30.8198 41.0
30.8297 51.0
30.8395 48.0
30.8494 51.0
30.8592 41.0
30.8691 43.0
30.8789 51.0
30.8888 43.0
30.8986 46.0
30.9085 43.0
30.9183 42.0
30.9281 62.0
30.938 45.0
30.9478 63.0
30.9577 44.0
30.9675 46.0
30.9774 45.0
30.9872 51.0
30.9971 42.0
31.0069 49.0
31.0168 51.0
31.0266 39.0
31.0365 47.0
31.0463 50.0
31.0562 47.0
31.066 50.0
31.0759 51.0
31.0857 40.0
31.0956 39.0
31.1054 48.0
31.1153 53.0
31.1251 38.0
31.1349 51.0
31.1448 39.0
31.1546 60.0
31.1645 37.0
31.1743 40.0
31.1842 48.0
31.194 44.0
31.2039 35.0
31.2137 53.0
31.2236 52.0
31.2334 50.0
31.2433 36.0
31.2531 51.0
31.263 51.0
31.2728 48.0
31.2827 50.0
31.2925 48.0
31.3024 51.0
31.3122 48.0
31.3221 50.0
31.3319 41.0
31.3418 55.0
31.3516 45.0
31.3614 34.0
31.3713 45.0
31.3811 56.0
31.391 44.0
31.4008 45.0
31.4107 54.0
31.4205 57.0
31.4304 53.0
31.4402 55.0
31.4501 41.0
31.4599 57.0
31.4698 58.0
31.4796 58.0
31.4895 55.0
31.4993 45.0
31.5092 46.0
31.519 40.0
31.5289 54.0
31.5387 45.0
31.5486 61.0
31.5584 52.0
31.5682 44.0
31.5781 41.0
31.5879 53.0
31.5978 44.0
31.6076 61.0
31.6175 46.0
31.6273 44.0
31.6372 39.0
31.647 42.0
31.6569 45.0
31.6667 44.0
31.6766 43.0
31.6864 66.0
31.6963 47.0
31.7061 46.0
31.716 64.0
31.7258 48.0
31.7357 61.0
31.7455 45.0
31.7554 57.0
31.7652 46.0
31.7751 46.0
31.7849 43.0
31.7947 48.0
31.8046 64.0
31.8144 52.0
31.8243 47.0
31.8341 45.0
31.844 42.0
31.8538 42.0
31.8637 46.0
31.8735 47.0
31.8834 46.0
31.8932 55.0
31.9031 31.0
31.9129 51.0
31.9228 52.0
31.9326 53.0
31.9425 40.0
31.9523 60.0
31.9622 48.0
31.972 52.0
31.9819 51.0
31.9917 59.0
32.0015 51.0
32.0114 48.0
32.0212 54.0
32.0311 58.0
32.0409 50.0
32.0508 54.0
32.0606 50.0
32.0705 51.0
32.0803 66.0
32.0902 54.0
32.1 52.0
32.1099 46.0
32.1197 63.0
32.1296 69.0
32.1394 65.0
32.1493 56.0
32.1591 69.0
32.169 103.0
32.1788 97.0
32.1887 104.0
32.1985 128.0
32.2083 120.0
32.2182 132.0
32.228 125.0
32.2379 148.0
32.2477 114.0
32.2576 103.0
32.2674 103.0
32.2773 109.0
32.2871 78.0
32.297 73.0
32.3068 73.0
32.3167 58.0
32.3265 66.0
32.3364 55.0
32.3462 71.0
32.3561 47.0
32.3659 54.0
32.3758 67.0
32.3856 47.0
32.3955 70.0
32.4053 63.0
32.4152 58.0
32.425 67.0
32.4348 45.0
32.4447 56.0
32.4545 51.0
32.4644 55.0
32.4742 57.0
32.4841 54.0
32.4939 40.0
32.5038 52.0
32.5136 47.0
32.5235 40.0
32.5333 49.0
32.5432 36.0
32.553 50.0
32.5629 51.0
32.5727 47.0
32.5826 44.0
32.5924 47.0
32.6023 52.0
32.6121 59.0
32.622 53.0
32.6318 52.0
32.6416 43.0
32.6515 51.0
32.6613 50.0
32.6712 43.0
32.681 52.0
32.6909 52.0
32.7007 52.0
32.7106 60.0
32.7204 51.0
32.7303 48.0
32.7401 47.0
32.75 54.0
32.7598 47.0
32.7697 48.0
32.7795 57.0
32.7894 41.0
32.7992 55.0
32.8091 53.0
32.8189 58.0
32.8288 36.0
32.8386 63.0
32.8485 55.0
32.8583 59.0
32.8681 42.0
32.878 56.0
32.8878 52.0
32.8977 47.0
32.9075 56.0
32.9174 50.0
32.9272 43.0
32.9371 47.0
32.9469 55.0
32.9568 47.0
32.9666 56.0
32.9765 51.0
32.9863 46.0
32.9962 44.0
33.006 42.0
33.0159 53.0
33.0257 44.0
33.0356 59.0
33.0454 52.0
33.0553 47.0
33.0651 43.0
33.0749 43.0
33.0848 57.0
33.0946 52.0
33.1045 52.0
33.1143 55.0
33.1242 44.0
33.134 58.0
33.1439 54.0
33.1537 43.0
33.1636 56.0
33.1734 58.0
33.1833 44.0
33.1931 51.0
33.203 50.0
33.2128 43.0
33.2227 63.0
33.2325 58.0
33.2424 56.0
33.2522 49.0
33.2621 51.0
33.2719 47.0
33.2818 45.0
33.2916 39.0
33.3014 37.0
33.3113 41.0
33.3211 50.0
33.331 57.0
33.3408 45.0
33.3507 51.0
33.3605 45.0
33.3704 44.0
33.3802 51.0
33.3901 39.0
33.3999 53.0
33.4098 39.0
33.4196 51.0
33.4295 50.0
33.4393 56.0
33.4492 35.0
33.459 41.0
33.4689 41.0
33.4787 56.0
33.4886 53.0
33.4984 43.0
33.5082 48.0
33.5181 53.0
33.5279 56.0
33.5378 46.0
33.5476 61.0
33.5575 52.0
33.5673 56.0
33.5772 54.0
33.587 66.0
33.5969 58.0
33.6067 54.0
33.6166 55.0
33.6264 53.0
33.6363 49.0
33.6461 55.0
33.656 43.0
33.6658 71.0
33.6757 72.0
33.6855 65.0
33.6954 51.0
33.7052 74.0
33.715 52.0
33.7249 56.0
33.7347 60.0
33.7446 67.0
33.7544 57.0
33.7643 52.0
33.7741 64.0
33.784 77.0
33.7938 58.0
33.8037 64.0
33.8135 60.0
33.8234 56.0
33.8332 59.0
33.8431 72.0
33.8529 66.0
33.8628 64.0
33.8726 77.0
33.8825 74.0
33.8923 75.0
33.9022 89.0
33.912 142.0
33.9219 164.0
33.9317 399.0
33.9415 638.0
33.9514 772.0
33.9612 633.0
33.9711 418.0
33.9809 269.0
33.9908 148.0
34.0006 119.0
34.0105 105.0
34.0203 78.0
34.0302 74.0
34.04 75.0
34.0499 73.0
34.0597 77.0
34.0696 63.0
34.0794 74.0
34.0893 66.0
34.0991 59.0
34.109 66.0
34.1188 67.0
34.1287 53.0
34.1385 69.0
34.1483 57.0
34.1582 69.0
34.168 60.0
34.1779 71.0
34.1877 74.0
34.1976 57.0
34.2074 57.0
34.2173 79.0
34.2271 77.0
34.237 62.0
34.2468 76.0
34.2567 68.0
34.2665 58.0
34.2764 57.0
34.2862 57.0
34.2961 77.0
34.3059 73.0
34.3158 66.0
34.3256 73.0
34.3355 65.0
34.3453 68.0
34.3552 71.0
34.365 53.0
34.3748 44.0
34.3847 53.0
34.3945 57.0
34.4044 61.0
34.4142 57.0
34.4241 61.0
34.4339 75.0
34.4438 59.0
34.4536 65.0
34.4635 62.0
34.4733 85.0
34.4832 79.0
34.493 56.0
34.5029 73.0
34.5127 65.0
34.5226 77.0
34.5324 71.0
34.5423 80.0
34.5521 65.0
34.562 66.0
34.5718 77.0
34.5816 81.0
34.5915 76.0
34.6013 73.0
34.6112 79.0
34.621 79.0
34.6309 82.0
34.6407 90.0
34.6506 85.0
34.6604 75.0
34.6703 64.0
34.6801 96.0
34.69 83.0
34.6998 76.0
34.7097 86.0
34.7195 75.0
34.7294 76.0
34.7392 74.0
34.7491 78.0
34.7589 76.0
34.7688 91.0
34.7786 94.0
34.7884 80.0
34.7983 97.0
34.8081 98.0
34.818 66.0
34.8278 100.0
34.8377 93.0
34.8475 81.0
34.8574 103.0
34.8672 89.0
34.8771 120.0
34.8869 100.0
34.8968 88.0
34.9066 99.0
34.9165 99.0
34.9263 108.0
34.9362 108.0
34.946 113.0
34.9559 98.0
34.9657 145.0
34.9756 122.0
34.9854 101.0
34.9953 119.0
35.0051 111.0
35.0149 114.0
35.0248 122.0
35.0346 129.0
35.0445 125.0
35.0543 132.0
35.0642 133.0
35.074 140.0
35.0839 150.0
35.0937 148.0
35.1036 145.0
35.1134 135.0
35.1233 145.0
35.1331 165.0
35.143 139.0
35.1528 166.0
35.1627 187.0
35.1725 131.0
35.1824 136.0
35.1922 156.0
35.2021 196.0
35.2119 148.0
35.2217 169.0
35.2316 178.0
35.2414 188.0
35.2513 192.0
35.2611 222.0
35.271 193.0
35.2808 188.0
35.2907 211.0
35.3005 216.0
35.3104 209.0
35.3202 202.0
35.3301 215.0
35.3399 274.0
35.3498 276.0
35.3596 233.0
35.3695 233.0
35.3793 255.0
35.3892 295.0
35.399 322.0
35.4089 320.0
35.4187 321.0
35.4286 356.0
35.4384 354.0
35.4482 378.0
35.4581 360.0
35.4679 447.0
35.4778 465.0
35.4876 470.0
35.4975 476.0
35.5073 549.0
35.5172 626.0
35.527 649.0
35.5369 700.0
35.5467 760.0
35.5566 855.0
35.5664 949.0
35.5763 1050.0
35.5861 1112.0
35.596 1264.0
35.6058 1430.0
35.6157 1586.0
35.6255 1842.0
35.6354 2135.0
35.6452 2370.0
35.655 2742.0
35.6649 3232.0
35.6747 3822.0
35.6846 4626.0
35.6944 5844.0
35.7043 7132.0
35.7141 9046.0
35.724 11419.0
35.7338 14521.0
35.7437 17991.0
35.7535 20975.0
35.7634 23888.0
35.7732 25210.0
35.7831 25629.0
35.7929 24557.0
35.8028 22555.0
35.8126 20952.0
35.8225 19191.0
35.8323 18463.0
35.8422 18385.0
35.852 18249.0
35.8619 17666.0
35.8717 16749.0
35.8815 15497.0
35.8914 13734.0
35.9012 12044.0
35.9111 9934.0
35.9209 8275.0
35.9308 7067.0
35.9406 5955.0
35.9505 5075.0
35.9603 4334.0
35.9702 3790.0
35.98 3215.0
35.9899 2956.0
35.9997 2477.0
36.0096 2276.0
36.0194 2035.0
36.0293 1735.0
36.0391 1616.0
36.049 1526.0
36.0588 1343.0
36.0687 1208.0
36.0785 1108.0
36.0883 1118.0
36.0982 1039.0
36.108 997.0
36.1179 889.0
36.1277 768.0
36.1376 827.0
36.1474 718.0
36.1573 640.0
36.1671 640.0
36.177 593.0
36.1868 566.0
36.1967 536.0
36.2065 514.0
36.2164 432.0
36.2262 482.0
36.2361 422.0
36.2459 436.0
36.2558 396.0
36.2656 390.0
36.2755 344.0
36.2853 387.0
36.2951 354.0
36.305 304.0
36.3148 335.0
36.3247 319.0
36.3345 327.0
36.3444 304.0
36.3542 274.0
36.3641 289.0
36.3739 270.0
36.3838 239.0
36.3936 274.0
36.4035 259.0
36.4133 257.0
36.4232 211.0
36.433 222.0
36.4429 228.0
36.4527 190.0
36.4626 198.0
36.4724 197.0
36.4823 189.0
36.4921 195.0
36.502 178.0
36.5118 213.0
36.5216 183.0
36.5315 187.0
36.5413 194.0
36.5512 186.0
36.561 163.0
36.5709 177.0
36.5807 160.0
36.5906 169.0
36.6004 161.0
36.6103 174.0
36.6201 153.0
36.63 165.0
36.6398 179.0
36.6497 153.0
36.6595 169.0
36.6694 172.0
36.6792 152.0
36.6891 139.0
36.6989 161.0
36.7088 149.0
36.7186 176.0
36.7284 159.0
36.7383 164.0
36.7481 167.0
36.758 176.0
36.7678 170.0
36.7777 181.0
36.7875 165.0
36.7974 161.0
36.8072 177.0
36.8171 174.0
36.8269 172.0
36.8368 184.0
36.8466 160.0
36.8565 147.0
36.8663 171.0
36.8762 188.0
36.886 163.0
36.8959 182.0
36.9057 185.0
36.9156 205.0
36.9254 151.0
36.9353 197.0
36.9451 178.0
36.9549 198.0
36.9648 192.0
36.9746 207.0
36.9845 210.0
36.9943 197.0
37.0042 206.0
37.014 190.0
37.0239 210.0
37.0337 267.0
37.0436 209.0
37.0534 209.0
37.0633 215.0
37.0731 198.0
37.083 214.0
37.0928 212.0
37.1027 295.0
37.1125 265.0
37.1224 276.0
37.1322 291.0
37.1421 303.0
37.1519 286.0
37.1617 325.0
37.1716 282.0
37.1814 293.0
37.1913 302.0
37.2011 301.0
37.211 334.0
37.2208 331.0
37.2307 312.0
37.2405 350.0
37.2504 345.0
37.2602 328.0
37.2701 350.0
37.2799 346.0
37.2898 387.0
37.2996 432.0
37.3095 422.0
37.3193 431.0
37.3292 454.0
37.339 400.0
37.3489 473.0
37.3587 443.0
37.3686 469.0
37.3784 538.0
37.3882 508.0
37.3981 542.0
37.4079 574.0
37.4178 553.0
37.4276 616.0
37.4375 635.0
37.4473 667.0
37.4572 685.0
37.467 758.0
37.4769 893.0
37.4867 925.0
37.4966 1113.0
37.5064 1463.0
37.5163 1666.0
37.5261 2073.0
37.536 2283.0
37.5458 2380.0
37.5557 2305.0
37.5655 2337.0
37.5754 2191.0
37.5852 2273.0
37.595 2360.0
37.6049 2618.0
37.6147 3016.0
37.6246 3512.0
37.6344 4591.0
37.6443 6179.0
37.6541 8722.0
37.664 13292.0
37.6738 23963.0
37.6837 58768.0
37.6935 157956.0
37.7034 227197.0
37.7132 221409.0
37.7231 136249.0
37.7329 55677.0
37.7428 25674.0
37.7526 16180.0
37.7625 14383.0
37.7723 18778.0
37.7822 38140.0
37.792 84885.0
37.8018 115579.0
37.8117 107609.0
37.8215 66407.0
37.8314 28246.0
37.8412 13362.0
37.8511 7489.0
37.8609 5189.0
37.8708 3914.0
37.8806 3169.0
37.8905 2630.0
37.9003 2242.0
37.9102 1947.0
37.92 1656.0
37.9299 1565.0
37.9397 1310.0
37.9496 1295.0
37.9594 1190.0
37.9693 1036.0
37.9791 977.0
37.989 898.0
37.9988 802.0
38.0087 797.0
38.0185 743.0
38.0283 719.0
38.0382 643.0
38.048 648.0
38.0579 600.0
38.0677 597.0
38.0776 546.0
38.0874 534.0
38.0973 496.0
38.1071 471.0
38.117 508.0
38.1268 454.0
38.1367 446.0
38.1465 414.0
38.1564 438.0
38.1662 380.0
38.1761 400.0
38.1859 352.0
38.1958 374.0
38.2056 365.0
38.2155 378.0
38.2253 323.0
38.2351 294.0
38.245 321.0
38.2548 287.0
38.2647 208.0
38.2745 277.0
38.2844 293.0
38.2942 271.0
38.3041 257.0
38.3139 190.0
38.3238 186.0
38.3336 194.0
38.3435 201.0
38.3533 164.0
38.3632 171.0
38.373 179.0
38.3829 158.0
38.3927 163.0
38.4026 131.0
38.4124 152.0
38.4223 139.0
38.4321 147.0
38.442 132.0
38.4518 148.0
38.4616 99.0
38.4715 119.0
38.4813 116.0
38.4912 134.0
38.501 129.0
38.5109 119.0
38.5207 120.0
38.5306 119.0
38.5404 111.0
38.5503 113.0
38.5601 115.0
38.57 118.0
38.5798 120.0
38.5897 116.0
38.5995 110.0
38.6094 111.0
38.6192 106.0
38.6291 127.0
38.6389 94.0
38.6488 97.0
38.6586 92.0
38.6684 111.0
38.6783 93.0
38.6881 84.0
38.698 95.0
38.7078 97.0
38.7177 103.0
38.7275 80.0
38.7374 97.0
38.7472 80.0
38.7571 80.0
38.7669 79.0
38.7768 80.0
38.7866 102.0
38.7965 78.0
38.8063 67.0
38.8162 77.0
38.826 78.0
38.8359 83.0
38.8457 74.0
38.8556 76.0
38.8654 88.0
38.8753 81.0
38.8851 82.0
38.8949 75.0
38.9048 69.0
38.9146 85.0
38.9245 76.0
38.9343 56.0
38.9442 67.0
38.954 78.0
38.9639 88.0
38.9737 78.0
38.9836 68.0
38.9934 70.0
39.0033 77.0
39.0131 75.0
39.023 80.0
39.0328 67.0
39.0427 72.0
39.0525 67.0
39.0624 72.0
39.0722 64.0
39.0821 64.0
39.0919 84.0
39.1017 60.0
39.1116 71.0
39.1214 60.0
39.1313 65.0
39.1411 81.0
39.151 76.0
39.1608 60.0
39.1707 69.0
39.1805 76.0
39.1904 68.0
39.2002 57.0
39.2101 71.0
39.2199 60.0
39.2298 59.0
39.2396 68.0
39.2495 61.0
39.2593 56.0
39.2692 61.0
39.279 55.0
39.2889 68.0
39.2987 66.0
39.3085 60.0
39.3184 49.0
39.3282 65.0
39.3381 49.0
39.3479 65.0
39.3578 52.0
39.3676 62.0
39.3775 72.0
39.3873 59.0
39.3972 69.0
39.407 54.0
39.4169 67.0
39.4267 39.0
39.4366 62.0
39.4464 70.0
39.4563 59.0
39.4661 57.0
39.476 49.0
39.4858 48.0
39.4957 56.0
39.5055 60.0
39.5154 70.0
39.5252 68.0
39.535 43.0
39.5449 54.0
39.5547 51.0
39.5646 63.0
39.5744 54.0
39.5843 54.0
39.5941 48.0
39.604 66.0
39.6138 68.0
39.6237 58.0
39.6335 61.0
39.6434 61.0
39.6532 43.0
39.6631 58.0
39.6729 61.0
39.6828 55.0
39.6926 52.0
39.7025 61.0
39.7123 56.0
39.7222 63.0
39.732 55.0
39.7418 59.0
39.7517 49.0
39.7615 71.0
39.7714 63.0
39.7812 56.0
39.7911 61.0
39.8009 61.0
39.8108 41.0
39.8206 50.0
39.8305 61.0
39.8403 32.0
39.8502 46.0
39.86 53.0
39.8699 68.0
39.8797 59.0
39.8896 56.0
39.8994 55.0
39.9093 64.0
39.9191 62.0
39.929 62.0
39.9388 55.0
39.9487 60.0
39.9585 68.0
39.9683 65.0
39.9782 56.0
39.988 58.0
39.9979 57.0