File: data/w6930c/XRD_2ThetaOmega/scan_2th-om_c_Cr2O3_35-45deg_PIXscan_4min_C3.xy
35.0021 62.0
35.0119 44.0
35.0218 54.0
35.0316 52.0
35.0415 50.0
35.0513 58.0
35.0611 63.0
35.071 46.0
35.0808 53.0
35.0907 42.0
35.1005 58.0
35.1104 45.0
35.1202 58.0
35.1301 54.0
35.1399 57.0
35.1498 55.0
35.1596 59.0
35.1695 67.0
35.1793 61.0
35.1892 41.0
35.199 59.0
35.2089 65.0
35.2187 49.0
35.2286 70.0
35.2384 56.0
35.2483 53.0
35.2581 55.0
35.268 55.0
35.2778 53.0
35.2876 59.0
35.2975 57.0
35.3073 48.0
35.3172 59.0
35.327 68.0
35.3369 67.0
35.3467 65.0
35.3566 72.0
35.3664 47.0
35.3763 57.0
35.3861 57.0
35.396 57.0
35.4058 59.0
35.4157 67.0
35.4255 62.0
35.4354 54.0
35.4452 44.0
35.4551 74.0
35.4649 51.0
35.4748 63.0
35.4846 71.0
35.4944 71.0
35.5043 61.0
35.5141 52.0
35.524 63.0
35.5338 68.0
35.5437 58.0
35.5535 60.0
35.5634 54.0
35.5732 72.0
35.5831 63.0
35.5929 41.0
35.6028 66.0
35.6126 60.0
35.6225 64.0
35.6323 67.0
35.6422 56.0
35.652 52.0
35.6619 58.0
35.6717 57.0
35.6816 60.0
35.6914 66.0
35.7012 50.0
35.7111 65.0
35.7209 39.0
35.7308 46.0
35.7406 56.0
35.7505 56.0
35.7603 54.0
35.7702 50.0
35.78 54.0
35.7899 57.0
35.7997 40.0
35.8096 70.0
35.8194 51.0
35.8293 53.0
35.8391 61.0
35.849 53.0
35.8588 52.0
35.8687 49.0
35.8785 70.0
35.8884 60.0
35.8982 69.0
35.9081 50.0
35.9179 56.0
35.9277 45.0
35.9376 53.0
35.9474 52.0
35.9573 51.0
35.9671 44.0
35.977 68.0
35.9868 63.0
35.9967 64.0
36.0065 50.0
36.0164 44.0
36.0262 59.0
36.0361 48.0
36.0459 54.0
36.0558 59.0
36.0656 51.0
36.0755 70.0
36.0853 44.0
36.0952 61.0
36.105 71.0
36.1149 62.0
36.1247 48.0
36.1345 56.0
36.1444 60.0
36.1542 55.0
36.1641 51.0
36.1739 33.0
36.1838 64.0
36.1936 75.0
36.2035 53.0
36.2133 58.0
36.2232 62.0
36.233 62.0
36.2429 53.0
36.2527 55.0
36.2626 62.0
36.2724 62.0
36.2823 53.0
36.2921 53.0
36.302 49.0
36.3118 46.0
36.3217 49.0
36.3315 56.0
36.3414 64.0
36.3512 66.0
36.361 60.0
36.3709 45.0
36.3807 60.0
36.3906 52.0
36.4004 58.0
36.4103 62.0
36.4201 70.0
36.43 56.0
36.4398 64.0
36.4497 60.0
36.4595 65.0
36.4694 51.0
36.4792 67.0
36.4891 50.0
36.4989 59.0
36.5088 45.0
36.5186 60.0
36.5285 50.0
36.5383 61.0
36.5482 49.0
36.558 41.0
36.5678 51.0
36.5777 56.0
36.5875 48.0
36.5974 61.0
36.6072 66.0
36.6171 84.0
36.6269 56.0
36.6368 55.0
36.6466 54.0
36.6565 56.0
36.6663 58.0
36.6762 47.0
36.686 59.0
36.6959 61.0
36.7057 62.0
36.7156 55.0
36.7254 48.0
36.7353 62.0
36.7451 59.0
36.755 49.0
36.7648 62.0
36.7747 61.0
36.7845 56.0
36.7943 40.0
36.8042 57.0
36.814 59.0
36.8239 52.0
36.8337 49.0
36.8436 53.0
36.8534 45.0
36.8633 65.0
36.8731 70.0
36.883 41.0
36.8928 75.0
36.9027 55.0
36.9125 58.0
36.9224 66.0
36.9322 49.0
36.9421 69.0
36.9519 50.0
36.9618 57.0
36.9716 50.0
36.9815 57.0
36.9913 69.0
37.0011 55.0
37.011 61.0
37.0208 68.0
37.0307 48.0
37.0405 54.0
37.0504 51.0
37.0602 50.0
37.0701 56.0
37.0799 66.0
37.0898 53.0
37.0996 60.0
37.1095 57.0
37.1193 61.0
37.1292 54.0
37.139 55.0
37.1489 78.0
37.1587 67.0
37.1686 54.0
37.1784 65.0
37.1883 52.0
37.1981 53.0
37.2079 42.0
37.2178 58.0
37.2276 70.0
37.2375 59.0
37.2473 54.0
37.2572 58.0
37.267 56.0
37.2769 60.0
37.2867 65.0
37.2966 65.0
37.3064 45.0
37.3163 61.0
37.3261 49.0
37.336 39.0
37.3458 72.0
37.3557 49.0
37.3655 51.0
37.3754 63.0
37.3852 69.0
37.3951 80.0
37.4049 88.0
37.4148 114.0
37.4246 145.0
37.4344 153.0
37.4443 172.0
37.4541 129.0
37.464 95.0
37.4738 91.0
37.4837 89.0
37.4935 68.0
37.5034 85.0
37.5132 69.0
37.5231 62.0
37.5329 56.0
37.5428 72.0
37.5526 62.0
37.5625 62.0
37.5723 58.0
37.5822 67.0
37.592 57.0
37.6019 59.0
37.6117 53.0
37.6216 75.0
37.6314 48.0
37.6412 56.0
37.6511 58.0
37.6609 61.0
37.6708 54.0
37.6806 64.0
37.6905 63.0
37.7003 68.0
37.7102 54.0
37.72 54.0
37.7299 56.0
37.7397 55.0
37.7496 53.0
37.7594 68.0
37.7693 59.0
37.7791 63.0
37.789 55.0
37.7988 48.0
37.8087 61.0
37.8185 59.0
37.8284 68.0
37.8382 48.0
37.8481 49.0
37.8579 52.0
37.8677 58.0
37.8776 45.0
37.8874 70.0
37.8973 62.0
37.9071 55.0
37.917 68.0
37.9268 65.0
37.9367 76.0
37.9465 54.0
37.9564 56.0
37.9662 67.0
37.9761 66.0
37.9859 68.0
37.9958 73.0
38.0056 68.0
38.0155 67.0
38.0253 72.0
38.0352 57.0
38.045 56.0
38.0549 71.0
38.0647 71.0
38.0745 71.0
38.0844 64.0
38.0942 59.0
38.1041 57.0
38.1139 60.0
38.1238 51.0
38.1336 66.0
38.1435 71.0
38.1533 57.0
38.1632 58.0
38.173 57.0
38.1829 70.0
38.1927 50.0
38.2026 69.0
38.2124 72.0
38.2223 50.0
38.2321 75.0
38.242 71.0
38.2518 71.0
38.2617 75.0
38.2715 67.0
38.2814 73.0
38.2912 65.0
38.301 61.0
38.3109 57.0
38.3207 65.0
38.3306 67.0
38.3404 73.0
38.3503 61.0
38.3601 64.0
38.37 79.0
38.3798 66.0
38.3897 63.0
38.3995 93.0
38.4094 70.0
38.4192 64.0
38.4291 83.0
38.4389 58.0
38.4488 67.0
38.4586 59.0
38.4685 66.0
38.4783 61.0
38.4882 64.0
38.498 62.0
38.5078 78.0
38.5177 67.0
38.5275 73.0
38.5374 75.0
38.5472 59.0
38.5571 75.0
38.5669 87.0
38.5768 63.0
38.5866 81.0
38.5965 56.0
38.6063 73.0
38.6162 59.0
38.626 63.0
38.6359 72.0
38.6457 83.0
38.6556 74.0
38.6654 66.0
38.6753 59.0
38.6851 54.0
38.695 75.0
38.7048 70.0
38.7146 74.0
38.7245 73.0
38.7343 59.0
38.7442 81.0
38.754 75.0
38.7639 91.0
38.7737 55.0
38.7836 63.0
38.7934 68.0
38.8033 76.0
38.8131 89.0
38.823 82.0
38.8328 80.0
38.8427 80.0
38.8525 104.0
38.8624 74.0
38.8722 83.0
38.8821 84.0
38.8919 84.0
38.9018 88.0
38.9116 82.0
38.9215 62.0
38.9313 89.0
38.9411 92.0
38.951 101.0
38.9608 75.0
38.9707 97.0
38.9805 92.0
38.9904 87.0
39.0002 95.0
39.0101 110.0
39.0199 92.0
39.0298 121.0
39.0396 135.0
39.0495 115.0
39.0593 123.0
39.0692 139.0
39.079 144.0
39.0889 149.0
39.0987 147.0
39.1086 168.0
39.1184 161.0
39.1283 194.0
39.1381 249.0
39.1479 202.0
39.1578 237.0
39.1676 277.0
39.1775 262.0
39.1873 370.0
39.1972 365.0
39.207 488.0
39.2169 550.0
39.2267 652.0
39.2366 817.0
39.2464 969.0
39.2563 1200.0
39.2661 1441.0
39.276 1630.0
39.2858 1894.0
39.2957 2047.0
39.3055 2242.0
39.3154 2415.0
39.3252 2496.0
39.3351 2728.0
39.3449 2638.0
39.3548 2643.0
39.3646 2655.0
39.3744 2647.0
39.3843 2569.0
39.3941 2578.0
39.404 2485.0
39.4138 2440.0
39.4237 2376.0
39.4335 2454.0
39.4434 2217.0
39.4532 2132.0
39.4631 1958.0
39.4729 1862.0
39.4828 1731.0
39.4926 1659.0
39.5025 1498.0
39.5123 1395.0
39.5222 1365.0
39.532 1255.0
39.5419 1137.0
39.5517 1098.0
39.5616 1023.0
39.5714 893.0
39.5812 890.0
39.5911 838.0
39.6009 806.0
39.6108 710.0
39.6206 729.0
39.6305 669.0
39.6403 646.0
39.6502 577.0
39.66 540.0
39.6699 519.0
39.6797 433.0
39.6896 433.0
39.6994 443.0
39.7093 417.0
39.7191 414.0
39.729 355.0
39.7388 334.0
39.7487 367.0
39.7585 308.0
39.7684 284.0
39.7782 280.0
39.788 226.0
39.7979 271.0
39.8077 232.0
39.8176 222.0
39.8274 200.0
39.8373 201.0
39.8471 201.0
39.857 183.0
39.8668 169.0
39.8767 139.0
39.8865 178.0
39.8964 146.0
39.9062 132.0
39.9161 142.0
39.9259 141.0
39.9358 123.0
39.9456 133.0
39.9555 118.0
39.9653 120.0
39.9752 122.0
39.985 122.0
39.9949 126.0
40.0047 120.0
40.0145 109.0
40.0244 98.0
40.0342 118.0
40.0441 107.0
40.0539 111.0
40.0638 90.0
40.0736 96.0
40.0835 95.0
40.0933 91.0
40.1032 86.0
40.113 80.0
40.1229 80.0
40.1327 84.0
40.1426 97.0
40.1524 77.0
40.1623 90.0
40.1721 97.0
40.182 90.0
40.1918 77.0
40.2017 60.0
40.2115 74.0
40.2213 86.0
40.2312 88.0
40.241 79.0
40.2509 73.0
40.2607 90.0
40.2706 84.0
40.2804 85.0
40.2903 80.0
40.3001 86.0
40.31 82.0
40.3198 75.0
40.3297 80.0
40.3395 74.0
40.3494 65.0
40.3592 74.0
40.3691 71.0
40.3789 83.0
40.3888 68.0
40.3986 77.0
40.4085 83.0
40.4183 84.0
40.4282 65.0
40.438 69.0
40.4478 71.0
40.4577 72.0
40.4675 67.0
40.4774 57.0
40.4872 78.0
40.4971 57.0
40.5069 76.0
40.5168 76.0
40.5266 57.0
40.5365 70.0
40.5463 72.0
40.5562 87.0
40.566 85.0
40.5759 68.0
40.5857 72.0
40.5956 76.0
40.6054 91.0
40.6153 76.0
40.6251 72.0
40.635 93.0
40.6448 75.0
40.6546 68.0
40.6645 80.0
40.6743 87.0
40.6842 79.0
40.694 74.0
40.7039 88.0
40.7137 73.0
40.7236 92.0
40.7334 94.0
40.7433 86.0
40.7531 71.0
40.763 68.0
40.7728 89.0
40.7827 82.0
40.7925 76.0
40.8024 70.0
40.8122 83.0
40.8221 88.0
40.8319 84.0
40.8418 80.0
40.8516 84.0
40.8615 74.0
40.8713 75.0
40.8811 79.0
40.891 94.0
40.9008 89.0
40.9107 63.0
40.9205 91.0
40.9304 90.0
40.9402 95.0
40.9501 94.0
40.9599 109.0
40.9698 95.0
40.9796 90.0
40.9895 85.0
40.9993 94.0
41.0092 97.0
41.019 106.0
41.0289 96.0
41.0387 81.0
41.0486 99.0
41.0584 88.0
41.0683 103.0
41.0781 87.0
41.0879 94.0
41.0978 88.0
41.1076 95.0
41.1175 116.0
41.1273 98.0
41.1372 96.0
41.147 92.0
41.1569 102.0
41.1667 113.0
41.1766 100.0
41.1864 106.0
41.1963 124.0
41.2061 108.0
41.216 131.0
41.2258 134.0
41.2357 124.0
41.2455 139.0
41.2554 118.0
41.2652 129.0
41.2751 146.0
41.2849 119.0
41.2947 151.0
41.3046 149.0
41.3144 161.0
41.3243 160.0
41.3341 154.0
41.344 184.0
41.3538 177.0
41.3637 184.0
41.3735 194.0
41.3834 205.0
41.3932 357.0
41.4031 394.0
41.4129 433.0
41.4228 485.0
41.4326 477.0
41.4425 447.0
41.4523 461.0
41.4622 437.0
41.472 435.0
41.4819 436.0
41.4917 524.0
41.5016 497.0
41.5114 597.0
41.5212 700.0
41.5311 836.0
41.5409 1105.0
41.5508 1513.0
41.5606 2101.0
41.5705 3426.0
41.5803 6656.0
41.5902 16885.0
41.6 36921.0
41.6099 46625.0
41.6197 41757.0
41.6296 23932.0
41.6394 10328.0
41.6493 5047.0
41.6591 3119.0
41.669 2434.0
41.6788 2929.0
41.6887 4249.0
41.6985 9308.0
41.7084 17968.0
41.7182 22523.0
41.728 20199.0
41.7379 12333.0
41.7477 5601.0
41.7576 2757.0
41.7674 1586.0
41.7773 1109.0
41.7871 786.0
41.797 648.0
41.8068 594.0
41.8167 454.0
41.8265 416.0
41.8364 387.0
41.8462 359.0
41.8561 341.0
41.8659 294.0
41.8758 297.0
41.8856 264.0
41.8955 256.0
41.9053 186.0
41.9152 178.0
41.925 183.0
41.9349 154.0
41.9447 173.0
41.9545 147.0
41.9644 164.0
41.9742 159.0
41.9841 138.0
41.9939 154.0
42.0038 159.0
42.0136 145.0
42.0235 143.0
42.0333 128.0
42.0432 142.0
42.053 123.0
42.0629 119.0
42.0727 111.0
42.0826 124.0
42.0924 134.0
42.1023 122.0
42.1121 122.0
42.122 124.0
42.1318 106.0
42.1417 91.0
42.1515 107.0
42.1613 106.0
42.1712 80.0
42.181 84.0
42.1909 108.0
42.2007 95.0
42.2106 90.0
42.2204 79.0
42.2303 88.0
42.2401 67.0
42.25 88.0
42.2598 82.0
42.2697 84.0
42.2795 85.0
42.2894 89.0
42.2992 81.0
42.3091 81.0
42.3189 70.0
42.3288 74.0
42.3386 75.0
42.3485 69.0
42.3583 66.0
42.3682 77.0
42.378 77.0
42.3878 70.0
42.3977 66.0
42.4075 83.0
42.4174 66.0
42.4272 67.0
42.4371 85.0
42.4469 78.0
42.4568 82.0
42.4666 65.0
42.4765 84.0
42.4863 70.0
42.4962 60.0
42.506 59.0
42.5159 72.0
42.5257 71.0
42.5356 86.0
42.5454 88.0
42.5553 65.0
42.5651 66.0
42.575 57.0
42.5848 82.0
42.5946 80.0
42.6045 58.0
42.6143 70.0
42.6242 72.0
42.634 68.0
42.6439 74.0
42.6537 70.0
42.6636 49.0
42.6734 65.0
42.6833 81.0
42.6931 74.0
42.703 52.0
42.7128 61.0
42.7227 73.0
42.7325 57.0
42.7424 47.0
42.7522 58.0
42.7621 72.0
42.7719 53.0
42.7818 53.0
42.7916 67.0
42.8014 61.0
42.8113 57.0
42.8211 61.0
42.831 63.0
42.8408 57.0
42.8507 59.0
42.8605 63.0
42.8704 69.0
42.8802 64.0
42.8901 48.0
42.8999 71.0
42.9098 66.0
42.9196 58.0
42.9295 58.0
42.9393 65.0
42.9492 59.0
42.959 63.0
42.9689 73.0
42.9787 60.0
42.9886 57.0
42.9984 53.0
43.0083 73.0
43.0181 53.0
43.0279 68.0
43.0378 68.0
43.0476 71.0
43.0575 70.0
43.0673 53.0
43.0772 68.0
43.087 73.0
43.0969 56.0
43.1067 60.0
43.1166 57.0
43.1264 39.0
43.1363 58.0
43.1461 62.0
43.156 67.0
43.1658 55.0
43.1757 55.0
43.1855 46.0
43.1954 57.0
43.2052 67.0
43.2151 56.0
43.2249 62.0
43.2347 68.0
43.2446 58.0
43.2544 66.0
43.2643 68.0
43.2741 62.0
43.284 66.0
43.2938 74.0
43.3037 70.0
43.3135 73.0
43.3234 59.0
43.3332 49.0
43.3431 53.0
43.3529 65.0
43.3628 67.0
43.3726 50.0
43.3825 39.0
43.3923 65.0
43.4022 61.0
43.412 50.0
43.4219 74.0
43.4317 74.0
43.4416 56.0
43.4514 56.0
43.4612 63.0
43.4711 71.0
43.4809 55.0
43.4908 67.0
43.5006 62.0
43.5105 70.0
43.5203 69.0
43.5302 72.0
43.54 48.0
43.5499 84.0
43.5597 57.0
43.5696 52.0
43.5794 60.0
43.5893 48.0
43.5991 69.0
43.609 52.0
43.6188 65.0
43.6287 64.0
43.6385 63.0
43.6484 54.0
43.6582 71.0
43.668 65.0
43.6779 67.0
43.6877 62.0
43.6976 81.0
43.7074 70.0
43.7173 56.0
43.7271 64.0
43.737 50.0
43.7468 65.0
43.7567 72.0
43.7665 51.0
43.7764 68.0
43.7862 74.0
43.7961 73.0
43.8059 75.0
43.8158 79.0
43.8256 69.0
43.8355 67.0
43.8453 70.0
43.8552 60.0
43.865 60.0
43.8749 72.0
43.8847 62.0
43.8945 73.0
43.9044 60.0
43.9142 83.0
43.9241 74.0
43.9339 72.0
43.9438 66.0
43.9536 60.0
43.9635 57.0
43.9733 78.0
43.9832 67.0
43.993 77.0
44.0029 83.0
44.0127 75.0
44.0226 70.0
44.0324 83.0
44.0423 62.0
44.0521 82.0
44.062 79.0
44.0718 81.0
44.0817 71.0
44.0915 67.0
44.1013 90.0
44.1112 68.0
44.121 89.0
44.1309 93.0
44.1407 88.0
44.1506 82.0
44.1604 91.0
44.1703 74.0
44.1801 90.0
44.19 105.0
44.1998 89.0
44.2097 89.0
44.2195 89.0
44.2294 72.0
44.2392 89.0
44.2491 111.0
44.2589 83.0
44.2688 93.0
44.2786 87.0
44.2885 108.0
44.2983 109.0
44.3081 111.0
44.318 124.0
44.3278 106.0
44.3377 127.0
44.3475 133.0
44.3574 128.0
44.3672 122.0
44.3771 159.0
44.3869 121.0
44.3968 129.0
44.4066 131.0
44.4165 120.0
44.4263 130.0
44.4362 134.0
44.446 126.0
44.4559 122.0
44.4657 118.0
44.4756 117.0
44.4854 128.0
44.4953 122.0
44.5051 123.0
44.515 92.0
44.5248 109.0
44.5346 117.0
44.5445 107.0
44.5543 98.0
44.5642 99.0
44.574 86.0
44.5839 106.0
44.5937 86.0
44.6036 105.0
44.6134 80.0
44.6233 79.0
44.6331 91.0
44.643 78.0
44.6528 64.0
44.6627 80.0
44.6725 82.0
44.6824 64.0
44.6922 67.0
44.7021 87.0
44.7119 75.0
44.7218 60.0
44.7316 75.0
44.7414 81.0
44.7513 72.0
44.7611 70.0
44.771 68.0
44.7808 83.0
44.7907 70.0
44.8005 67.0
44.8104 73.0
44.8202 68.0
44.8301 65.0
44.8399 55.0
44.8498 88.0
44.8596 56.0
44.8695 49.0
44.8793 67.0
44.8892 55.0
44.899 49.0
44.9089 68.0
44.9187 69.0
44.9286 52.0
44.9384 67.0
44.9483 76.0
44.9581 53.0
44.9679 57.0
44.9778 60.0
44.9876 62.0
44.9975 58.0