File: data/W6911a/XRD_2ThetaOmega/w6911a_scan_2th-om_a_Cr2O3_30-40deg_PIXscan_4min_C1.xy
30.0025 94.0
30.0123 115.0
30.0222 110.0
30.032 120.0
30.0419 107.0
30.0517 113.0
30.0615 120.0
30.0714 117.0
30.0812 108.0
30.0911 104.0
30.1009 119.0
30.1108 123.0
30.1206 103.0
30.1305 103.0
30.1403 116.0
30.1502 113.0
30.16 91.0
30.1699 103.0
30.1797 100.0
30.1896 111.0
30.1994 120.0
30.2093 124.0
30.2191 99.0
30.229 111.0
30.2388 108.0
30.2487 101.0
30.2585 112.0
30.2684 116.0
30.2782 113.0
30.288 109.0
30.2979 106.0
30.3077 113.0
30.3176 98.0
30.3274 108.0
30.3373 122.0
30.3471 107.0
30.357 107.0
30.3668 119.0
30.3767 99.0
30.3865 96.0
30.3964 120.0
30.4062 120.0
30.4161 92.0
30.4259 96.0
30.4358 92.0
30.4456 101.0
30.4555 98.0
30.4653 105.0
30.4752 116.0
30.485 93.0
30.4948 105.0
30.5047 110.0
30.5145 104.0
30.5244 103.0
30.5342 101.0
30.5441 129.0
30.5539 119.0
30.5638 103.0
30.5736 80.0
30.5835 108.0
30.5933 110.0
30.6032 105.0
30.613 107.0
30.6229 110.0
30.6327 94.0
30.6426 99.0
30.6524 93.0
30.6623 118.0
30.6721 116.0
30.682 117.0
30.6918 117.0
30.7016 105.0
30.7115 104.0
30.7213 110.0
30.7312 102.0
30.741 103.0
30.7509 116.0
30.7607 110.0
30.7706 116.0
30.7804 108.0
30.7903 116.0
30.8001 114.0
30.81 118.0
30.8198 94.0
30.8297 97.0
30.8395 102.0
30.8494 97.0
30.8592 111.0
30.8691 91.0
30.8789 127.0
30.8888 117.0
30.8986 103.0
30.9085 103.0
30.9183 108.0
30.9281 105.0
30.938 104.0
30.9478 86.0
30.9577 107.0
30.9675 105.0
30.9774 92.0
30.9872 106.0
30.9971 111.0
31.0069 99.0
31.0168 88.0
31.0266 84.0
31.0365 106.0
31.0463 115.0
31.0562 103.0
31.066 106.0
31.0759 110.0
31.0857 111.0
31.0956 102.0
31.1054 101.0
31.1153 102.0
31.1251 125.0
31.1349 102.0
31.1448 105.0
31.1546 101.0
31.1645 102.0
31.1743 109.0
31.1842 111.0
31.194 102.0
31.2039 98.0
31.2137 108.0
31.2236 113.0
31.2334 98.0
31.2433 107.0
31.2531 109.0
31.263 111.0
31.2728 97.0
31.2827 90.0
31.2925 111.0
31.3024 105.0
31.3122 97.0
31.3221 96.0
31.3319 110.0
31.3418 99.0
31.3516 119.0
31.3614 115.0
31.3713 113.0
31.3811 126.0
31.391 103.0
31.4008 88.0
31.4107 98.0
31.4205 103.0
31.4304 106.0
31.4402 116.0
31.4501 108.0
31.4599 126.0
31.4698 103.0
31.4796 110.0
31.4895 123.0
31.4993 114.0
31.5092 101.0
31.519 113.0
31.5289 109.0
31.5387 115.0
31.5486 108.0
31.5584 103.0
31.5682 93.0
31.5781 105.0
31.5879 126.0
31.5978 108.0
31.6076 104.0
31.6175 114.0
31.6273 109.0
31.6372 111.0
31.647 116.0
31.6569 109.0
31.6667 105.0
31.6766 110.0
31.6864 124.0
31.6963 114.0
31.7061 114.0
31.716 98.0
31.7258 93.0
31.7357 113.0
31.7455 114.0
31.7554 99.0
31.7652 102.0
31.7751 105.0
31.7849 108.0
31.7947 97.0
31.8046 121.0
31.8144 113.0
31.8243 116.0
31.8341 96.0
31.844 123.0
31.8538 98.0
31.8637 102.0
31.8735 115.0
31.8834 99.0
31.8932 101.0
31.9031 128.0
31.9129 129.0
31.9228 102.0
31.9326 112.0
31.9425 114.0
31.9523 117.0
31.9622 99.0
31.972 120.0
31.9819 85.0
31.9917 102.0
32.0015 122.0
32.0114 110.0
32.0212 118.0
32.0311 105.0
32.0409 107.0
32.0508 114.0
32.0606 99.0
32.0705 110.0
32.0803 110.0
32.0902 112.0
32.1 124.0
32.1099 110.0
32.1197 111.0
32.1296 114.0
32.1394 115.0
32.1493 92.0
32.1591 104.0
32.169 100.0
32.1788 109.0
32.1887 114.0
32.1985 115.0
32.2083 101.0
32.2182 96.0
32.228 101.0
32.2379 108.0
32.2477 104.0
32.2576 102.0
32.2674 104.0
32.2773 93.0
32.2871 107.0
32.297 89.0
32.3068 116.0
32.3167 101.0
32.3265 114.0
32.3364 99.0
32.3462 91.0
32.3561 86.0
32.3659 97.0
32.3758 116.0
32.3856 115.0
32.3955 110.0
32.4053 106.0
32.4152 125.0
32.425 131.0
32.4348 110.0
32.4447 105.0
32.4545 101.0
32.4644 115.0
32.4742 103.0
32.4841 105.0
32.4939 98.0
32.5038 109.0
32.5136 110.0
32.5235 114.0
32.5333 103.0
32.5432 120.0
32.553 128.0
32.5629 113.0
32.5727 119.0
32.5826 117.0
32.5924 113.0
32.6023 144.0
32.6121 136.0
32.622 133.0
32.6318 153.0
32.6416 124.0
32.6515 130.0
32.6613 105.0
32.6712 122.0
32.681 143.0
32.6909 124.0
32.7007 125.0
32.7106 138.0
32.7204 105.0
32.7303 138.0
32.7401 112.0
32.75 121.0
32.7598 105.0
32.7697 106.0
32.7795 127.0
32.7894 124.0
32.7992 119.0
32.8091 130.0
32.8189 108.0
32.8288 129.0
32.8386 96.0
32.8485 116.0
32.8583 118.0
32.8681 112.0
32.878 108.0
32.8878 115.0
32.8977 116.0
32.9075 123.0
32.9174 88.0
32.9272 109.0
32.9371 137.0
32.9469 99.0
32.9568 122.0
32.9666 107.0
32.9765 96.0
32.9863 115.0
32.9962 113.0
33.006 106.0
33.0159 107.0
33.0257 98.0
33.0356 96.0
33.0454 97.0
33.0553 109.0
33.0651 92.0
33.0749 111.0
33.0848 113.0
33.0946 90.0
33.1045 101.0
33.1143 112.0
33.1242 127.0
33.134 108.0
33.1439 107.0
33.1537 98.0
33.1636 118.0
33.1734 103.0
33.1833 112.0
33.1931 101.0
33.203 93.0
33.2128 106.0
33.2227 115.0
33.2325 111.0
33.2424 112.0
33.2522 101.0
33.2621 97.0
33.2719 111.0
33.2818 109.0
33.2916 120.0
33.3014 117.0
33.3113 95.0
33.3211 95.0
33.331 113.0
33.3408 85.0
33.3507 93.0
33.3605 107.0
33.3704 101.0
33.3802 110.0
33.3901 96.0
33.3999 108.0
33.4098 103.0
33.4196 112.0
33.4295 105.0
33.4393 118.0
33.4492 104.0
33.459 122.0
33.4689 112.0
33.4787 113.0
33.4886 103.0
33.4984 101.0
33.5082 111.0
33.5181 97.0
33.5279 102.0
33.5378 104.0
33.5476 124.0
33.5575 108.0
33.5673 106.0
33.5772 127.0
33.587 98.0
33.5969 108.0
33.6067 121.0
33.6166 110.0
33.6264 111.0
33.6363 89.0
33.6461 120.0
33.656 114.0
33.6658 125.0
33.6757 131.0
33.6855 103.0
33.6954 126.0
33.7052 136.0
33.715 117.0
33.7249 129.0
33.7347 121.0
33.7446 104.0
33.7544 134.0
33.7643 109.0
33.7741 117.0
33.784 115.0
33.7938 126.0
33.8037 136.0
33.8135 131.0
33.8234 130.0
33.8332 135.0
33.8431 124.0
33.8529 138.0
33.8628 144.0
33.8726 158.0
33.8825 161.0
33.8923 184.0
33.9022 221.0
33.912 298.0
33.9219 544.0
33.9317 837.0
33.9415 1115.0
33.9514 1241.0
33.9612 1232.0
33.9711 1124.0
33.9809 971.0
33.9908 683.0
34.0006 403.0
34.0105 326.0
34.0203 264.0
34.0302 181.0
34.04 187.0
34.0499 150.0
34.0597 173.0
34.0696 124.0
34.0794 145.0
34.0893 139.0
34.0991 143.0
34.109 134.0
34.1188 141.0
34.1287 134.0
34.1385 144.0
34.1483 129.0
34.1582 139.0
34.168 132.0
34.1779 133.0
34.1877 135.0
34.1976 132.0
34.2074 125.0
34.2173 136.0
34.2271 134.0
34.237 133.0
34.2468 120.0
34.2567 123.0
34.2665 126.0
34.2764 130.0
34.2862 141.0
34.2961 115.0
34.3059 108.0
34.3158 117.0
34.3256 153.0
34.3355 103.0
34.3453 119.0
34.3552 135.0
34.365 129.0
34.3748 107.0
34.3847 128.0
34.3945 123.0
34.4044 105.0
34.4142 117.0
34.4241 115.0
34.4339 124.0
34.4438 115.0
34.4536 111.0
34.4635 108.0
34.4733 118.0
34.4832 138.0
34.493 138.0
34.5029 151.0
34.5127 131.0
34.5226 139.0
34.5324 119.0
34.5423 150.0
34.5521 108.0
34.562 126.0
34.5718 111.0
34.5816 138.0
34.5915 116.0
34.6013 138.0
34.6112 122.0
34.621 122.0
34.6309 141.0
34.6407 118.0
34.6506 116.0
34.6604 154.0
34.6703 130.0
34.6801 113.0
34.69 114.0
34.6998 118.0
34.7097 136.0
34.7195 131.0
34.7294 118.0
34.7392 134.0
34.7491 124.0
34.7589 142.0
34.7688 139.0
34.7786 147.0
34.7884 109.0
34.7983 132.0
34.8081 115.0
34.818 127.0
34.8278 111.0
34.8377 124.0
34.8475 137.0
34.8574 144.0
34.8672 142.0
34.8771 128.0
34.8869 115.0
34.8968 122.0
34.9066 122.0
34.9165 137.0
34.9263 130.0
34.9362 118.0
34.946 122.0
34.9559 130.0
34.9657 142.0
34.9756 145.0
34.9854 135.0
34.9953 128.0
35.0051 116.0
35.0149 129.0
35.0248 137.0
35.0346 130.0
35.0445 112.0
35.0543 123.0
35.0642 138.0
35.074 138.0
35.0839 151.0
35.0937 133.0
35.1036 130.0
35.1134 137.0
35.1233 136.0
35.1331 148.0
35.143 128.0
35.1528 137.0
35.1627 132.0
35.1725 168.0
35.1824 161.0
35.1922 126.0
35.2021 122.0
35.2119 141.0
35.2217 143.0
35.2316 131.0
35.2414 149.0
35.2513 147.0
35.2611 161.0
35.271 149.0
35.2808 145.0
35.2907 124.0
35.3005 163.0
35.3104 143.0
35.3202 150.0
35.3301 150.0
35.3399 145.0
35.3498 148.0
35.3596 142.0
35.3695 146.0
35.3793 165.0
35.3892 149.0
35.399 147.0
35.4089 162.0
35.4187 167.0
35.4286 164.0
35.4384 152.0
35.4482 171.0
35.4581 174.0
35.4679 146.0
35.4778 157.0
35.4876 171.0
35.4975 161.0
35.5073 197.0
35.5172 153.0
35.527 179.0
35.5369 167.0
35.5467 200.0
35.5566 174.0
35.5664 182.0
35.5763 203.0
35.5861 187.0
35.596 159.0
35.6058 162.0
35.6157 187.0
35.6255 194.0
35.6354 183.0
35.6452 196.0
35.655 200.0
35.6649 190.0
35.6747 202.0
35.6846 206.0
35.6944 198.0
35.7043 230.0
35.7141 207.0
35.724 215.0
35.7338 213.0
35.7437 261.0
35.7535 258.0
35.7634 238.0
35.7732 241.0
35.7831 265.0
35.7929 263.0
35.8028 235.0
35.8126 285.0
35.8225 298.0
35.8323 299.0
35.8422 326.0
35.852 338.0
35.8619 320.0
35.8717 335.0
35.8815 343.0
35.8914 379.0
35.9012 355.0
35.9111 424.0
35.9209 438.0
35.9308 495.0
35.9406 474.0
35.9505 510.0
35.9603 498.0
35.9702 532.0
35.98 533.0
35.9899 649.0
35.9997 689.0
36.0096 770.0
36.0194 798.0
36.0293 997.0
36.0391 1032.0
36.049 1151.0
36.0588 1297.0
36.0687 1398.0
36.0785 1612.0
36.0883 1884.0
36.0982 2211.0
36.108 2425.0
36.1179 2803.0
36.1277 3166.0
36.1376 3646.0
36.1474 4042.0
36.1573 4398.0
36.1671 4935.0
36.177 5257.0
36.1868 5770.0
36.1967 6216.0
36.2065 6536.0
36.2164 6919.0
36.2262 7036.0
36.2361 7098.0
36.2459 7180.0
36.2558 7236.0
36.2656 7191.0
36.2755 7023.0
36.2853 6680.0
36.2951 6560.0
36.305 6088.0
36.3148 5892.0
36.3247 5644.0
36.3345 5141.0
36.3444 4610.0
36.3542 4330.0
36.3641 3861.0
36.3739 3560.0
36.3838 3279.0
36.3936 2977.0
36.4035 2651.0
36.4133 2313.0
36.4232 2087.0
36.433 2021.0
36.4429 1759.0
36.4527 1529.0
36.4626 1418.0
36.4724 1306.0
36.4823 1121.0
36.4921 1040.0
36.502 949.0
36.5118 900.0
36.5216 896.0
36.5315 825.0
36.5413 779.0
36.5512 773.0
36.561 721.0
36.5709 725.0
36.5807 674.0
36.5906 633.0
36.6004 558.0
36.6103 594.0
36.6201 542.0
36.63 546.0
36.6398 541.0
36.6497 554.0
36.6595 546.0
36.6694 525.0
36.6792 504.0
36.6891 492.0
36.6989 480.0
36.7088 511.0
36.7186 473.0
36.7284 492.0
36.7383 537.0
36.7481 520.0
36.758 483.0
36.7678 473.0
36.7777 495.0
36.7875 433.0
36.7974 490.0
36.8072 519.0
36.8171 490.0
36.8269 494.0
36.8368 472.0
36.8466 491.0
36.8565 523.0
36.8663 475.0
36.8762 505.0
36.886 511.0
36.8959 529.0
36.9057 499.0
36.9156 561.0
36.9254 553.0
36.9353 529.0
36.9451 561.0
36.9549 538.0
36.9648 563.0
36.9746 545.0
36.9845 555.0
36.9943 572.0
37.0042 583.0
37.014 575.0
37.0239 599.0
37.0337 573.0
37.0436 596.0
37.0534 623.0
37.0633 670.0
37.0731 615.0
37.083 627.0
37.0928 629.0
37.1027 691.0
37.1125 640.0
37.1224 651.0
37.1322 628.0
37.1421 676.0
37.1519 649.0
37.1617 700.0
37.1716 646.0
37.1814 683.0
37.1913 746.0
37.2011 714.0
37.211 743.0
37.2208 745.0
37.2307 739.0
37.2405 783.0
37.2504 793.0
37.2602 765.0
37.2701 804.0
37.2799 907.0
37.2898 896.0
37.2996 902.0
37.3095 1016.0
37.3193 964.0
37.3292 991.0
37.339 999.0
37.3489 1027.0
37.3587 1089.0
37.3686 1076.0
37.3784 1168.0
37.3882 1182.0
37.3981 1230.0
37.4079 1272.0
37.4178 1253.0
37.4276 1405.0
37.4375 1432.0
37.4473 1485.0
37.4572 1562.0
37.467 1710.0
37.4769 1866.0
37.4867 2247.0
37.4966 2680.0
37.5064 3200.0
37.5163 3582.0
37.5261 4204.0
37.536 4597.0
37.5458 5126.0
37.5557 5290.0
37.5655 5352.0
37.5754 5355.0
37.5852 5484.0
37.595 5675.0
37.6049 6073.0
37.6147 6695.0
37.6246 8198.0
37.6344 10296.0
37.6443 13355.0
37.6541 18964.0
37.664 29602.0
37.6738 57785.0
37.6837 151308.0
37.6935 270979.0
37.7034 321461.0
37.7132 340412.0
37.7231 341470.0
37.7329 318274.0
37.7428 220477.0
37.7526 98766.0
37.7625 54496.0
37.7723 54293.0
37.7822 97145.0
37.792 148298.0
37.8018 170333.0
37.8117 176688.0
37.8215 172105.0
37.8314 153431.0
37.8412 100436.0
37.8511 45795.0
37.8609 22341.0
37.8708 13395.0
37.8806 9368.0
37.8905 7032.0
37.9003 5938.0
37.9102 5106.0
37.92 4164.0
37.9299 3894.0
37.9397 3382.0
37.9496 3093.0
37.9594 2748.0
37.9693 2661.0
37.9791 2331.0
37.989 2186.0
37.9988 2070.0
38.0087 1961.0
38.0185 1777.0
38.0283 1698.0
38.0382 1632.0
38.048 1586.0
38.0579 1387.0
38.0677 1316.0
38.0776 1302.0
38.0874 1323.0
38.0973 1278.0
38.1071 1124.0
38.117 1113.0
38.1268 1110.0
38.1367 1009.0
38.1465 1038.0
38.1564 965.0
38.1662 895.0
38.1761 884.0
38.1859 798.0
38.1958 872.0
38.2056 751.0
38.2155 759.0
38.2253 697.0
38.2351 746.0
38.245 701.0
38.2548 627.0
38.2647 611.0
38.2745 600.0
38.2844 574.0
38.2942 549.0
38.3041 558.0
38.3139 533.0
38.3238 553.0
38.3336 467.0
38.3435 463.0
38.3533 437.0
38.3632 483.0
38.373 434.0
38.3829 405.0
38.3927 432.0
38.4026 390.0
38.4124 426.0
38.4223 385.0
38.4321 388.0
38.442 372.0
38.4518 354.0
38.4616 339.0
38.4715 358.0
38.4813 330.0
38.4912 333.0
38.501 322.0
38.5109 321.0
38.5207 311.0
38.5306 287.0
38.5404 298.0
38.5503 266.0
38.5601 284.0
38.57 302.0
38.5798 282.0
38.5897 275.0
38.5995 233.0
38.6094 257.0
38.6192 274.0
38.6291 216.0
38.6389 256.0
38.6488 216.0
38.6586 287.0
38.6684 229.0
38.6783 256.0
38.6881 206.0
38.698 234.0
38.7078 221.0
38.7177 198.0
38.7275 231.0
38.7374 182.0
38.7472 227.0
38.7571 200.0
38.7669 194.0
38.7768 192.0
38.7866 173.0
38.7965 182.0
38.8063 169.0
38.8162 191.0
38.826 170.0
38.8359 182.0
38.8457 205.0
38.8556 169.0
38.8654 172.0
38.8753 165.0
38.8851 182.0
38.8949 193.0
38.9048 168.0
38.9146 187.0
38.9245 167.0
38.9343 164.0
38.9442 169.0
38.954 163.0
38.9639 166.0
38.9737 163.0
38.9836 163.0
38.9934 191.0
39.0033 185.0
39.0131 168.0
39.023 169.0
39.0328 162.0
39.0427 173.0
39.0525 159.0
39.0624 150.0
39.0722 159.0
39.0821 156.0
39.0919 180.0
39.1017 167.0
39.1116 156.0
39.1214 164.0
39.1313 151.0
39.1411 168.0
39.151 176.0
39.1608 176.0
39.1707 147.0
39.1805 187.0
39.1904 168.0
39.2002 190.0
39.2101 180.0
39.2199 170.0
39.2298 168.0
39.2396 206.0
39.2495 184.0
39.2593 177.0
39.2692 156.0
39.279 163.0
39.2889 146.0
39.2987 180.0
39.3085 161.0
39.3184 157.0
39.3282 185.0
39.3381 185.0
39.3479 205.0
39.3578 166.0
39.3676 188.0
39.3775 184.0
39.3873 195.0
39.3972 190.0
39.407 206.0
39.4169 174.0
39.4267 165.0
39.4366 193.0
39.4464 192.0
39.4563 159.0
39.4661 182.0
39.476 190.0
39.4858 201.0
39.4957 174.0
39.5055 170.0
39.5154 195.0
39.5252 211.0
39.535 187.0
39.5449 208.0
39.5547 195.0
39.5646 184.0
39.5744 175.0
39.5843 204.0
39.5941 193.0
39.604 194.0
39.6138 184.0
39.6237 192.0
39.6335 202.0
39.6434 205.0
39.6532 191.0
39.6631 168.0
39.6729 189.0
39.6828 183.0
39.6926 170.0
39.7025 165.0
39.7123 175.0
39.7222 185.0
39.732 166.0
39.7418 177.0
39.7517 187.0
39.7615 162.0
39.7714 171.0
39.7812 172.0
39.7911 172.0
39.8009 146.0
39.8108 172.0
39.8206 167.0
39.8305 152.0
39.8403 167.0
39.8502 175.0
39.86 142.0
39.8699 166.0
39.8797 137.0
39.8896 141.0
39.8994 159.0
39.9093 148.0
39.9191 123.0
39.929 127.0
39.9388 129.0
39.9487 151.0
39.9585 137.0
39.9683 116.0
39.9782 134.0
39.988 134.0
39.9979 122.0