File: data/W6856m/XRD_2ThetaOmega/W6856m_absolute_2th-om_10-130deg_PIXscan_17min_4.xy
10.0035 23.0
10.0872 20.0
10.1709 20.0
10.2546 19.0
10.3383 19.0
10.422 31.0
10.5057 22.0
10.5894 25.0
10.6731 14.0
10.7568 17.0
10.8405 14.0
10.9242 16.0
11.0079 24.0
11.0916 22.0
11.1753 16.0
11.259 14.0
11.3428 16.0
11.4265 20.0
11.5102 18.0
11.5939 27.0
11.6776 25.0
11.7613 15.0
11.845 25.0
11.9287 20.0
12.0124 16.0
12.0961 19.0
12.1798 22.0
12.2635 14.0
12.3472 12.0
12.4309 24.0
12.5146 19.0
12.5983 15.0
12.682 16.0
12.7657 22.0
12.8495 21.0
12.9332 17.0
13.0169 19.0
13.1006 24.0
13.1843 24.0
13.268 17.0
13.3517 8.0
13.4354 16.0
13.5191 12.0
13.6028 14.0
13.6865 23.0
13.7702 17.0
13.8539 10.0
13.9376 16.0
14.0213 25.0
14.105 16.0
14.1887 13.0
14.2724 18.0
14.3562 23.0
14.4399 19.0
14.5236 19.0
14.6073 16.0
14.691 12.0
14.7747 15.0
14.8584 10.0
14.9421 18.0
15.0258 21.0
15.1095 12.0
15.1932 14.0
15.2769 23.0
15.3606 16.0
15.4443 20.0
15.528 22.0
15.6117 14.0
15.6954 15.0
15.7791 19.0
15.8629 23.0
15.9466 22.0
16.0303 14.0
16.114 20.0
16.1977 15.0
16.2814 18.0
16.3651 9.0
16.4488 20.0
16.5325 14.0
16.6162 5.0
16.6999 20.0
16.7836 17.0
16.8673 20.0
16.951 18.0
17.0347 18.0
17.1184 13.0
17.2021 18.0
17.2858 14.0
17.3696 14.0
17.4533 25.0
17.537 17.0
17.6207 16.0
17.7044 8.0
17.7881 14.0
17.8718 10.0
17.9555 24.0
18.0392 15.0
18.1229 14.0
18.2066 27.0
18.2903 16.0
18.374 14.0
18.4577 19.0
18.5414 23.0
18.6251 17.0
18.7088 11.0
18.7925 16.0
18.8763 20.0
18.96 17.0
19.0437 17.0
19.1274 18.0
19.2111 12.0
19.2948 15.0
19.3785 11.0
19.4622 14.0
19.5459 13.0
19.6296 17.0
19.7133 13.0
19.797 15.0
19.8807 7.0
19.9644 13.0
20.0481 13.0
20.1318 4.0
20.2155 12.0
20.2992 16.0
20.383 9.0
20.4667 19.0
20.5504 21.0
20.6341 16.0
20.7178 11.0
20.8015 10.0
20.8852 10.0
20.9689 9.0
21.0526 16.0
21.1363 13.0
21.22 11.0
21.3037 13.0
21.3874 9.0
21.4711 15.0
21.5548 9.0
21.6385 16.0
21.7222 17.0
21.8059 16.0
21.8897 14.0
21.9734 10.0
22.0571 12.0
22.1408 18.0
22.2245 7.0
22.3082 16.0
22.3919 11.0
22.4756 9.0
22.5593 9.0
22.643 16.0
22.7267 10.0
22.8104 11.0
22.8941 10.0
22.9778 7.0
23.0615 18.0
23.1452 11.0
23.2289 12.0
23.3126 13.0
23.3964 18.0
23.4801 21.0
23.5638 15.0
23.6475 9.0
23.7312 8.0
23.8149 17.0
23.8986 16.0
23.9823 9.0
24.066 15.0
24.1497 15.0
24.2334 9.0
24.3171 12.0
24.4008 13.0
24.4845 12.0
24.5682 14.0
24.6519 4.0
24.7356 11.0
24.8193 10.0
24.9031 8.0
24.9868 13.0
25.0705 9.0
25.1542 15.0
25.2379 12.0
25.3216 17.0
25.4053 14.0
25.489 7.0
25.5727 14.0
25.6564 11.0
25.7401 6.0
25.8238 1.0
25.9075 14.0
25.9912 10.0
26.0749 14.0
26.1586 7.0
26.2423 6.0
26.326 3.0
26.4098 12.0
26.4935 6.0
26.5772 17.0
26.6609 11.0
26.7446 5.0
26.8283 9.0
26.912 10.0
26.9957 7.0
27.0794 17.0
27.1631 17.0
27.2468 18.0
27.3305 8.0
27.4142 12.0
27.4979 10.0
27.5816 10.0
27.6653 7.0
27.749 15.0
27.8327 6.0
27.9165 8.0
28.0002 10.0
28.0839 8.0
28.1676 10.0
28.2513 18.0
28.335 11.0
28.4187 3.0
28.5024 9.0
28.5861 13.0
28.6698 16.0
28.7535 8.0
28.8372 12.0
28.9209 9.0
29.0046 18.0
29.0883 13.0
29.172 5.0
29.2557 3.0
29.3394 8.0
29.4232 11.0
29.5069 15.0
29.5906 8.0
29.6743 9.0
29.758 11.0
29.8417 8.0
29.9254 9.0
30.0091 8.0
30.0928 8.0
30.1765 12.0
30.2602 16.0
30.3439 9.0
30.4276 9.0
30.5113 11.0
30.595 11.0
30.6787 9.0
30.7624 3.0
30.8461 9.0
30.9298 11.0
31.0136 10.0
31.0973 8.0
31.181 8.0
31.2647 9.0
31.3484 11.0
31.4321 6.0
31.5158 9.0
31.5995 15.0
31.6832 14.0
31.7669 10.0
31.8506 10.0
31.9343 5.0
32.018 14.0
32.1017 8.0
32.1854 14.0
32.2691 15.0
32.3528 7.0
32.4365 5.0
32.5203 7.0
32.604 10.0
32.6877 10.0
32.7714 10.0
32.8551 7.0
32.9388 5.0
33.0225 10.0
33.1062 8.0
33.1899 5.0
33.2736 7.0
33.3573 11.0
33.441 9.0
33.5247 8.0
33.6084 4.0
33.6921 11.0
33.7758 9.0
33.8595 12.0
33.9432 10.0
34.027 11.0
34.1107 13.0
34.1944 11.0
34.2781 11.0
34.3618 13.0
34.4455 11.0
34.5292 10.0
34.6129 8.0
34.6966 12.0
34.7803 7.0
34.864 10.0
34.9477 7.0
35.0314 8.0
35.1151 7.0
35.1988 9.0
35.2825 6.0
35.3662 7.0
35.4499 5.0
35.5337 9.0
35.6174 8.0
35.7011 6.0
35.7848 10.0
35.8685 6.0
35.9522 8.0
36.0359 7.0
36.1196 11.0
36.2033 7.0
36.287 7.0
36.3707 10.0
36.4544 11.0
36.5381 3.0
36.6218 14.0
36.7055 5.0
36.7892 8.0
36.8729 8.0
36.9566 5.0
37.0404 14.0
37.1241 10.0
37.2078 8.0
37.2915 8.0
37.3752 8.0
37.4589 6.0
37.5426 4.0
37.6263 8.0
37.71 9.0
37.7937 8.0
37.8774 17.0
37.9611 14.0
38.0448 12.0
38.1285 14.0
38.2122 8.0
38.2959 11.0
38.3796 3.0
38.4633 7.0
38.5471 8.0
38.6308 5.0
38.7145 7.0
38.7982 15.0
38.8819 5.0
38.9656 9.0
39.0493 13.0
39.133 11.0
39.2167 7.0
39.3004 12.0
39.3841 13.0
39.4678 7.0
39.5515 10.0
39.6352 4.0
39.7189 7.0
39.8026 8.0
39.8863 13.0
39.97 13.0
40.0538 11.0
40.1375 7.0
40.2212 9.0
40.3049 4.0
40.3886 9.0
40.4723 8.0
40.556 12.0
40.6397 9.0
40.7234 11.0
40.8071 9.0
40.8908 6.0
40.9745 8.0
41.0582 10.0
41.1419 10.0
41.2256 10.0
41.3093 8.0
41.393 11.0
41.4767 13.0
41.5605 12.0
41.6442 12.0
41.7279 11.0
41.8116 5.0
41.8953 6.0
41.979 4.0
42.0627 7.0
42.1464 16.0
42.2301 10.0
42.3138 13.0
42.3975 11.0
42.4812 10.0
42.5649 13.0
42.6486 13.0
42.7323 9.0
42.816 10.0
42.8997 10.0
42.9834 6.0
43.0672 10.0
43.1509 9.0
43.2346 11.0
43.3183 12.0
43.402 14.0
43.4857 8.0
43.5694 12.0
43.6531 7.0
43.7368 8.0
43.8205 11.0
43.9042 10.0
43.9879 7.0
44.0716 10.0
44.1553 9.0
44.239 12.0
44.3227 19.0
44.4064 15.0
44.4901 15.0
44.5739 12.0
44.6576 12.0
44.7413 11.0
44.825 5.0
44.9087 9.0
44.9924 10.0
45.0761 10.0
45.1598 6.0
45.2435 9.0
45.3272 5.0
45.4109 11.0
45.4946 10.0
45.5783 7.0
45.662 6.0
45.7457 8.0
45.8294 14.0
45.9131 10.0
45.9968 7.0
46.0806 12.0
46.1643 12.0
46.248 7.0
46.3317 13.0
46.4154 12.0
46.4991 11.0
46.5828 16.0
46.6665 13.0
46.7502 9.0
46.8339 16.0
46.9176 15.0
47.0013 11.0
47.085 12.0
47.1687 11.0
47.2524 9.0
47.3361 9.0
47.4198 6.0
47.5035 16.0
47.5873 9.0
47.671 13.0
47.7547 16.0
47.8384 6.0
47.9221 8.0
48.0058 7.0
48.0895 8.0
48.1732 5.0
48.2569 9.0
48.3406 9.0
48.4243 7.0
48.508 9.0
48.5917 8.0
48.6754 9.0
48.7591 15.0
48.8428 12.0
48.9265 11.0
49.0102 8.0
49.094 18.0
49.1777 7.0
49.2614 11.0
49.3451 7.0
49.4288 11.0
49.5125 8.0
49.5962 10.0
49.6799 15.0
49.7636 6.0
49.8473 10.0
49.931 11.0
50.0147 9.0
50.0984 9.0
50.1821 8.0
50.2658 18.0
50.3495 9.0
50.4332 8.0
50.5169 8.0
50.6007 9.0
50.6844 8.0
50.7681 9.0
50.8518 15.0
50.9355 10.0
51.0192 14.0
51.1029 6.0
51.1866 10.0
51.2703 11.0
51.354 5.0
51.4377 11.0
51.5214 7.0
51.6051 16.0
51.6888 9.0
51.7725 7.0
51.8562 6.0
51.9399 7.0
52.0236 6.0
52.1074 10.0
52.1911 8.0
52.2748 10.0
52.3585 7.0
52.4422 8.0
52.5259 11.0
52.6096 12.0
52.6933 11.0
52.777 10.0
52.8607 10.0
52.9444 9.0
53.0281 13.0
53.1118 9.0
53.1955 9.0
53.2792 11.0
53.3629 10.0
53.4466 13.0
53.5303 11.0
53.6141 9.0
53.6978 14.0
53.7815 16.0
53.8652 6.0
53.9489 13.0
54.0326 14.0
54.1163 12.0
54.2 13.0
54.2837 15.0
54.3674 9.0
54.4511 16.0
54.5348 11.0
54.6185 9.0
54.7022 11.0
54.7859 7.0
54.8696 5.0
54.9533 10.0
55.037 9.0
55.1208 12.0
55.2045 6.0
55.2882 3.0
55.3719 15.0
55.4556 15.0
55.5393 25.0
55.623 22.0
55.7067 16.0
55.7904 12.0
55.8741 11.0
55.9578 13.0
56.0415 12.0
56.1252 7.0
56.2089 12.0
56.2926 8.0
56.3763 16.0
56.46 8.0
56.5437 11.0
56.6275 13.0
56.7112 12.0
56.7949 13.0
56.8786 8.0
56.9623 13.0
57.046 11.0
57.1297 12.0
57.2134 6.0
57.2971 11.0
57.3808 13.0
57.4645 11.0
57.5482 12.0
57.6319 9.0
57.7156 12.0
57.7993 12.0
57.883 12.0
57.9667 25.0
58.0504 12.0
58.1342 11.0
58.2179 3.0
58.3016 11.0
58.3853 11.0
58.469 7.0
58.5527 8.0
58.6364 9.0
58.7201 7.0
58.8038 11.0
58.8875 17.0
58.9712 9.0
59.0549 14.0
59.1386 14.0
59.2223 7.0
59.306 7.0
59.3897 9.0
59.4734 9.0
59.5571 9.0
59.6409 9.0
59.7246 9.0
59.8083 12.0
59.892 16.0
59.9757 12.0
60.0594 10.0
60.1431 9.0
60.2268 4.0
60.3105 2.0
60.3942 12.0
60.4779 18.0
60.5616 16.0
60.6453 15.0
60.729 13.0
60.8127 59.0
60.8964 57.0
60.9801 33.0
61.0638 17.0
61.1476 12.0
61.2313 14.0
61.315 28.0
61.3987 12.0
61.4824 10.0
61.5661 22.0
61.6498 12.0
61.7335 14.0
61.8172 15.0
61.9009 6.0
61.9846 13.0
62.0683 8.0
62.152 14.0
62.2357 7.0
62.3194 20.0
62.4031 12.0
62.4868 14.0
62.5705 15.0
62.6543 17.0
62.738 17.0
62.8217 15.0
62.9054 22.0
62.9891 16.0
63.0728 27.0
63.1565 22.0
63.2402 22.0
63.3239 22.0
63.4076 29.0
63.4913 39.0
63.575 50.0
63.6587 42.0
63.7424 89.0
63.8261 104.0
63.9098 140.0
63.9935 191.0
64.0772 289.0
64.161 361.0
64.2447 342.0
64.3284 243.0
64.4121 223.0
64.4958 123.0
64.5795 86.0
64.6632 72.0
64.7469 47.0
64.8306 56.0
64.9143 154.0
64.998 164.0
65.0817 55.0
65.1654 22.0
65.2491 28.0
65.3328 31.0
65.4165 22.0
65.5002 54.0
65.5839 22.0
65.6677 29.0
65.7514 21.0
65.8351 22.0
65.9188 25.0
66.0025 17.0
66.0862 15.0
66.1699 25.0
66.2536 25.0
66.3373 27.0
66.421 22.0
66.5047 27.0
66.5884 17.0
66.6721 20.0
66.7558 23.0
66.8395 20.0
66.9232 34.0
67.0069 25.0
67.0906 39.0
67.1744 50.0
67.2581 45.0
67.3418 49.0
67.4255 68.0
67.5092 56.0
67.5929 72.0
67.6766 104.0
67.7603 172.0
67.844 294.0
67.9277 321.0
68.0114 626.0
68.0951 2973.0
68.1788 29595.0
68.2625 1910.0
68.3462 17931.0
68.4299 1690.0
68.5136 503.0
68.5973 309.0
68.6811 167.0
68.7648 142.0
68.8485 118.0
68.9322 101.0
69.0159 109.0
69.0996 93.0
69.1833 81.0
69.267 70.0
69.3507 68.0
69.4344 78.0
69.5181 63.0
69.6018 47.0
69.6855 60.0
69.7692 55.0
69.8529 49.0
69.9366 63.0
70.0203 39.0
70.104 49.0
70.1878 35.0
70.2715 33.0
70.3552 17.0
70.4389 26.0
70.5226 22.0
70.6063 30.0
70.69 38.0
70.7737 18.0
70.8574 18.0
70.9411 18.0
71.0248 14.0
71.1085 20.0
71.1922 16.0
71.2759 11.0
71.3596 22.0
71.4433 20.0
71.527 15.0
71.6107 8.0
71.6945 23.0
71.7782 14.0
71.8619 10.0
71.9456 20.0
72.0293 15.0
72.113 16.0
72.1967 13.0
72.2804 11.0
72.3641 9.0
72.4478 10.0
72.5315 14.0
72.6152 12.0
72.6989 10.0
72.7826 13.0
72.8663 13.0
72.95 16.0
73.0337 6.0
73.1174 9.0
73.2012 13.0
73.2849 13.0
73.3686 21.0
73.4523 12.0
73.536 13.0
73.6197 7.0
73.7034 11.0
73.7871 12.0
73.8708 11.0
73.9545 8.0
74.0382 13.0
74.1219 15.0
74.2056 15.0
74.2893 6.0
74.373 11.0
74.4567 16.0
74.5404 12.0
74.6241 11.0
74.7079 13.0
74.7916 11.0
74.8753 15.0
74.959 8.0
75.0427 14.0
75.1264 18.0
75.2101 17.0
75.2938 14.0
75.3775 19.0
75.4612 14.0
75.5449 13.0
75.6286 9.0
75.7123 10.0
75.796 5.0
75.8797 12.0
75.9634 2.0
76.0471 10.0
76.1308 13.0
76.2146 13.0
76.2983 8.0
76.382 11.0
76.4657 6.0
76.5494 8.0
76.6331 6.0
76.7168 15.0
76.8005 10.0
76.8842 10.0
76.9679 20.0
77.0516 11.0
77.1353 17.0
77.219 7.0
77.3027 13.0
77.3864 12.0
77.4701 14.0
77.5538 12.0
77.6375 7.0
77.7213 17.0
77.805 12.0
77.8887 11.0
77.9724 10.0
78.0561 12.0
78.1398 9.0
78.2235 10.0
78.3072 11.0
78.3909 7.0
78.4746 11.0
78.5583 12.0
78.642 9.0
78.7257 14.0
78.8094 8.0
78.8931 3.0
78.9768 15.0
79.0605 8.0
79.1442 9.0
79.228 20.0
79.3117 9.0
79.3954 10.0
79.4791 7.0
79.5628 9.0
79.6465 9.0
79.7302 15.0
79.8139 12.0
79.8976 17.0
79.9813 10.0
80.065 9.0
80.1487 14.0
80.2324 9.0
80.3161 16.0
80.3998 9.0
80.4835 13.0
80.5672 9.0
80.6509 13.0
80.7347 12.0
80.8184 9.0
80.9021 12.0
80.9858 8.0
81.0695 7.0
81.1532 10.0
81.2369 5.0
81.3206 6.0
81.4043 15.0
81.488 14.0
81.5717 12.0
81.6554 12.0
81.7391 9.0
81.8228 9.0
81.9065 8.0
81.9902 9.0
82.0739 7.0
82.1576 13.0
82.2414 13.0
82.3251 7.0
82.4088 15.0
82.4925 11.0
82.5762 9.0
82.6599 10.0
82.7436 14.0
82.8273 12.0
82.911 13.0
82.9947 11.0
83.0784 6.0
83.1621 13.0
83.2458 11.0
83.3295 10.0
83.4132 10.0
83.4969 7.0
83.5806 7.0
83.6643 6.0
83.7481 7.0
83.8318 15.0
83.9155 10.0
83.9992 6.0
84.0829 11.0
84.1666 11.0
84.2503 11.0
84.334 6.0
84.4177 6.0
84.5014 10.0
84.5851 13.0
84.6688 12.0
84.7525 10.0
84.8362 10.0
84.9199 5.0
85.0036 11.0
85.0873 8.0
85.171 6.0
85.2548 10.0
85.3385 8.0
85.4222 12.0
85.5059 11.0
85.5896 9.0
85.6733 13.0
85.757 11.0
85.8407 8.0
85.9244 15.0
86.0081 15.0
86.0918 13.0
86.1755 4.0
86.2592 14.0
86.3429 11.0
86.4266 7.0
86.5103 2.0
86.594 5.0
86.6777 11.0
86.7615 10.0
86.8452 10.0
86.9289 9.0
87.0126 9.0
87.0963 12.0
87.18 9.0
87.2637 11.0
87.3474 8.0
87.4311 6.0
87.5148 7.0
87.5985 10.0
87.6822 10.0
87.7659 10.0
87.8496 11.0
87.9333 10.0
88.017 16.0
88.1007 13.0
88.1844 13.0
88.2682 5.0
88.3519 14.0
88.4356 8.0
88.5193 8.0
88.603 10.0
88.6867 7.0
88.7704 8.0
88.8541 5.0
88.9378 8.0
89.0215 4.0
89.1052 17.0
89.1889 12.0
89.2726 8.0
89.3563 7.0
89.44 11.0
89.5237 8.0
89.6074 13.0
89.6911 6.0
89.7749 11.0
89.8586 9.0
89.9423 5.0
90.026 9.0
90.1097 19.0
90.1934 8.0
90.2771 8.0
90.3608 13.0
90.4445 13.0
90.5282 14.0
90.6119 10.0
90.6956 4.0
90.7793 13.0
90.863 5.0
90.9467 12.0
91.0304 9.0
91.1141 11.0
91.1978 13.0
91.2816 7.0
91.3653 13.0
91.449 11.0
91.5327 16.0
91.6164 16.0
91.7001 10.0
91.7838 8.0
91.8675 17.0
91.9512 10.0
92.0349 8.0
92.1186 6.0
92.2023 4.0
92.286 13.0
92.3697 10.0
92.4534 10.0
92.5371 9.0
92.6208 10.0
92.7045 8.0
92.7883 8.0
92.872 13.0
92.9557 17.0
93.0394 9.0
93.1231 9.0
93.2068 19.0
93.2905 11.0
93.3742 10.0
93.4579 7.0
93.5416 7.0
93.6253 12.0
93.709 6.0
93.7927 8.0
93.8764 14.0
93.9601 11.0
94.0438 9.0
94.1275 8.0
94.2112 8.0
94.295 11.0
94.3787 14.0
94.4624 10.0
94.5461 9.0
94.6298 8.0
94.7135 7.0
94.7972 5.0
94.8809 10.0
94.9646 13.0
95.0483 11.0
95.132 11.0
95.2157 8.0
95.2994 12.0
95.3831 10.0
95.4668 9.0
95.5505 7.0
95.6342 7.0
95.7179 14.0
95.8017 9.0
95.8854 10.0
95.9691 11.0
96.0528 11.0
96.1365 12.0
96.2202 10.0
96.3039 2.0
96.3876 11.0
96.4713 13.0
96.555 7.0
96.6387 8.0
96.7224 10.0
96.8061 13.0
96.8898 7.0
96.9735 4.0
97.0572 10.0
97.1409 5.0
97.2246 13.0
97.3084 12.0
97.3921 7.0
97.4758 11.0
97.5595 16.0
97.6432 6.0
97.7269 15.0
97.8106 10.0
97.8943 8.0
97.978 11.0
98.0617 12.0
98.1454 12.0
98.2291 8.0
98.3128 10.0
98.3965 7.0
98.4802 16.0
98.5639 14.0
98.6476 5.0
98.7313 8.0
98.8151 13.0
98.8988 12.0
98.9825 8.0
99.0662 10.0
99.1499 10.0
99.2336 8.0
99.3173 3.0
99.401 10.0
99.4847 10.0
99.5684 9.0
99.6521 5.0
99.7358 8.0
99.8195 9.0
99.9032 7.0
99.9869 11.0
100.071 14.0
100.154 11.0
100.238 21.0
100.322 16.0
100.405 6.0
100.489 7.0
100.573 5.0
100.657 20.0
100.74 10.0
100.824 16.0
100.908 12.0
100.991 13.0
101.075 10.0
101.159 9.0
101.243 4.0
101.326 7.0
101.41 13.0
101.494 6.0
101.577 2.0
101.661 6.0
101.745 9.0
101.828 9.0
101.912 5.0
101.996 7.0
102.08 9.0
102.163 3.0
102.247 14.0
102.331 8.0
102.414 15.0
102.498 9.0
102.582 7.0
102.666 8.0
102.749 10.0
102.833 10.0
102.917 12.0
103 13.0
103.084 12.0
103.168 14.0
103.251 9.0
103.335 7.0
103.419 7.0
103.503 8.0
103.586 6.0
103.67 10.0
103.754 15.0
103.837 15.0
103.921 9.0
104.005 6.0
104.089 8.0
104.172 11.0
104.256 10.0
104.34 10.0
104.423 12.0
104.507 5.0
104.591 7.0
104.674 11.0
104.758 11.0
104.842 11.0
104.926 9.0
105.009 11.0
105.093 10.0
105.177 10.0
105.26 8.0
105.344 10.0
105.428 13.0
105.511 9.0
105.595 3.0
105.679 15.0
105.763 11.0
105.846 10.0
105.93 15.0
106.014 8.0
106.097 7.0
106.181 11.0
106.265 8.0
106.349 15.0
106.432 8.0
106.516 3.0
106.6 14.0
106.683 13.0
106.767 11.0
106.851 11.0
106.934 14.0
107.018 10.0
107.102 17.0
107.186 10.0
107.269 8.0
107.353 9.0
107.437 14.0
107.52 14.0
107.604 14.0
107.688 4.0
107.772 9.0
107.855 12.0
107.939 10.0
108.023 8.0
108.106 15.0
108.19 10.0
108.274 11.0
108.357 15.0
108.441 9.0
108.525 5.0
108.609 6.0
108.692 17.0
108.776 14.0
108.86 7.0
108.943 14.0
109.027 12.0
109.111 4.0
109.195 9.0
109.278 10.0
109.362 10.0
109.446 9.0
109.529 14.0
109.613 12.0
109.697 6.0
109.78 15.0
109.864 5.0
109.948 12.0
110.032 18.0
110.115 9.0
110.199 5.0
110.283 8.0
110.366 10.0
110.45 6.0
110.534 11.0
110.618 11.0
110.701 15.0
110.785 11.0
110.869 9.0
110.952 6.0
111.036 16.0
111.12 13.0
111.203 10.0
111.287 5.0
111.371 9.0
111.455 7.0
111.538 12.0
111.622 8.0
111.706 8.0
111.789 6.0
111.873 12.0
111.957 11.0
112.041 11.0
112.124 10.0
112.208 9.0
112.292 15.0
112.375 11.0
112.459 9.0
112.543 10.0
112.626 11.0
112.71 6.0
112.794 14.0
112.878 10.0
112.961 13.0
113.045 16.0
113.129 11.0
113.212 17.0
113.296 11.0
113.38 12.0
113.464 10.0
113.547 11.0
113.631 14.0
113.715 9.0
113.798 9.0
113.882 9.0
113.966 13.0
114.049 9.0
114.133 12.0
114.217 9.0
114.301 11.0
114.384 10.0
114.468 8.0
114.552 13.0
114.635 9.0
114.719 9.0
114.803 15.0
114.887 14.0
114.97 18.0
115.054 6.0
115.138 13.0
115.221 8.0
115.305 12.0
115.389 6.0
115.472 9.0
115.556 14.0
115.64 9.0
115.724 11.0
115.807 4.0
115.891 12.0
115.975 8.0
116.058 12.0
116.142 10.0
116.226 14.0
116.31 19.0
116.393 10.0
116.477 13.0
116.561 11.0
116.644 10.0
116.728 10.0
116.812 20.0
116.895 9.0
116.979 5.0
117.063 15.0
117.147 11.0
117.23 10.0
117.314 8.0
117.398 9.0
117.481 15.0
117.565 20.0
117.649 12.0
117.733 14.0
117.816 10.0
117.9 11.0
117.984 6.0
118.067 15.0
118.151 6.0
118.235 12.0
118.318 13.0
118.402 10.0
118.486 12.0
118.57 11.0
118.653 15.0
118.737 17.0
118.821 8.0
118.904 21.0
118.988 10.0
119.072 9.0
119.156 12.0
119.239 8.0
119.323 12.0
119.407 12.0
119.49 7.0
119.574 10.0
119.658 10.0
119.741 8.0
119.825 17.0
119.909 10.0
119.993 10.0
120.076 11.0
120.16 11.0
120.244 8.0
120.327 13.0
120.411 13.0
120.495 15.0
120.578 9.0
120.662 16.0
120.746 8.0
120.83 13.0
120.913 9.0
120.997 11.0
121.081 12.0
121.164 9.0
121.248 12.0
121.332 12.0
121.416 12.0
121.499 10.0
121.583 10.0
121.667 13.0
121.75 17.0
121.834 19.0
121.918 16.0
122.001 17.0
122.085 6.0
122.169 8.0
122.253 10.0
122.336 12.0
122.42 5.0
122.504 11.0
122.587 7.0
122.671 8.0
122.755 13.0
122.839 8.0
122.922 8.0
123.006 12.0
123.09 15.0
123.173 9.0
123.257 15.0
123.341 11.0
123.424 13.0
123.508 13.0
123.592 13.0
123.676 11.0
123.759 12.0
123.843 13.0
123.927 10.0
124.01 15.0
124.094 11.0
124.178 12.0
124.262 15.0
124.345 9.0
124.429 14.0
124.513 3.0
124.596 19.0
124.68 13.0
124.764 14.0
124.847 11.0
124.931 10.0
125.015 10.0
125.099 15.0
125.182 10.0
125.266 8.0
125.35 10.0
125.433 17.0
125.517 12.0
125.601 8.0
125.685 15.0
125.768 11.0
125.852 9.0
125.936 17.0
126.019 14.0
126.103 8.0
126.187 9.0
126.27 15.0
126.354 13.0
126.438 14.0
126.522 15.0
126.605 20.0
126.689 16.0
126.773 15.0
126.856 17.0
126.94 10.0
127.024 12.0
127.108 18.0
127.191 15.0
127.275 5.0
127.359 15.0
127.442 10.0
127.526 15.0
127.61 14.0
127.693 9.0
127.777 11.0
127.861 14.0
127.945 8.0
128.028 16.0
128.112 10.0
128.196 10.0
128.279 12.0
128.363 13.0
128.447 10.0
128.531 17.0
128.614 14.0
128.698 13.0
128.782 12.0
128.865 11.0
128.949 16.0
129.033 15.0
129.116 12.0
129.2 5.0
129.284 17.0
129.368 10.0
129.451 15.0
129.535 14.0
129.619 11.0
129.702 9.0
129.786 20.0
129.87 16.0
129.954 14.0
129.998 14.0