File: data/W6784c/XRD_Omega/W6784c_Cr2O3_scan_omega_2deg_step_0.002deg0_13.xy
18.50370 1007.0
18.50570 923.0
18.50770 1030.0
18.50970 1003.0
18.51170 979.0
18.51370 1004.0
18.51570 972.0
18.51770 979.0
18.51970 995.0
18.52170 1046.0
18.52370 990.0
18.52570 1012.0
18.52770 1006.0
18.52970 1017.0
18.53170 995.0
18.53370 1039.0
18.53570 1025.0
18.53770 1014.0
18.53970 1009.0
18.54170 1002.0
18.54370 1052.0
18.54570 1041.0
18.54770 966.0
18.54970 956.0
18.55170 1066.0
18.55370 1037.0
18.55570 1004.0
18.55770 1078.0
18.55970 986.0
18.56170 1082.0
18.56370 1101.0
18.56570 992.0
18.56770 1101.0
18.56970 981.0
18.57170 1035.0
18.57370 1061.0
18.57570 1057.0
18.57770 1052.0
18.57970 1066.0
18.58170 1069.0
18.58370 1053.0
18.58570 1038.0
18.58770 1098.0
18.58970 1036.0
18.59170 1075.0
18.59370 1052.0
18.59570 1053.0
18.59770 1045.0
18.59970 1068.0
18.60170 1082.0
18.60370 1039.0
18.60570 1171.0
18.60770 1116.0
18.60970 1040.0
18.61170 1093.0
18.61370 1087.0
18.61570 1116.0
18.61770 1097.0
18.61970 1122.0
18.62170 1180.0
18.62370 1160.0
18.62570 1126.0
18.62770 1103.0
18.62970 1109.0
18.63170 1157.0
18.63370 1069.0
18.63570 1120.0
18.63770 1118.0
18.63970 1147.0
18.64170 1094.0
18.64370 1096.0
18.64570 1195.0
18.64770 1185.0
18.64970 1162.0
18.65170 1074.0
18.65370 1203.0
18.65570 1171.0
18.65770 1139.0
18.65970 1145.0
18.66170 1143.0
18.66370 1176.0
18.66570 1183.0
18.66770 1167.0
18.66970 1195.0
18.67170 1191.0
18.67370 1226.0
18.67570 1266.0
18.67770 1163.0
18.67970 1250.0
18.68170 1144.0
18.68370 1276.0
18.68570 1152.0
18.68770 1214.0
18.68970 1200.0
18.69170 1189.0
18.69370 1175.0
18.69570 1202.0
18.69770 1216.0
18.69970 1147.0
18.70170 1176.0
18.70370 1250.0
18.70570 1193.0
18.70770 1195.0
18.70970 1197.0
18.71170 1202.0
18.71370 1268.0
18.71570 1271.0
18.71770 1229.0
18.71970 1297.0
18.72170 1232.0
18.72370 1286.0
18.72570 1263.0
18.72770 1226.0
18.72970 1265.0
18.73170 1249.0
18.73370 1253.0
18.73570 1258.0
18.73770 1300.0
18.73970 1308.0
18.74170 1353.0
18.74370 1322.0
18.74570 1311.0
18.74770 1345.0
18.74970 1336.0
18.75170 1299.0
18.75370 1283.0
18.75570 1321.0
18.75770 1320.0
18.75970 1277.0
18.76170 1387.0
18.76370 1394.0
18.76570 1381.0
18.76770 1342.0
18.76970 1364.0
18.77170 1374.0
18.77370 1444.0
18.77570 1358.0
18.77770 1391.0
18.77970 1407.0
18.78170 1360.0
18.78370 1419.0
18.78570 1345.0
18.78770 1375.0
18.78970 1374.0
18.79170 1372.0
18.79370 1329.0
18.79570 1360.0
18.79770 1443.0
18.79970 1439.0
18.80170 1394.0
18.80370 1421.0
18.80570 1353.0
18.80770 1456.0
18.80970 1434.0
18.81170 1531.0
18.81370 1543.0
18.81570 1451.0
18.81770 1404.0
18.81970 1393.0
18.82170 1448.0
18.82370 1503.0
18.82570 1509.0
18.82770 1510.0
18.82970 1457.0
18.83170 1470.0
18.83370 1493.0
18.83570 1463.0
18.83770 1512.0
18.83970 1505.0
18.84170 1530.0
18.84370 1527.0
18.84570 1522.0
18.84770 1541.0
18.84970 1515.0
18.85170 1591.0
18.85370 1626.0
18.85570 1539.0
18.85770 1583.0
18.85970 1580.0
18.86170 1561.0
18.86370 1597.0
18.86570 1610.0
18.86770 1607.0
18.86970 1566.0
18.87170 1652.0
18.87370 1603.0
18.87570 1624.0
18.87770 1662.0
18.87970 1648.0
18.88170 1613.0
18.88370 1621.0
18.88570 1669.0
18.88770 1678.0
18.88970 1668.0
18.89170 1655.0
18.89370 1696.0
18.89570 1712.0
18.89770 1787.0
18.89970 1725.0
18.90170 1682.0
18.90370 1730.0
18.90570 1735.0
18.90770 1755.0
18.90970 1730.0
18.91170 1682.0
18.91370 1769.0
18.91570 1814.0
18.91770 1790.0
18.91970 1722.0
18.92170 1884.0
18.92370 1738.0
18.92570 1860.0
18.92770 1838.0
18.92970 1765.0
18.93170 1761.0
18.93370 1790.0
18.93570 1851.0
18.93770 1860.0
18.93970 1926.0
18.94170 1844.0
18.94370 1848.0
18.94570 1953.0
18.94770 1850.0
18.94970 1866.0
18.95170 1905.0
18.95370 1938.0
18.95570 1943.0
18.95770 1854.0
18.95970 1878.0
18.96170 1916.0
18.96370 1949.0
18.96570 1830.0
18.96770 1896.0
18.96970 2093.0
18.97170 1933.0
18.97370 1984.0
18.97570 2041.0
18.97770 1941.0
18.97970 1998.0
18.98170 2016.0
18.98370 2085.0
18.98570 2098.0
18.98770 2050.0
18.98970 2023.0
18.99170 2047.0
18.99370 2151.0
18.99570 2103.0
18.99770 2095.0
18.99970 1981.0
19.00170 2074.0
19.00370 2052.0
19.00570 2106.0
19.00770 2127.0
19.00970 2123.0
19.01170 2128.0
19.01370 2219.0
19.01570 2204.0
19.01770 2198.0
19.01970 2126.0
19.02170 2230.0
19.02370 2104.0
19.02570 2254.0
19.02770 2236.0
19.02970 2263.0
19.03170 2223.0
19.03370 2220.0
19.03570 2342.0
19.03770 2263.0
19.03970 2314.0
19.04170 2325.0
19.04370 2378.0
19.04570 2273.0
19.04770 2365.0
19.04970 2366.0
19.05170 2404.0
19.05370 2341.0
19.05570 2342.0
19.05770 2383.0
19.05970 2473.0
19.06170 2496.0
19.06370 2392.0
19.06570 2384.0
19.06770 2444.0
19.06970 2376.0
19.07170 2484.0
19.07370 2500.0
19.07570 2475.0
19.07770 2508.0
19.07970 2548.0
19.08170 2540.0
19.08370 2602.0
19.08570 2575.0
19.08770 2547.0
19.08970 2636.0
19.09170 2627.0
19.09370 2687.0
19.09570 2710.0
19.09770 2619.0
19.09970 2738.0
19.10170 2787.0
19.10370 2717.0
19.10570 2659.0
19.10770 2709.0
19.10970 2678.0
19.11170 2802.0
19.11370 2742.0
19.11570 2809.0
19.11770 2764.0
19.11970 2844.0
19.12170 2821.0
19.12370 2918.0
19.12570 2879.0
19.12770 2788.0
19.12970 2925.0
19.13170 2894.0
19.13370 2857.0
19.13570 2982.0
19.13770 3053.0
19.13970 2882.0
19.14170 3049.0
19.14370 3015.0
19.14570 3025.0
19.14770 3036.0
19.14970 3058.0
19.15170 3049.0
19.15370 3057.0
19.15570 2968.0
19.15770 3165.0
19.15970 3195.0
19.16170 3145.0
19.16370 3202.0
19.16570 3212.0
19.16770 3245.0
19.16970 3234.0
19.17170 3150.0
19.17370 3133.0
19.17570 3080.0
19.17770 3137.0
19.17970 3156.0
19.18170 3267.0
19.18370 3279.0
19.18570 3345.0
19.18770 3401.0
19.18970 3419.0
19.19170 3374.0
19.19370 3373.0
19.19570 3453.0
19.19770 3352.0
19.19970 3468.0
19.20170 3470.0
19.20370 3591.0
19.20570 3490.0
19.20770 3522.0
19.20970 3483.0
19.21170 3560.0
19.21370 3555.0
19.21570 3600.0
19.21770 3612.0
19.21970 3698.0
19.22170 3605.0
19.22370 3729.0
19.22570 3725.0
19.22770 3636.0
19.22970 3637.0
19.23170 3611.0
19.23370 3826.0
19.23570 3798.0
19.23770 3683.0
19.23970 3758.0
19.24170 3792.0
19.24370 3670.0
19.24570 3917.0
19.24770 3817.0
19.24970 3886.0
19.25170 3825.0
19.25370 3900.0
19.25570 3742.0
19.25770 3885.0
19.25970 3981.0
19.26170 3981.0
19.26370 3938.0
19.26570 3950.0
19.26770 3966.0
19.26970 4063.0
19.27170 4083.0
19.27370 4202.0
19.27570 4158.0
19.27770 4032.0
19.27970 4127.0
19.28170 4053.0
19.28370 4041.0
19.28570 4147.0
19.28770 4205.0
19.28970 4114.0
19.29170 4296.0
19.29370 4226.0
19.29570 4283.0
19.29770 4251.0
19.29970 4228.0
19.30170 4336.0
19.30370 4455.0
19.30570 4309.0
19.30770 4336.0
19.30970 4424.0
19.31170 4628.0
19.31370 4389.0
19.31570 4427.0
19.31770 4452.0
19.31970 4518.0
19.32170 4502.0
19.32370 4593.0
19.32570 4575.0
19.32770 4573.0
19.32970 4531.0
19.33170 4726.0
19.33370 4545.0
19.33570 4850.0
19.33770 4708.0
19.33970 4610.0
19.34170 4751.0
19.34370 4646.0
19.34570 4813.0
19.34770 4705.0
19.34970 4604.0
19.35170 4684.0
19.35370 4791.0
19.35570 4765.0
19.35770 4676.0
19.35970 4787.0
19.36170 4988.0
19.36370 4974.0
19.36570 4829.0
19.36770 4971.0
19.36970 5088.0
19.37170 4951.0
19.37370 5036.0
19.37570 5123.0
19.37770 5059.0
19.37970 4973.0
19.38170 5001.0
19.38370 4970.0
19.38570 4985.0
19.38770 5212.0
19.38970 5054.0
19.39170 4975.0
19.39370 5170.0
19.39570 5141.0
19.39770 5209.0
19.39970 5238.0
19.40170 5183.0
19.40370 5209.0
19.40570 5328.0
19.40770 5302.0
19.40970 5296.0
19.41170 5207.0
19.41370 5307.0
19.41570 5205.0
19.41770 5362.0
19.41970 5165.0
19.42170 5361.0
19.42370 5351.0
19.42570 5305.0
19.42770 5354.0
19.42970 5327.0
19.43170 5458.0
19.43370 5345.0
19.43570 5456.0
19.43770 5313.0
19.43970 5274.0
19.44170 5433.0
19.44370 5363.0
19.44570 5215.0
19.44770 5411.0
19.44970 5446.0
19.45170 5458.0
19.45370 5418.0
19.45570 5488.0
19.45770 5551.0
19.45970 5467.0
19.46170 5460.0
19.46370 5453.0
19.46570 5424.0
19.46770 5344.0
19.46970 5346.0
19.47170 5323.0
19.47370 5507.0
19.47570 5381.0
19.47770 5301.0
19.47970 5515.0
19.48170 5328.0
19.48370 5416.0
19.48570 5664.0
19.48770 5411.0
19.48970 5382.0
19.49170 5350.0
19.49370 5388.0
19.49570 5454.0
19.49770 5548.0
19.49970 5459.0
19.50170 5394.0
19.50370 5378.0
19.50570 5616.0
19.50770 5464.0
19.50970 5418.0
19.51170 5394.0
19.51370 5401.0
19.51570 5538.0
19.51770 5519.0
19.51970 5416.0
19.52170 5458.0
19.52370 5494.0
19.52570 5456.0
19.52770 5575.0
19.52970 5439.0
19.53170 5456.0
19.53370 5426.0
19.53570 5501.0
19.53770 5378.0
19.53970 5494.0
19.54170 5489.0
19.54370 5360.0
19.54570 5457.0
19.54770 5382.0
19.54970 5388.0
19.55170 5443.0
19.55370 5320.0
19.55570 5439.0
19.55770 5490.0
19.55970 5366.0
19.56170 5383.0
19.56370 5344.0
19.56570 5296.0
19.56770 5294.0
19.56970 5116.0
19.57170 5278.0
19.57370 5273.0
19.57570 5369.0
19.57770 5326.0
19.57970 5255.0
19.58170 5194.0
19.58370 5273.0
19.58570 5114.0
19.58770 5238.0
19.58970 5040.0
19.59170 5126.0
19.59370 5213.0
19.59570 5017.0
19.59770 5267.0
19.59970 5057.0
19.60170 5227.0
19.60370 5161.0
19.60570 5145.0
19.60770 5068.0
19.60970 5190.0
19.61170 5091.0
19.61370 5141.0
19.61570 5019.0
19.61770 5157.0
19.61970 5070.0
19.62170 5011.0
19.62370 4988.0
19.62570 4985.0
19.62770 4929.0
19.62970 4904.0
19.63170 4914.0
19.63370 4972.0
19.63570 4913.0
19.63770 4790.0
19.63970 4892.0
19.64170 4805.0
19.64370 4867.0
19.64570 4789.0
19.64770 4864.0
19.64970 4786.0
19.65170 4778.0
19.65370 4697.0
19.65570 4754.0
19.65770 4854.0
19.65970 4700.0
19.66170 4789.0
19.66370 4843.0
19.66570 4627.0
19.66770 4682.0
19.66970 4704.0
19.67170 4714.0
19.67370 4653.0
19.67570 4609.0
19.67770 4495.0
19.67970 4581.0
19.68170 4631.0
19.68370 4484.0
19.68570 4642.0
19.68770 4596.0
19.68970 4450.0
19.69170 4264.0
19.69370 4465.0
19.69570 4418.0
19.69770 4481.0
19.69970 4328.0
19.70170 4369.0
19.70370 4351.0
19.70570 4261.0
19.70770 4193.0
19.70970 4292.0
19.71170 4273.0
19.71370 4329.0
19.71570 4101.0
19.71770 4163.0
19.71970 4074.0
19.72170 4142.0
19.72370 3983.0
19.72570 4073.0
19.72770 4043.0
19.72970 4106.0
19.73170 4074.0
19.73370 4050.0
19.73570 4010.0
19.73770 4063.0
19.73970 4063.0
19.74170 4058.0
19.74370 4100.0
19.74570 3807.0
19.74770 3872.0
19.74970 3880.0
19.75170 3975.0
19.75370 3836.0
19.75570 3926.0
19.75770 3860.0
19.75970 3827.0
19.76170 3861.0
19.76370 3896.0
19.76570 3829.0
19.76770 3772.0
19.76970 3641.0
19.77170 3813.0
19.77370 3618.0
19.77570 3685.0
19.77770 3526.0
19.77970 3532.0
19.78170 3532.0
19.78370 3527.0
19.78570 3512.0
19.78770 3473.0
19.78970 3592.0
19.79170 3485.0
19.79370 3549.0
19.79570 3585.0
19.79770 3415.0
19.79970 3351.0
19.80170 3436.0
19.80370 3361.0
19.80570 3462.0
19.80770 3414.0
19.80970 3405.0
19.81170 3355.0
19.81370 3335.0
19.81570 3235.0
19.81770 3335.0
19.81970 3388.0
19.82170 3263.0
19.82370 3288.0
19.82570 3254.0
19.82770 3266.0
19.82970 3232.0
19.83170 3093.0
19.83370 3209.0
19.83570 3157.0
19.83770 3129.0
19.83970 3125.0
19.84170 3079.0
19.84370 3180.0
19.84570 3055.0
19.84770 2981.0
19.84970 2999.0
19.85170 3102.0
19.85370 2974.0
19.85570 2946.0
19.85770 3021.0
19.85970 3001.0
19.86170 3026.0
19.86370 2994.0
19.86570 3034.0
19.86770 2946.0
19.86970 2948.0
19.87170 2839.0
19.87370 2832.0
19.87570 2787.0
19.87770 2821.0
19.87970 2916.0
19.88170 2841.0
19.88370 2836.0
19.88570 2925.0
19.88770 2688.0
19.88970 2842.0
19.89170 2655.0
19.89370 2786.0
19.89570 2796.0
19.89770 2765.0
19.89970 2808.0
19.90170 2705.0
19.90370 2716.0
19.90570 2627.0
19.90770 2633.0
19.90970 2669.0
19.91170 2598.0
19.91370 2631.0
19.91570 2626.0
19.91770 2569.0
19.91970 2546.0
19.92170 2478.0
19.92370 2518.0
19.92570 2458.0
19.92770 2558.0
19.92970 2472.0
19.93170 2461.0
19.93370 2496.0
19.93570 2474.0
19.93770 2481.0
19.93970 2489.0
19.94170 2452.0
19.94370 2499.0
19.94570 2397.0
19.94770 2416.0
19.94970 2325.0
19.95170 2290.0
19.95370 2429.0
19.95570 2266.0
19.95770 2267.0
19.95970 2303.0
19.96170 2195.0
19.96370 2294.0
19.96570 2287.0
19.96770 2295.0
19.96970 2238.0
19.97170 2272.0
19.97370 2333.0
19.97570 2192.0
19.97770 2145.0
19.97970 2204.0
19.98170 2149.0
19.98370 2185.0
19.98570 2212.0
19.98770 2221.0
19.98970 2120.0
19.99170 2154.0
19.99370 2109.0
19.99570 2207.0
19.99770 2093.0
19.99970 2181.0
20.00170 2119.0
20.00370 2059.0
20.00570 2079.0
20.00770 2119.0
20.00970 2052.0
20.01170 2056.0
20.01370 1965.0
20.01570 2038.0
20.01770 2086.0
20.01970 2023.0
20.02170 1992.0
20.02370 1988.0
20.02570 2015.0
20.02770 2046.0
20.02970 2044.0
20.03170 1988.0
20.03370 2040.0
20.03570 2016.0
20.03770 1979.0
20.03970 1995.0
20.04170 1940.0
20.04370 1971.0
20.04570 1877.0
20.04770 1876.0
20.04970 1947.0
20.05170 1955.0
20.05370 1902.0
20.05570 1966.0
20.05770 1871.0
20.05970 1927.0
20.06170 1858.0
20.06370 1829.0
20.06570 1857.0
20.06770 1839.0
20.06970 1819.0
20.07170 1957.0
20.07370 1813.0
20.07570 1855.0
20.07770 1827.0
20.07970 1897.0
20.08170 1800.0
20.08370 1820.0
20.08570 1753.0
20.08770 1763.0
20.08970 1824.0
20.09170 1794.0
20.09370 1923.0
20.09570 1767.0
20.09770 1732.0
20.09970 1678.0
20.10170 1705.0
20.10370 1757.0
20.10570 1698.0
20.10770 1802.0
20.10970 1759.0
20.11170 1749.0
20.11370 1855.0
20.11570 1798.0
20.11770 1753.0
20.11970 1729.0
20.12170 1745.0
20.12370 1745.0
20.12570 1678.0
20.12770 1692.0
20.12970 1663.0
20.13170 1646.0
20.13370 1745.0
20.13570 1712.0
20.13770 1690.0
20.13970 1600.0
20.14170 1634.0
20.14370 1650.0
20.14570 1534.0
20.14770 1683.0
20.14970 1611.0
20.15170 1632.0
20.15370 1599.0
20.15570 1663.0
20.15770 1573.0
20.15970 1476.0
20.16170 1585.0
20.16370 1555.0
20.16570 1565.0
20.16770 1581.0
20.16970 1567.0
20.17170 1539.0
20.17370 1543.0
20.17570 1482.0
20.17770 1517.0
20.17970 1548.0
20.18170 1487.0
20.18370 1435.0
20.18570 1569.0
20.18770 1527.0
20.18970 1393.0
20.19170 1438.0
20.19370 1354.0
20.19570 1405.0
20.19770 1427.0
20.19970 1398.0
20.20170 1556.0
20.20370 1445.0
20.20570 1438.0
20.20770 1354.0
20.20970 1453.0
20.21170 1412.0
20.21370 1397.0
20.21570 1444.0
20.21770 1445.0
20.21970 1443.0
20.22170 1325.0
20.22370 1459.0
20.22570 1411.0
20.22770 1411.0
20.22970 1435.0
20.23170 1437.0
20.23370 1382.0
20.23570 1367.0
20.23770 1439.0
20.23970 1406.0
20.24170 1346.0
20.24370 1367.0
20.24570 1341.0
20.24770 1375.0
20.24970 1384.0
20.25170 1328.0
20.25370 1383.0
20.25570 1356.0
20.25770 1325.0
20.25970 1343.0
20.26170 1288.0
20.26370 1366.0
20.26570 1250.0
20.26770 1239.0
20.26970 1302.0
20.27170 1300.0
20.27370 1331.0
20.27570 1237.0
20.27770 1361.0
20.27970 1238.0
20.28170 1301.0
20.28370 1243.0
20.28570 1293.0
20.28770 1333.0
20.28970 1379.0
20.29170 1318.0
20.29370 1312.0
20.29570 1266.0
20.29770 1233.0
20.29970 1246.0
20.30170 1284.0
20.30370 1271.0
20.30570 1258.0
20.30770 1232.0
20.30970 1260.0
20.31170 1221.0
20.31370 1212.0
20.31570 1251.0
20.31770 1178.0
20.31970 1208.0
20.32170 1178.0
20.32370 1249.0
20.32570 1241.0
20.32770 1237.0
20.32970 1158.0
20.33170 1164.0
20.33370 1231.0
20.33570 1137.0
20.33770 1173.0
20.33970 1189.0
20.34170 1168.0
20.34370 1161.0
20.34570 1179.0
20.34770 1231.0
20.34970 1210.0
20.35170 1170.0
20.35370 1150.0
20.35570 1160.0
20.35770 1094.0
20.35970 1114.0
20.36170 1206.0
20.36370 1097.0
20.36570 1174.0
20.36770 1117.0
20.36970 1117.0
20.37170 1162.0
20.37370 1143.0
20.37570 1095.0
20.37770 1116.0
20.37970 1101.0
20.38170 1130.0
20.38370 1184.0
20.38570 1067.0
20.38770 1111.0
20.38970 1127.0
20.39170 1082.0
20.39370 1105.0
20.39570 1111.0
20.39770 1077.0
20.39970 1084.0
20.40170 1098.0
20.40370 1121.0
20.40570 1109.0
20.40770 1155.0
20.40970 1059.0
20.41170 1117.0
20.41370 1092.0
20.41570 1145.0
20.41770 1062.0
20.41970 1112.0
20.42170 1065.0
20.42370 1083.0
20.42570 1098.0
20.42770 1077.0
20.42970 1081.0
20.43170 1020.0
20.43370 1113.0
20.43570 1093.0
20.43770 1070.0
20.43970 1032.0
20.44170 1002.0
20.44370 1027.0
20.44570 1063.0
20.44770 1055.0
20.44970 1001.0
20.45170 1048.0
20.45370 1055.0
20.45570 1079.0
20.45770 1065.0
20.45970 1030.0
20.46170 1001.0
20.46370 1042.0
20.46570 971.0
20.46770 1063.0
20.46970 1028.0
20.47170 1045.0
20.47370 1000.0
20.47570 1029.0
20.47770 998.0
20.47970 999.0
20.48170 1047.0
20.48370 1000.0
20.48570 1016.0
20.48770 1049.0