File: data/w6931a/XRD_2ThetaOmega/scan_2th-om_a_Cr2O3_30-40deg_PIXscan_4min.xy
30.0025 53.0
30.0123 46.0
30.0222 52.0
30.032 61.0
30.0419 54.0
30.0517 56.0
30.0615 51.0
30.0714 40.0
30.0812 54.0
30.0911 48.0
30.1009 47.0
30.1108 50.0
30.1206 61.0
30.1305 44.0
30.1403 63.0
30.1502 46.0
30.16 60.0
30.1699 63.0
30.1797 67.0
30.1896 56.0
30.1994 52.0
30.2093 48.0
30.2191 58.0
30.229 45.0
30.2388 53.0
30.2487 39.0
30.2585 58.0
30.2684 48.0
30.2782 52.0
30.288 45.0
30.2979 52.0
30.3077 45.0
30.3176 62.0
30.3274 55.0
30.3373 57.0
30.3471 57.0
30.357 53.0
30.3668 56.0
30.3767 52.0
30.3865 56.0
30.3964 51.0
30.4062 51.0
30.4161 50.0
30.4259 57.0
30.4358 47.0
30.4456 52.0
30.4555 51.0
30.4653 36.0
30.4752 57.0
30.485 50.0
30.4948 57.0
30.5047 55.0
30.5145 53.0
30.5244 58.0
30.5342 47.0
30.5441 49.0
30.5539 54.0
30.5638 57.0
30.5736 55.0
30.5835 57.0
30.5933 54.0
30.6032 52.0
30.613 47.0
30.6229 63.0
30.6327 59.0
30.6426 46.0
30.6524 46.0
30.6623 39.0
30.6721 49.0
30.682 49.0
30.6918 64.0
30.7016 58.0
30.7115 55.0
30.7213 50.0
30.7312 50.0
30.741 53.0
30.7509 44.0
30.7607 53.0
30.7706 48.0
30.7804 54.0
30.7903 63.0
30.8001 60.0
30.81 50.0
30.8198 58.0
30.8297 54.0
30.8395 52.0
30.8494 58.0
30.8592 42.0
30.8691 54.0
30.8789 62.0
30.8888 43.0
30.8986 55.0
30.9085 45.0
30.9183 50.0
30.9281 61.0
30.938 53.0
30.9478 51.0
30.9577 52.0
30.9675 54.0
30.9774 59.0
30.9872 50.0
30.9971 48.0
31.0069 62.0
31.0168 45.0
31.0266 50.0
31.0365 51.0
31.0463 58.0
31.0562 47.0
31.066 69.0
31.0759 64.0
31.0857 48.0
31.0956 47.0
31.1054 56.0
31.1153 51.0
31.1251 41.0
31.1349 46.0
31.1448 44.0
31.1546 59.0
31.1645 37.0
31.1743 51.0
31.1842 56.0
31.194 40.0
31.2039 57.0
31.2137 49.0
31.2236 67.0
31.2334 45.0
31.2433 49.0
31.2531 59.0
31.263 53.0
31.2728 62.0
31.2827 53.0
31.2925 63.0
31.3024 60.0
31.3122 54.0
31.3221 47.0
31.3319 53.0
31.3418 53.0
31.3516 55.0
31.3614 58.0
31.3713 48.0
31.3811 67.0
31.391 49.0
31.4008 54.0
31.4107 60.0
31.4205 56.0
31.4304 70.0
31.4402 50.0
31.4501 47.0
31.4599 56.0
31.4698 41.0
31.4796 58.0
31.4895 55.0
31.4993 47.0
31.5092 45.0
31.519 54.0
31.5289 46.0
31.5387 59.0
31.5486 58.0
31.5584 39.0
31.5682 46.0
31.5781 48.0
31.5879 59.0
31.5978 49.0
31.6076 47.0
31.6175 53.0
31.6273 57.0
31.6372 55.0
31.647 51.0
31.6569 53.0
31.6667 59.0
31.6766 59.0
31.6864 45.0
31.6963 51.0
31.7061 50.0
31.716 43.0
31.7258 49.0
31.7357 52.0
31.7455 50.0
31.7554 48.0
31.7652 47.0
31.7751 51.0
31.7849 54.0
31.7947 58.0
31.8046 57.0
31.8144 53.0
31.8243 41.0
31.8341 54.0
31.844 68.0
31.8538 64.0
31.8637 60.0
31.8735 68.0
31.8834 49.0
31.8932 55.0
31.9031 59.0
31.9129 54.0
31.9228 59.0
31.9326 54.0
31.9425 52.0
31.9523 66.0
31.9622 54.0
31.972 56.0
31.9819 69.0
31.9917 61.0
32.0015 58.0
32.0114 46.0
32.0212 51.0
32.0311 58.0
32.0409 57.0
32.0508 73.0
32.0606 79.0
32.0705 71.0
32.0803 85.0
32.0902 64.0
32.1 78.0
32.1099 71.0
32.1197 98.0
32.1296 112.0
32.1394 119.0
32.1493 147.0
32.1591 122.0
32.169 121.0
32.1788 120.0
32.1887 93.0
32.1985 90.0
32.2083 82.0
32.2182 69.0
32.228 82.0
32.2379 76.0
32.2477 78.0
32.2576 67.0
32.2674 61.0
32.2773 61.0
32.2871 59.0
32.297 62.0
32.3068 62.0
32.3167 69.0
32.3265 60.0
32.3364 69.0
32.3462 54.0
32.3561 78.0
32.3659 52.0
32.3758 53.0
32.3856 62.0
32.3955 56.0
32.4053 49.0
32.4152 52.0
32.425 57.0
32.4348 47.0
32.4447 45.0
32.4545 52.0
32.4644 52.0
32.4742 56.0
32.4841 57.0
32.4939 54.0
32.5038 44.0
32.5136 42.0
32.5235 48.0
32.5333 52.0
32.5432 60.0
32.553 35.0
32.5629 56.0
32.5727 62.0
32.5826 46.0
32.5924 57.0
32.6023 59.0
32.6121 47.0
32.622 58.0
32.6318 47.0
32.6416 54.0
32.6515 51.0
32.6613 53.0
32.6712 47.0
32.681 61.0
32.6909 50.0
32.7007 61.0
32.7106 45.0
32.7204 74.0
32.7303 58.0
32.7401 58.0
32.75 52.0
32.7598 52.0
32.7697 61.0
32.7795 44.0
32.7894 52.0
32.7992 52.0
32.8091 62.0
32.8189 55.0
32.8288 50.0
32.8386 58.0
32.8485 55.0
32.8583 55.0
32.8681 46.0
32.878 50.0
32.8878 55.0
32.8977 48.0
32.9075 57.0
32.9174 49.0
32.9272 66.0
32.9371 63.0
32.9469 52.0
32.9568 64.0
32.9666 65.0
32.9765 48.0
32.9863 45.0
32.9962 50.0
33.006 59.0
33.0159 64.0
33.0257 50.0
33.0356 44.0
33.0454 54.0
33.0553 68.0
33.0651 64.0
33.0749 64.0
33.0848 57.0
33.0946 69.0
33.1045 58.0
33.1143 54.0
33.1242 70.0
33.134 61.0
33.1439 67.0
33.1537 57.0
33.1636 56.0
33.1734 55.0
33.1833 53.0
33.1931 48.0
33.203 53.0
33.2128 65.0
33.2227 60.0
33.2325 49.0
33.2424 62.0
33.2522 68.0
33.2621 63.0
33.2719 45.0
33.2818 59.0
33.2916 52.0
33.3014 59.0
33.3113 65.0
33.3211 56.0
33.331 52.0
33.3408 68.0
33.3507 68.0
33.3605 48.0
33.3704 54.0
33.3802 49.0
33.3901 51.0
33.3999 63.0
33.4098 53.0
33.4196 78.0
33.4295 62.0
33.4393 50.0
33.4492 68.0
33.459 61.0
33.4689 53.0
33.4787 60.0
33.4886 65.0
33.4984 53.0
33.5082 61.0
33.5181 61.0
33.5279 56.0
33.5378 56.0
33.5476 61.0
33.5575 57.0
33.5673 64.0
33.5772 62.0
33.587 49.0
33.5969 60.0
33.6067 51.0
33.6166 55.0
33.6264 61.0
33.6363 55.0
33.6461 65.0
33.656 55.0
33.6658 63.0
33.6757 58.0
33.6855 78.0
33.6954 67.0
33.7052 68.0
33.715 71.0
33.7249 80.0
33.7347 73.0
33.7446 54.0
33.7544 56.0
33.7643 60.0
33.7741 67.0
33.784 60.0
33.7938 59.0
33.8037 79.0
33.8135 70.0
33.8234 67.0
33.8332 81.0
33.8431 80.0
33.8529 64.0
33.8628 95.0
33.8726 85.0
33.8825 75.0
33.8923 114.0
33.9022 138.0
33.912 175.0
33.9219 345.0
33.9317 594.0
33.9415 698.0
33.9514 714.0
33.9612 477.0
33.9711 322.0
33.9809 161.0
33.9908 155.0
34.0006 111.0
34.0105 109.0
34.0203 81.0
34.0302 80.0
34.04 86.0
34.0499 85.0
34.0597 77.0
34.0696 85.0
34.0794 80.0
34.0893 77.0
34.0991 82.0
34.109 87.0
34.1188 78.0
34.1287 79.0
34.1385 62.0
34.1483 80.0
34.1582 67.0
34.168 71.0
34.1779 82.0
34.1877 66.0
34.1976 83.0
34.2074 79.0
34.2173 55.0
34.2271 70.0
34.237 74.0
34.2468 76.0
34.2567 74.0
34.2665 83.0
34.2764 72.0
34.2862 77.0
34.2961 89.0
34.3059 75.0
34.3158 83.0
34.3256 75.0
34.3355 81.0
34.3453 66.0
34.3552 79.0
34.365 65.0
34.3748 72.0
34.3847 75.0
34.3945 89.0
34.4044 81.0
34.4142 62.0
34.4241 98.0
34.4339 81.0
34.4438 90.0
34.4536 79.0
34.4635 74.0
34.4733 82.0
34.4832 80.0
34.493 82.0
34.5029 84.0
34.5127 80.0
34.5226 82.0
34.5324 84.0
34.5423 108.0
34.5521 61.0
34.562 68.0
34.5718 78.0
34.5816 75.0
34.5915 71.0
34.6013 93.0
34.6112 95.0
34.621 86.0
34.6309 74.0
34.6407 81.0
34.6506 83.0
34.6604 87.0
34.6703 91.0
34.6801 79.0
34.69 84.0
34.6998 78.0
34.7097 92.0
34.7195 118.0
34.7294 84.0
34.7392 95.0
34.7491 89.0
34.7589 85.0
34.7688 108.0
34.7786 97.0
34.7884 94.0
34.7983 97.0
34.8081 101.0
34.818 74.0
34.8278 106.0
34.8377 102.0
34.8475 121.0
34.8574 87.0
34.8672 107.0
34.8771 105.0
34.8869 98.0
34.8968 111.0
34.9066 124.0
34.9165 115.0
34.9263 114.0
34.9362 94.0
34.946 132.0
34.9559 122.0
34.9657 120.0
34.9756 120.0
34.9854 137.0
34.9953 127.0
35.0051 122.0
35.0149 129.0
35.0248 140.0
35.0346 137.0
35.0445 153.0
35.0543 157.0
35.0642 176.0
35.074 125.0
35.0839 134.0
35.0937 162.0
35.1036 148.0
35.1134 151.0
35.1233 147.0
35.1331 171.0
35.143 151.0
35.1528 175.0
35.1627 173.0
35.1725 156.0
35.1824 201.0
35.1922 177.0
35.2021 160.0
35.2119 183.0
35.2217 204.0
35.2316 209.0
35.2414 193.0
35.2513 224.0
35.2611 233.0
35.271 240.0
35.2808 267.0
35.2907 255.0
35.3005 231.0
35.3104 268.0
35.3202 280.0
35.3301 313.0
35.3399 300.0
35.3498 306.0
35.3596 333.0
35.3695 339.0
35.3793 334.0
35.3892 350.0
35.399 387.0
35.4089 393.0
35.4187 452.0
35.4286 500.0
35.4384 490.0
35.4482 573.0
35.4581 581.0
35.4679 628.0
35.4778 699.0
35.4876 795.0
35.4975 906.0
35.5073 907.0
35.5172 1077.0
35.527 1124.0
35.5369 1370.0
35.5467 1585.0
35.5566 1800.0
35.5664 1943.0
35.5763 2385.0
35.5861 2740.0
35.596 3280.0
35.6058 3911.0
35.6157 4754.0
35.6255 5623.0
35.6354 7041.0
35.6452 8424.0
35.655 10191.0
35.6649 12243.0
35.6747 14215.0
35.6846 15880.0
35.6944 17524.0
35.7043 17950.0
35.7141 17926.0
35.724 17085.0
35.7338 16198.0
35.7437 15271.0
35.7535 14637.0
35.7634 13946.0
35.7732 13594.0
35.7831 13474.0
35.7929 12612.0
35.8028 11612.0
35.8126 10704.0
35.8225 9460.0
35.8323 8042.0
35.8422 7081.0
35.852 6042.0
35.8619 5265.0
35.8717 4384.0
35.8815 3962.0
35.8914 3500.0
35.9012 2921.0
35.9111 2604.0
35.9209 2399.0
35.9308 2088.0
35.9406 1821.0
35.9505 1676.0
35.9603 1513.0
35.9702 1432.0
35.98 1239.0
35.9899 1166.0
35.9997 1079.0
36.0096 1024.0
36.0194 997.0
36.0293 952.0
36.0391 839.0
36.049 786.0
36.0588 741.0
36.0687 772.0
36.0785 691.0
36.0883 649.0
36.0982 626.0
36.108 629.0
36.1179 550.0
36.1277 531.0
36.1376 513.0
36.1474 471.0
36.1573 472.0
36.1671 473.0
36.177 408.0
36.1868 400.0
36.1967 390.0
36.2065 393.0
36.2164 377.0
36.2262 327.0
36.2361 348.0
36.2459 313.0
36.2558 316.0
36.2656 279.0
36.2755 292.0
36.2853 242.0
36.2951 270.0
36.305 241.0
36.3148 276.0
36.3247 228.0
36.3345 236.0
36.3444 230.0
36.3542 200.0
36.3641 210.0
36.3739 223.0
36.3838 191.0
36.3936 189.0
36.4035 195.0
36.4133 195.0
36.4232 169.0
36.433 185.0
36.4429 154.0
36.4527 152.0
36.4626 164.0
36.4724 174.0
36.4823 166.0
36.4921 165.0
36.502 144.0
36.5118 155.0
36.5216 169.0
36.5315 159.0
36.5413 156.0
36.5512 152.0
36.561 136.0
36.5709 178.0
36.5807 141.0
36.5906 165.0
36.6004 151.0
36.6103 152.0
36.6201 153.0
36.63 142.0
36.6398 167.0
36.6497 141.0
36.6595 174.0
36.6694 164.0
36.6792 156.0
36.6891 146.0
36.6989 152.0
36.7088 155.0
36.7186 156.0
36.7284 135.0
36.7383 146.0
36.7481 149.0
36.758 158.0
36.7678 158.0
36.7777 178.0
36.7875 156.0
36.7974 174.0
36.8072 147.0
36.8171 183.0
36.8269 170.0
36.8368 175.0
36.8466 187.0
36.8565 162.0
36.8663 163.0
36.8762 157.0
36.886 193.0
36.8959 183.0
36.9057 181.0
36.9156 184.0
36.9254 193.0
36.9353 146.0
36.9451 201.0
36.9549 189.0
36.9648 175.0
36.9746 195.0
36.9845 191.0
36.9943 202.0
37.0042 198.0
37.014 215.0
37.0239 203.0
37.0337 212.0
37.0436 195.0
37.0534 219.0
37.0633 205.0
37.0731 197.0
37.083 191.0
37.0928 206.0
37.1027 255.0
37.1125 263.0
37.1224 273.0
37.1322 217.0
37.1421 269.0
37.1519 256.0
37.1617 259.0
37.1716 265.0
37.1814 221.0
37.1913 293.0
37.2011 305.0
37.211 222.0
37.2208 284.0
37.2307 313.0
37.2405 312.0
37.2504 328.0
37.2602 376.0
37.2701 348.0
37.2799 343.0
37.2898 343.0
37.2996 371.0
37.3095 418.0
37.3193 393.0
37.3292 366.0
37.339 431.0
37.3489 426.0
37.3587 428.0
37.3686 445.0
37.3784 456.0
37.3882 483.0
37.3981 523.0
37.4079 516.0
37.4178 542.0
37.4276 558.0
37.4375 565.0
37.4473 631.0
37.4572 651.0
37.467 779.0
37.4769 829.0
37.4867 1006.0
37.4966 1107.0
37.5064 1347.0
37.5163 1741.0
37.5261 1934.0
37.536 1993.0
37.5458 2266.0
37.5557 2143.0
37.5655 2044.0
37.5754 1976.0
37.5852 2252.0
37.595 2273.0
37.6049 2591.0
37.6147 3087.0
37.6246 3940.0
37.6344 5042.0
37.6443 6834.0
37.6541 10055.0
37.664 16666.0
37.6738 35254.0
37.6837 102141.0
37.6935 186017.0
37.7034 199829.0
37.7132 154327.0
37.7231 68024.0
37.7329 29372.0
37.7428 16081.0
37.7526 12818.0
37.7625 14344.0
37.7723 25005.0
37.7822 58426.0
37.792 94788.0
37.8018 99856.0
37.8117 73727.0
37.8215 34713.0
37.8314 15266.0
37.8412 8214.0
37.8511 5248.0
37.8609 3866.0
37.8708 3101.0
37.8806 2584.0
37.8905 2138.0
37.9003 1902.0
37.9102 1630.0
37.92 1476.0
37.9299 1316.0
37.9397 1175.0
37.9496 1123.0
37.9594 1012.0
37.9693 941.0
37.9791 918.0
37.989 842.0
37.9988 755.0
38.0087 759.0
38.0185 718.0
38.0283 683.0
38.0382 675.0
38.048 606.0
38.0579 595.0
38.0677 549.0
38.0776 583.0
38.0874 488.0
38.0973 505.0
38.1071 474.0
38.117 450.0
38.1268 442.0
38.1367 407.0
38.1465 434.0
38.1564 376.0
38.1662 367.0
38.1761 377.0
38.1859 335.0
38.1958 313.0
38.2056 318.0
38.2155 304.0
38.2253 312.0
38.2351 313.0
38.245 284.0
38.2548 309.0
38.2647 214.0
38.2745 224.0
38.2844 214.0
38.2942 265.0
38.3041 203.0
38.3139 217.0
38.3238 196.0
38.3336 194.0
38.3435 165.0
38.3533 165.0
38.3632 160.0
38.373 152.0
38.3829 151.0
38.3927 145.0
38.4026 156.0
38.4124 149.0
38.4223 144.0
38.4321 136.0
38.442 153.0
38.4518 147.0
38.4616 159.0
38.4715 158.0
38.4813 124.0
38.4912 135.0
38.501 125.0
38.5109 124.0
38.5207 127.0
38.5306 129.0
38.5404 114.0
38.5503 107.0
38.5601 103.0
38.57 112.0
38.5798 107.0
38.5897 104.0
38.5995 107.0
38.6094 107.0
38.6192 110.0
38.6291 106.0
38.6389 99.0
38.6488 83.0
38.6586 112.0
38.6684 98.0
38.6783 84.0
38.6881 93.0
38.698 91.0
38.7078 97.0
38.7177 94.0
38.7275 80.0
38.7374 83.0
38.7472 89.0
38.7571 71.0
38.7669 81.0
38.7768 89.0
38.7866 95.0
38.7965 70.0
38.8063 99.0
38.8162 101.0
38.826 92.0
38.8359 91.0
38.8457 99.0
38.8556 70.0
38.8654 90.0
38.8753 71.0
38.8851 90.0
38.8949 80.0
38.9048 90.0
38.9146 88.0
38.9245 74.0
38.9343 94.0
38.9442 71.0
38.954 83.0
38.9639 92.0
38.9737 82.0
38.9836 75.0
38.9934 83.0
39.0033 69.0
39.0131 88.0
39.023 78.0
39.0328 74.0
39.0427 74.0
39.0525 80.0
39.0624 65.0
39.0722 77.0
39.0821 75.0
39.0919 77.0
39.1017 74.0
39.1116 72.0
39.1214 72.0
39.1313 63.0
39.1411 66.0
39.151 59.0
39.1608 69.0
39.1707 93.0
39.1805 71.0
39.1904 88.0
39.2002 72.0
39.2101 66.0
39.2199 61.0
39.2298 69.0
39.2396 71.0
39.2495 83.0
39.2593 79.0
39.2692 76.0
39.279 78.0
39.2889 52.0
39.2987 69.0
39.3085 65.0
39.3184 62.0
39.3282 59.0
39.3381 69.0
39.3479 53.0
39.3578 75.0
39.3676 68.0
39.3775 62.0
39.3873 61.0
39.3972 70.0
39.407 55.0
39.4169 68.0
39.4267 56.0
39.4366 58.0
39.4464 71.0
39.4563 62.0
39.4661 60.0
39.476 80.0
39.4858 50.0
39.4957 50.0
39.5055 67.0
39.5154 57.0
39.5252 55.0
39.535 68.0
39.5449 65.0
39.5547 58.0
39.5646 68.0
39.5744 50.0
39.5843 64.0
39.5941 73.0
39.604 62.0
39.6138 66.0
39.6237 78.0
39.6335 77.0
39.6434 72.0
39.6532 65.0
39.6631 60.0
39.6729 76.0
39.6828 73.0
39.6926 75.0
39.7025 58.0
39.7123 69.0
39.7222 65.0
39.732 55.0
39.7418 80.0
39.7517 69.0
39.7615 74.0
39.7714 58.0
39.7812 59.0
39.7911 72.0
39.8009 75.0
39.8108 69.0
39.8206 74.0
39.8305 59.0
39.8403 57.0
39.8502 62.0
39.86 59.0
39.8699 60.0
39.8797 50.0
39.8896 58.0
39.8994 73.0
39.9093 55.0
39.9191 75.0
39.929 46.0
39.9388 68.0
39.9487 68.0
39.9585 60.0
39.9683 51.0
39.9782 60.0
39.988 66.0
39.9979 66.0