File: data/W6779m/XRD_2ThetaOmega/W6779m_absolute_2th-om_10-130deg_PIXscan_17min_1.xy
10.0035 15.0
10.0872 27.0
10.1709 23.0
10.2546 29.0
10.3383 22.0
10.422 21.0
10.5057 12.0
10.5894 16.0
10.6731 25.0
10.7568 19.0
10.8405 21.0
10.9242 17.0
11.0079 16.0
11.0916 26.0
11.1753 30.0
11.259 20.0
11.3428 15.0
11.4265 19.0
11.5102 11.0
11.5939 18.0
11.6776 25.0
11.7613 12.0
11.845 15.0
11.9287 24.0
12.0124 21.0
12.0961 33.0
12.1798 25.0
12.2635 20.0
12.3472 21.0
12.4309 21.0
12.5146 18.0
12.5983 24.0
12.682 13.0
12.7657 20.0
12.8495 21.0
12.9332 18.0
13.0169 17.0
13.1006 18.0
13.1843 11.0
13.268 17.0
13.3517 17.0
13.4354 17.0
13.5191 17.0
13.6028 10.0
13.6865 14.0
13.7702 19.0
13.8539 20.0
13.9376 13.0
14.0213 20.0
14.105 19.0
14.1887 17.0
14.2724 16.0
14.3562 23.0
14.4399 13.0
14.5236 13.0
14.6073 19.0
14.691 24.0
14.7747 25.0
14.8584 16.0
14.9421 17.0
15.0258 11.0
15.1095 13.0
15.1932 9.0
15.2769 6.0
15.3606 17.0
15.4443 19.0
15.528 11.0
15.6117 23.0
15.6954 11.0
15.7791 13.0
15.8629 12.0
15.9466 12.0
16.0303 13.0
16.114 12.0
16.1977 10.0
16.2814 12.0
16.3651 20.0
16.4488 19.0
16.5325 12.0
16.6162 16.0
16.6999 11.0
16.7836 11.0
16.8673 11.0
16.951 10.0
17.0347 15.0
17.1184 10.0
17.2021 11.0
17.2858 13.0
17.3696 15.0
17.4533 13.0
17.537 14.0
17.6207 14.0
17.7044 19.0
17.7881 13.0
17.8718 7.0
17.9555 17.0
18.0392 13.0
18.1229 20.0
18.2066 11.0
18.2903 12.0
18.374 8.0
18.4577 12.0
18.5414 15.0
18.6251 16.0
18.7088 14.0
18.7925 9.0
18.8763 11.0
18.96 12.0
19.0437 11.0
19.1274 16.0
19.2111 11.0
19.2948 15.0
19.3785 7.0
19.4622 8.0
19.5459 13.0
19.6296 9.0
19.7133 5.0
19.797 10.0
19.8807 6.0
19.9644 13.0
20.0481 12.0
20.1318 14.0
20.2155 7.0
20.2992 11.0
20.383 9.0
20.4667 15.0
20.5504 12.0
20.6341 9.0
20.7178 9.0
20.8015 9.0
20.8852 11.0
20.9689 10.0
21.0526 17.0
21.1363 9.0
21.22 11.0
21.3037 9.0
21.3874 6.0
21.4711 7.0
21.5548 9.0
21.6385 12.0
21.7222 3.0
21.8059 9.0
21.8897 15.0
21.9734 10.0
22.0571 7.0
22.1408 9.0
22.2245 12.0
22.3082 13.0
22.3919 13.0
22.4756 18.0
22.5593 12.0
22.643 14.0
22.7267 10.0
22.8104 5.0
22.8941 13.0
22.9778 13.0
23.0615 13.0
23.1452 12.0
23.2289 7.0
23.3126 9.0
23.3964 6.0
23.4801 8.0
23.5638 8.0
23.6475 11.0
23.7312 4.0
23.8149 8.0
23.8986 16.0
23.9823 5.0
24.066 12.0
24.1497 6.0
24.2334 7.0
24.3171 12.0
24.4008 9.0
24.4845 5.0
24.5682 14.0
24.6519 9.0
24.7356 10.0
24.8193 8.0
24.9031 10.0
24.9868 12.0
25.0705 5.0
25.1542 6.0
25.2379 10.0
25.3216 12.0
25.4053 6.0
25.489 4.0
25.5727 9.0
25.6564 7.0
25.7401 9.0
25.8238 7.0
25.9075 11.0
25.9912 11.0
26.0749 8.0
26.1586 10.0
26.2423 14.0
26.326 10.0
26.4098 10.0
26.4935 7.0
26.5772 8.0
26.6609 6.0
26.7446 9.0
26.8283 9.0
26.912 8.0
26.9957 3.0
27.0794 8.0
27.1631 10.0
27.2468 8.0
27.3305 6.0
27.4142 9.0
27.4979 10.0
27.5816 11.0
27.6653 5.0
27.749 10.0
27.8327 5.0
27.9165 12.0
28.0002 4.0
28.0839 7.0
28.1676 8.0
28.2513 6.0
28.335 5.0
28.4187 6.0
28.5024 11.0
28.5861 8.0
28.6698 4.0
28.7535 8.0
28.8372 8.0
28.9209 8.0
29.0046 9.0
29.0883 9.0
29.172 7.0
29.2557 8.0
29.3394 5.0
29.4232 9.0
29.5069 8.0
29.5906 10.0
29.6743 10.0
29.758 5.0
29.8417 5.0
29.9254 11.0
30.0091 6.0
30.0928 8.0
30.1765 6.0
30.2602 11.0
30.3439 3.0
30.4276 6.0
30.5113 7.0
30.595 6.0
30.6787 10.0
30.7624 11.0
30.8461 13.0
30.9298 12.0
31.0136 4.0
31.0973 9.0
31.181 14.0
31.2647 5.0
31.3484 8.0
31.4321 8.0
31.5158 8.0
31.5995 14.0
31.6832 9.0
31.7669 4.0
31.8506 7.0
31.9343 18.0
32.018 9.0
32.1017 7.0
32.1854 8.0
32.2691 9.0
32.3528 10.0
32.4365 10.0
32.5203 8.0
32.604 8.0
32.6877 8.0
32.7714 8.0
32.8551 11.0
32.9388 7.0
33.0225 11.0
33.1062 6.0
33.1899 3.0
33.2736 8.0
33.3573 8.0
33.441 8.0
33.5247 2.0
33.6084 11.0
33.6921 5.0
33.7758 5.0
33.8595 9.0
33.9432 5.0
34.027 12.0
34.1107 6.0
34.1944 8.0
34.2781 5.0
34.3618 6.0
34.4455 5.0
34.5292 9.0
34.6129 11.0
34.6966 7.0
34.7803 9.0
34.864 8.0
34.9477 8.0
35.0314 3.0
35.1151 3.0
35.1988 6.0
35.2825 2.0
35.3662 6.0
35.4499 8.0
35.5337 4.0
35.6174 9.0
35.7011 6.0
35.7848 10.0
35.8685 10.0
35.9522 8.0
36.0359 13.0
36.1196 5.0
36.2033 3.0
36.287 8.0
36.3707 10.0
36.4544 8.0
36.5381 2.0
36.6218 4.0
36.7055 3.0
36.7892 8.0
36.8729 11.0
36.9566 10.0
37.0404 7.0
37.1241 8.0
37.2078 4.0
37.2915 9.0
37.3752 6.0
37.4589 6.0
37.5426 7.0
37.6263 7.0
37.71 8.0
37.7937 8.0
37.8774 10.0
37.9611 10.0
38.0448 12.0
38.1285 8.0
38.2122 8.0
38.2959 11.0
38.3796 10.0
38.4633 11.0
38.5471 6.0
38.6308 6.0
38.7145 10.0
38.7982 7.0
38.8819 11.0
38.9656 4.0
39.0493 14.0
39.133 7.0
39.2167 9.0
39.3004 8.0
39.3841 6.0
39.4678 7.0
39.5515 8.0
39.6352 10.0
39.7189 9.0
39.8026 12.0
39.8863 7.0
39.97 14.0
40.0538 13.0
40.1375 9.0
40.2212 5.0
40.3049 7.0
40.3886 9.0
40.4723 8.0
40.556 13.0
40.6397 5.0
40.7234 9.0
40.8071 11.0
40.8908 9.0
40.9745 8.0
41.0582 11.0
41.1419 13.0
41.2256 8.0
41.3093 10.0
41.393 3.0
41.4767 3.0
41.5605 10.0
41.6442 7.0
41.7279 9.0
41.8116 10.0
41.8953 9.0
41.979 14.0
42.0627 13.0
42.1464 7.0
42.2301 12.0
42.3138 5.0
42.3975 10.0
42.4812 13.0
42.5649 10.0
42.6486 6.0
42.7323 3.0
42.816 9.0
42.8997 6.0
42.9834 7.0
43.0672 7.0
43.1509 9.0
43.2346 8.0
43.3183 7.0
43.402 3.0
43.4857 7.0
43.5694 5.0
43.6531 8.0
43.7368 7.0
43.8205 8.0
43.9042 15.0
43.9879 11.0
44.0716 7.0
44.1553 8.0
44.239 4.0
44.3227 17.0
44.4064 13.0
44.4901 14.0
44.5739 12.0
44.6576 11.0
44.7413 16.0
44.825 10.0
44.9087 13.0
44.9924 4.0
45.0761 11.0
45.1598 6.0
45.2435 11.0
45.3272 5.0
45.4109 7.0
45.4946 10.0
45.5783 4.0
45.662 8.0
45.7457 6.0
45.8294 5.0
45.9131 4.0
45.9968 9.0
46.0806 14.0
46.1643 10.0
46.248 5.0
46.3317 8.0
46.4154 8.0
46.4991 16.0
46.5828 8.0
46.6665 9.0
46.7502 4.0
46.8339 4.0
46.9176 8.0
47.0013 9.0
47.085 10.0
47.1687 7.0
47.2524 9.0
47.3361 6.0
47.4198 5.0
47.5035 5.0
47.5873 10.0
47.671 11.0
47.7547 8.0
47.8384 10.0
47.9221 12.0
48.0058 6.0
48.0895 12.0
48.1732 2.0
48.2569 9.0
48.3406 10.0
48.4243 16.0
48.508 3.0
48.5917 7.0
48.6754 9.0
48.7591 5.0
48.8428 4.0
48.9265 11.0
49.0102 8.0
49.094 10.0
49.1777 8.0
49.2614 7.0
49.3451 10.0
49.4288 9.0
49.5125 13.0
49.5962 8.0
49.6799 5.0
49.7636 4.0
49.8473 9.0
49.931 11.0
50.0147 11.0
50.0984 8.0
50.1821 15.0
50.2658 11.0
50.3495 13.0
50.4332 2.0
50.5169 9.0
50.6007 6.0
50.6844 14.0
50.7681 8.0
50.8518 11.0
50.9355 13.0
51.0192 9.0
51.1029 7.0
51.1866 5.0
51.2703 11.0
51.354 6.0
51.4377 11.0
51.5214 4.0
51.6051 6.0
51.6888 11.0
51.7725 7.0
51.8562 12.0
51.9399 3.0
52.0236 5.0
52.1074 8.0
52.1911 6.0
52.2748 5.0
52.3585 10.0
52.4422 7.0
52.5259 11.0
52.6096 12.0
52.6933 11.0
52.777 8.0
52.8607 9.0
52.9444 10.0
53.0281 5.0
53.1118 11.0
53.1955 3.0
53.2792 10.0
53.3629 6.0
53.4466 9.0
53.5303 7.0
53.6141 7.0
53.6978 5.0
53.7815 13.0
53.8652 9.0
53.9489 10.0
54.0326 6.0
54.1163 6.0
54.2 10.0
54.2837 5.0
54.3674 7.0
54.4511 6.0
54.5348 6.0
54.6185 14.0
54.7022 8.0
54.7859 10.0
54.8696 10.0
54.9533 5.0
55.037 12.0
55.1208 3.0
55.2045 9.0
55.2882 4.0
55.3719 4.0
55.4556 6.0
55.5393 11.0
55.623 7.0
55.7067 7.0
55.7904 8.0
55.8741 12.0
55.9578 8.0
56.0415 12.0
56.1252 10.0
56.2089 8.0
56.2926 4.0
56.3763 15.0
56.46 14.0
56.5437 7.0
56.6275 9.0
56.7112 10.0
56.7949 7.0
56.8786 5.0
56.9623 9.0
57.046 9.0
57.1297 11.0
57.2134 6.0
57.2971 10.0
57.3808 9.0
57.4645 6.0
57.5482 12.0
57.6319 3.0
57.7156 8.0
57.7993 12.0
57.883 7.0
57.9667 7.0
58.0504 4.0
58.1342 9.0
58.2179 14.0
58.3016 6.0
58.3853 6.0
58.469 8.0
58.5527 6.0
58.6364 13.0
58.7201 7.0
58.8038 9.0
58.8875 8.0
58.9712 9.0
59.0549 10.0
59.1386 13.0
59.2223 7.0
59.306 10.0
59.3897 7.0
59.4734 6.0
59.5571 6.0
59.6409 12.0
59.7246 5.0
59.8083 10.0
59.892 16.0
59.9757 7.0
60.0594 7.0
60.1431 9.0
60.2268 7.0
60.3105 9.0
60.3942 12.0
60.4779 11.0
60.5616 5.0
60.6453 13.0
60.729 9.0
60.8127 104.0
60.8964 27.0
60.9801 23.0
61.0638 13.0
61.1476 13.0
61.2313 11.0
61.315 13.0
61.3987 14.0
61.4824 11.0
61.5661 12.0
61.6498 15.0
61.7335 9.0
61.8172 14.0
61.9009 11.0
61.9846 13.0
62.0683 9.0
62.152 8.0
62.2357 10.0
62.3194 12.0
62.4031 12.0
62.4868 10.0
62.5705 14.0
62.6543 18.0
62.738 11.0
62.8217 13.0
62.9054 10.0
62.9891 15.0
63.0728 14.0
63.1565 8.0
63.2402 12.0
63.3239 9.0
63.4076 11.0
63.4913 16.0
63.575 23.0
63.6587 11.0
63.7424 11.0
63.8261 11.0
63.9098 17.0
63.9935 24.0
64.0772 33.0
64.161 22.0
64.2447 23.0
64.3284 43.0
64.4121 56.0
64.4958 66.0
64.5795 90.0
64.6632 172.0
64.7469 259.0
64.8306 268.0
64.9143 290.0
64.998 233.0
65.0817 83.0
65.1654 57.0
65.2491 26.0
65.3328 34.0
65.4165 27.0
65.5002 44.0
65.5839 27.0
65.6677 17.0
65.7514 19.0
65.8351 20.0
65.9188 14.0
66.0025 21.0
66.0862 28.0
66.1699 12.0
66.2536 17.0
66.3373 24.0
66.421 23.0
66.5047 14.0
66.5884 23.0
66.6721 23.0
66.7558 30.0
66.8395 21.0
66.9232 29.0
67.0069 29.0
67.0906 48.0
67.1744 37.0
67.2581 46.0
67.3418 38.0
67.4255 42.0
67.5092 71.0
67.5929 71.0
67.6766 112.0
67.7603 170.0
67.844 290.0
67.9277 325.0
68.0114 674.0
68.0951 4128.0
68.1788 20274.0
68.2625 1921.0
68.3462 17616.0
68.4299 1282.0
68.5136 443.0
68.5973 283.0
68.6811 163.0
68.7648 128.0
68.8485 123.0
68.9322 88.0
69.0159 91.0
69.0996 58.0
69.1833 73.0
69.267 53.0
69.3507 71.0
69.4344 63.0
69.5181 53.0
69.6018 52.0
69.6855 57.0
69.7692 47.0
69.8529 42.0
69.9366 39.0
70.0203 40.0
70.104 42.0
70.1878 24.0
70.2715 29.0
70.3552 29.0
70.4389 35.0
70.5226 24.0
70.6063 34.0
70.69 24.0
70.7737 16.0
70.8574 16.0
70.9411 17.0
71.0248 18.0
71.1085 16.0
71.1922 23.0
71.2759 17.0
71.3596 16.0
71.4433 15.0
71.527 17.0
71.6107 16.0
71.6945 19.0
71.7782 10.0
71.8619 19.0
71.9456 11.0
72.0293 15.0
72.113 5.0
72.1967 12.0
72.2804 19.0
72.3641 5.0
72.4478 11.0
72.5315 10.0
72.6152 16.0
72.6989 11.0
72.7826 14.0
72.8663 14.0
72.95 14.0
73.0337 12.0
73.1174 11.0
73.2012 11.0
73.2849 12.0
73.3686 8.0
73.4523 13.0
73.536 13.0
73.6197 11.0
73.7034 10.0
73.7871 12.0
73.8708 15.0
73.9545 10.0
74.0382 10.0
74.1219 11.0
74.2056 6.0
74.2893 10.0
74.373 7.0
74.4567 7.0
74.5404 14.0
74.6241 15.0
74.7079 14.0
74.7916 14.0
74.8753 11.0
74.959 15.0
75.0427 11.0
75.1264 13.0
75.2101 6.0
75.2938 13.0
75.3775 9.0
75.4612 10.0
75.5449 9.0
75.6286 12.0
75.7123 9.0
75.796 14.0
75.8797 7.0
75.9634 12.0
76.0471 7.0
76.1308 8.0
76.2146 12.0
76.2983 12.0
76.382 9.0
76.4657 6.0
76.5494 11.0
76.6331 7.0
76.7168 8.0
76.8005 13.0
76.8842 5.0
76.9679 10.0
77.0516 16.0
77.1353 8.0
77.219 13.0
77.3027 8.0
77.3864 9.0
77.4701 4.0
77.5538 7.0
77.6375 20.0
77.7213 14.0
77.805 11.0
77.8887 6.0
77.9724 9.0
78.0561 11.0
78.1398 13.0
78.2235 9.0
78.3072 5.0
78.3909 11.0
78.4746 15.0
78.5583 11.0
78.642 10.0
78.7257 10.0
78.8094 12.0
78.8931 5.0
78.9768 13.0
79.0605 10.0
79.1442 7.0
79.228 14.0
79.3117 9.0
79.3954 9.0
79.4791 9.0
79.5628 5.0
79.6465 13.0
79.7302 4.0
79.8139 6.0
79.8976 7.0
79.9813 13.0
80.065 9.0
80.1487 11.0
80.2324 11.0
80.3161 11.0
80.3998 9.0
80.4835 11.0
80.5672 14.0
80.6509 7.0
80.7347 11.0
80.8184 11.0
80.9021 10.0
80.9858 15.0
81.0695 4.0
81.1532 5.0
81.2369 11.0
81.3206 12.0
81.4043 5.0
81.488 3.0
81.5717 12.0
81.6554 7.0
81.7391 13.0
81.8228 12.0
81.9065 6.0
81.9902 7.0
82.0739 13.0
82.1576 8.0
82.2414 10.0
82.3251 18.0
82.4088 12.0
82.4925 7.0
82.5762 19.0
82.6599 11.0
82.7436 13.0
82.8273 18.0
82.911 9.0
82.9947 12.0
83.0784 12.0
83.1621 11.0
83.2458 3.0
83.3295 11.0
83.4132 9.0
83.4969 7.0
83.5806 7.0
83.6643 6.0
83.7481 11.0
83.8318 8.0
83.9155 7.0
83.9992 7.0
84.0829 7.0
84.1666 5.0
84.2503 16.0
84.334 11.0
84.4177 10.0
84.5014 12.0
84.5851 11.0
84.6688 8.0
84.7525 11.0
84.8362 5.0
84.9199 8.0
85.0036 11.0
85.0873 5.0
85.171 8.0
85.2548 14.0
85.3385 10.0
85.4222 8.0
85.5059 11.0
85.5896 10.0
85.6733 14.0
85.757 12.0
85.8407 12.0
85.9244 4.0
86.0081 8.0
86.0918 7.0
86.1755 7.0
86.2592 8.0
86.3429 8.0
86.4266 8.0
86.5103 14.0
86.594 8.0
86.6777 13.0
86.7615 16.0
86.8452 10.0
86.9289 13.0
87.0126 22.0
87.0963 8.0
87.18 11.0
87.2637 13.0
87.3474 6.0
87.4311 12.0
87.5148 9.0
87.5985 12.0
87.6822 13.0
87.7659 7.0
87.8496 4.0
87.9333 16.0
88.017 11.0
88.1007 13.0
88.1844 9.0
88.2682 13.0
88.3519 8.0
88.4356 10.0
88.5193 7.0
88.603 7.0
88.6867 9.0
88.7704 7.0
88.8541 7.0
88.9378 9.0
89.0215 10.0
89.1052 7.0
89.1889 10.0
89.2726 12.0
89.3563 10.0
89.44 12.0
89.5237 13.0
89.6074 2.0
89.6911 9.0
89.7749 13.0
89.8586 14.0
89.9423 11.0
90.026 6.0
90.1097 10.0
90.1934 8.0
90.2771 8.0
90.3608 9.0
90.4445 7.0
90.5282 7.0
90.6119 6.0
90.6956 12.0
90.7793 7.0
90.863 6.0
90.9467 6.0
91.0304 7.0
91.1141 13.0
91.1978 14.0
91.2816 17.0
91.3653 9.0
91.449 13.0
91.5327 12.0
91.6164 4.0
91.7001 11.0
91.7838 14.0
91.8675 15.0
91.9512 13.0
92.0349 10.0
92.1186 9.0
92.2023 9.0
92.286 11.0
92.3697 16.0
92.4534 11.0
92.5371 13.0
92.6208 14.0
92.7045 15.0
92.7883 7.0
92.872 9.0
92.9557 14.0
93.0394 9.0
93.1231 10.0
93.2068 19.0
93.2905 10.0
93.3742 7.0
93.4579 8.0
93.5416 4.0
93.6253 7.0
93.709 12.0
93.7927 11.0
93.8764 10.0
93.9601 4.0
94.0438 11.0
94.1275 13.0
94.2112 8.0
94.295 10.0
94.3787 7.0
94.4624 9.0
94.5461 15.0
94.6298 10.0
94.7135 10.0
94.7972 11.0
94.8809 12.0
94.9646 9.0
95.0483 8.0
95.132 2.0
95.2157 13.0
95.2994 11.0
95.3831 5.0
95.4668 6.0
95.5505 6.0
95.6342 5.0
95.7179 10.0
95.8017 11.0
95.8854 12.0
95.9691 12.0
96.0528 12.0
96.1365 3.0
96.2202 9.0
96.3039 12.0
96.3876 10.0
96.4713 7.0
96.555 12.0
96.6387 6.0
96.7224 9.0
96.8061 8.0
96.8898 7.0
96.9735 17.0
97.0572 17.0
97.1409 12.0
97.2246 12.0
97.3084 9.0
97.3921 10.0
97.4758 4.0
97.5595 12.0
97.6432 12.0
97.7269 9.0
97.8106 11.0
97.8943 16.0
97.978 11.0
98.0617 8.0
98.1454 13.0
98.2291 11.0
98.3128 7.0
98.3965 11.0
98.4802 10.0
98.5639 17.0
98.6476 9.0
98.7313 11.0
98.8151 10.0
98.8988 13.0
98.9825 9.0
99.0662 13.0
99.1499 8.0
99.2336 9.0
99.3173 8.0
99.401 13.0
99.4847 13.0
99.5684 11.0
99.6521 3.0
99.7358 7.0
99.8195 8.0
99.9032 10.0
99.9869 10.0
100.071 14.0
100.154 13.0
100.238 12.0
100.322 15.0
100.405 14.0
100.489 10.0
100.573 8.0
100.657 6.0
100.74 9.0
100.824 7.0
100.908 12.0
100.991 9.0
101.075 13.0
101.159 10.0
101.243 11.0
101.326 5.0
101.41 10.0
101.494 9.0
101.577 6.0
101.661 8.0
101.745 8.0
101.828 5.0
101.912 16.0
101.996 7.0
102.08 7.0
102.163 12.0
102.247 10.0
102.331 13.0
102.414 7.0
102.498 9.0
102.582 10.0
102.666 9.0
102.749 9.0
102.833 13.0
102.917 11.0
103 11.0
103.084 5.0
103.168 14.0
103.251 11.0
103.335 10.0
103.419 5.0
103.503 9.0
103.586 7.0
103.67 7.0
103.754 5.0
103.837 12.0
103.921 11.0
104.005 7.0
104.089 8.0
104.172 7.0
104.256 15.0
104.34 10.0
104.423 8.0
104.507 8.0
104.591 9.0
104.674 14.0
104.758 9.0
104.842 13.0
104.926 10.0
105.009 9.0
105.093 14.0
105.177 10.0
105.26 14.0
105.344 5.0
105.428 10.0
105.511 11.0
105.595 15.0
105.679 6.0
105.763 7.0
105.846 14.0
105.93 10.0
106.014 11.0
106.097 16.0
106.181 15.0
106.265 6.0
106.349 8.0
106.432 14.0
106.516 10.0
106.6 7.0
106.683 8.0
106.767 5.0
106.851 9.0
106.934 10.0
107.018 8.0
107.102 9.0
107.186 9.0
107.269 9.0
107.353 4.0
107.437 3.0
107.52 7.0
107.604 8.0
107.688 6.0
107.772 12.0
107.855 9.0
107.939 7.0
108.023 12.0
108.106 17.0
108.19 14.0
108.274 7.0
108.357 7.0
108.441 11.0
108.525 7.0
108.609 12.0
108.692 11.0
108.776 4.0
108.86 7.0
108.943 16.0
109.027 13.0
109.111 10.0
109.195 15.0
109.278 10.0
109.362 15.0
109.446 7.0
109.529 10.0
109.613 10.0
109.697 8.0
109.78 8.0
109.864 12.0
109.948 15.0
110.032 5.0
110.115 9.0
110.199 14.0
110.283 9.0
110.366 11.0
110.45 9.0
110.534 14.0
110.618 14.0
110.701 9.0
110.785 9.0
110.869 12.0
110.952 18.0
111.036 13.0
111.12 9.0
111.203 14.0
111.287 8.0
111.371 9.0
111.455 9.0
111.538 6.0
111.622 7.0
111.706 11.0
111.789 17.0
111.873 7.0
111.957 9.0
112.041 11.0
112.124 7.0
112.208 4.0
112.292 6.0
112.375 10.0
112.459 11.0
112.543 10.0
112.626 8.0
112.71 13.0
112.794 11.0
112.878 14.0
112.961 10.0
113.045 9.0
113.129 9.0
113.212 12.0
113.296 6.0
113.38 18.0
113.464 10.0
113.547 9.0
113.631 7.0
113.715 8.0
113.798 5.0
113.882 14.0
113.966 10.0
114.049 10.0
114.133 11.0
114.217 11.0
114.301 12.0
114.384 3.0
114.468 11.0
114.552 13.0
114.635 8.0
114.719 12.0
114.803 17.0
114.887 9.0
114.97 9.0
115.054 8.0
115.138 6.0
115.221 10.0
115.305 10.0
115.389 12.0
115.472 12.0
115.556 16.0
115.64 6.0
115.724 13.0
115.807 13.0
115.891 20.0
115.975 15.0
116.058 11.0
116.142 6.0
116.226 15.0
116.31 13.0
116.393 15.0
116.477 10.0
116.561 11.0
116.644 8.0
116.728 12.0
116.812 4.0
116.895 7.0
116.979 7.0
117.063 9.0
117.147 12.0
117.23 12.0
117.314 5.0
117.398 12.0
117.481 6.0
117.565 9.0
117.649 15.0
117.733 7.0
117.816 14.0
117.9 18.0
117.984 7.0
118.067 7.0
118.151 6.0
118.235 10.0
118.318 11.0
118.402 8.0
118.486 9.0
118.57 10.0
118.653 12.0
118.737 12.0
118.821 6.0
118.904 18.0
118.988 5.0
119.072 10.0
119.156 8.0
119.239 12.0
119.323 8.0
119.407 14.0
119.49 10.0
119.574 11.0
119.658 5.0
119.741 12.0
119.825 6.0
119.909 8.0
119.993 9.0
120.076 4.0
120.16 12.0
120.244 12.0
120.327 13.0
120.411 9.0
120.495 12.0
120.578 8.0
120.662 6.0
120.746 13.0
120.83 7.0
120.913 15.0
120.997 15.0
121.081 7.0
121.164 6.0
121.248 14.0
121.332 12.0
121.416 11.0
121.499 15.0
121.583 6.0
121.667 15.0
121.75 9.0
121.834 14.0
121.918 7.0
122.001 7.0
122.085 9.0
122.169 12.0
122.253 10.0
122.336 11.0
122.42 6.0
122.504 13.0
122.587 8.0
122.671 13.0
122.755 9.0
122.839 11.0
122.922 10.0
123.006 12.0
123.09 10.0
123.173 15.0
123.257 9.0
123.341 11.0
123.424 14.0
123.508 13.0
123.592 13.0
123.676 16.0
123.759 9.0
123.843 15.0
123.927 10.0
124.01 10.0
124.094 8.0
124.178 16.0
124.262 7.0
124.345 12.0
124.429 4.0
124.513 6.0
124.596 5.0
124.68 11.0
124.764 5.0
124.847 10.0
124.931 10.0
125.015 8.0
125.099 11.0
125.182 11.0
125.266 7.0
125.35 13.0
125.433 13.0
125.517 6.0
125.601 10.0
125.685 15.0
125.768 10.0
125.852 13.0
125.936 13.0
126.019 8.0
126.103 15.0
126.187 9.0
126.27 20.0
126.354 10.0
126.438 15.0
126.522 8.0
126.605 8.0
126.689 11.0
126.773 12.0
126.856 10.0
126.94 17.0
127.024 14.0
127.108 17.0
127.191 13.0
127.275 5.0
127.359 11.0
127.442 12.0
127.526 10.0
127.61 6.0
127.693 19.0
127.777 4.0
127.861 13.0
127.945 13.0
128.028 8.0
128.112 7.0
128.196 9.0
128.279 9.0
128.363 4.0
128.447 9.0
128.531 7.0
128.614 8.0
128.698 10.0
128.782 16.0
128.865 6.0
128.949 11.0
129.033 11.0
129.116 6.0
129.2 6.0
129.284 7.0
129.368 6.0
129.451 10.0
129.535 9.0
129.619 9.0
129.702 10.0
129.786 9.0
129.87 14.0
129.954 14.0
129.998 9.0