File: data/W6908r/XRD_Omega/w6908r_r-Cr2O3_scan_omega_4deg_step_0.005deg0.xy
23.10080 72.0
23.10580 57.0
23.11080 61.0
23.11580 62.0
23.12080 61.0
23.12580 66.0
23.13080 63.0
23.13580 73.0
23.14080 58.0
23.14580 68.0
23.15080 88.0
23.15580 66.0
23.16080 57.0
23.16580 61.0
23.17080 49.0
23.17580 78.0
23.18080 65.0
23.18580 72.0
23.19080 58.0
23.19580 57.0
23.20080 57.0
23.20580 56.0
23.21080 56.0
23.21580 60.0
23.22080 55.0
23.22580 52.0
23.23080 55.0
23.23580 62.0
23.24080 63.0
23.24580 55.0
23.25080 64.0
23.25580 60.0
23.26080 59.0
23.26580 88.0
23.27080 53.0
23.27580 61.0
23.28080 54.0
23.28580 57.0
23.29080 70.0
23.29580 68.0
23.30080 57.0
23.30580 58.0
23.31080 57.0
23.31580 64.0
23.32080 66.0
23.32580 66.0
23.33080 54.0
23.33580 69.0
23.34080 55.0
23.34580 48.0
23.35080 47.0
23.35580 58.0
23.36080 58.0
23.36580 71.0
23.37080 68.0
23.37580 65.0
23.38080 67.0
23.38580 72.0
23.39080 72.0
23.39580 72.0
23.40080 66.0
23.40580 56.0
23.41080 67.0
23.41580 72.0
23.42080 83.0
23.42580 58.0
23.43080 59.0
23.43580 52.0
23.44080 59.0
23.44580 74.0
23.45080 64.0
23.45580 60.0
23.46080 64.0
23.46580 62.0
23.47080 72.0
23.47580 63.0
23.48080 70.0
23.48580 61.0
23.49080 52.0
23.49580 52.0
23.50080 60.0
23.50580 61.0
23.51080 60.0
23.51580 63.0
23.52080 78.0
23.52580 70.0
23.53080 67.0
23.53580 73.0
23.54080 64.0
23.54580 67.0
23.55080 62.0
23.55580 65.0
23.56080 70.0
23.56580 66.0
23.57080 67.0
23.57580 75.0
23.58080 63.0
23.58580 60.0
23.59080 78.0
23.59580 63.0
23.60080 73.0
23.60580 59.0
23.61080 73.0
23.61580 65.0
23.62080 74.0
23.62580 85.0
23.63080 60.0
23.63580 79.0
23.64080 78.0
23.64580 55.0
23.65080 69.0
23.65580 68.0
23.66080 79.0
23.66580 73.0
23.67080 74.0
23.67580 89.0
23.68080 75.0
23.68580 65.0
23.69080 85.0
23.69580 72.0
23.70080 47.0
23.70580 65.0
23.71080 64.0
23.71580 64.0
23.72080 64.0
23.72580 72.0
23.73080 88.0
23.73580 69.0
23.74080 65.0
23.74580 58.0
23.75080 81.0
23.75580 78.0
23.76080 62.0
23.76580 76.0
23.77080 65.0
23.77580 64.0
23.78080 73.0
23.78580 67.0
23.79080 90.0
23.79580 77.0
23.80080 74.0
23.80580 94.0
23.81080 78.0
23.81580 78.0
23.82080 64.0
23.82580 75.0
23.83080 70.0
23.83580 71.0
23.84080 73.0
23.84580 92.0
23.85080 72.0
23.85580 89.0
23.86080 74.0
23.86580 78.0
23.87080 85.0
23.87580 95.0
23.88080 90.0
23.88580 77.0
23.89080 87.0
23.89580 75.0
23.90080 71.0
23.90580 88.0
23.91080 76.0
23.91580 88.0
23.92080 78.0
23.92580 70.0
23.93080 89.0
23.93580 60.0
23.94080 79.0
23.94580 84.0
23.95080 83.0
23.95580 81.0
23.96080 93.0
23.96580 78.0
23.97080 81.0
23.97580 78.0
23.98080 88.0
23.98580 80.0
23.99080 93.0
23.99580 65.0
24.00080 82.0
24.00580 86.0
24.01080 59.0
24.01580 96.0
24.02080 67.0
24.02580 70.0
24.03080 95.0
24.03580 81.0
24.04080 80.0
24.04580 70.0
24.05080 79.0
24.05580 81.0
24.06080 81.0
24.06580 78.0
24.07080 84.0
24.07580 73.0
24.08080 81.0
24.08580 84.0
24.09080 95.0
24.09580 83.0
24.10080 70.0
24.10580 85.0
24.11080 96.0
24.11580 95.0
24.12080 67.0
24.12580 80.0
24.13080 87.0
24.13580 88.0
24.14080 76.0
24.14580 85.0
24.15080 77.0
24.15580 76.0
24.16080 83.0
24.16580 84.0
24.17080 109.0
24.17580 76.0
24.18080 73.0
24.18580 100.0
24.19080 82.0
24.19580 86.0
24.20080 75.0
24.20580 108.0
24.21080 95.0
24.21580 111.0
24.22080 99.0
24.22580 98.0
24.23080 90.0
24.23580 81.0
24.24080 103.0
24.24580 91.0
24.25080 103.0
24.25580 85.0
24.26080 98.0
24.26580 74.0
24.27080 92.0
24.27580 79.0
24.28080 94.0
24.28580 92.0
24.29080 92.0
24.29580 86.0
24.30080 102.0
24.30580 92.0
24.31080 112.0
24.31580 82.0
24.32080 79.0
24.32580 109.0
24.33080 91.0
24.33580 107.0
24.34080 94.0
24.34580 105.0
24.35080 83.0
24.35580 107.0
24.36080 94.0
24.36580 98.0
24.37080 88.0
24.37580 94.0
24.38080 113.0
24.38580 81.0
24.39080 91.0
24.39580 91.0
24.40080 101.0
24.40580 88.0
24.41080 102.0
24.41580 91.0
24.42080 95.0
24.42580 97.0
24.43080 112.0
24.43580 89.0
24.44080 109.0
24.44580 100.0
24.45080 99.0
24.45580 107.0
24.46080 80.0
24.46580 106.0
24.47080 111.0
24.47580 114.0
24.48080 103.0
24.48580 102.0
24.49080 102.0
24.49580 92.0
24.50080 109.0
24.50580 110.0
24.51080 89.0
24.51580 98.0
24.52080 108.0
24.52580 89.0
24.53080 112.0
24.53580 103.0
24.54080 105.0
24.54580 99.0
24.55080 121.0
24.55580 114.0
24.56080 96.0
24.56580 114.0
24.57080 107.0
24.57580 96.0
24.58080 102.0
24.58580 121.0
24.59080 105.0
24.59580 116.0
24.60080 114.0
24.60580 87.0
24.61080 129.0
24.61580 89.0
24.62080 139.0
24.62580 114.0
24.63080 98.0
24.63580 123.0
24.64080 78.0
24.64580 109.0
24.65080 123.0
24.65580 98.0
24.66080 120.0
24.66580 112.0
24.67080 113.0
24.67580 116.0
24.68080 129.0
24.68580 120.0
24.69080 118.0
24.69580 136.0
24.70080 127.0
24.70580 119.0
24.71080 120.0
24.71580 103.0
24.72080 121.0
24.72580 110.0
24.73080 125.0
24.73580 123.0
24.74080 117.0
24.74580 105.0
24.75080 112.0
24.75580 112.0
24.76080 118.0
24.76580 125.0
24.77080 127.0
24.77580 120.0
24.78080 129.0
24.78580 123.0
24.79080 120.0
24.79580 115.0
24.80080 109.0
24.80580 112.0
24.81080 126.0
24.81580 127.0
24.82080 129.0
24.82580 129.0
24.83080 133.0
24.83580 120.0
24.84080 119.0
24.84580 112.0
24.85080 97.0
24.85580 118.0
24.86080 107.0
24.86580 116.0
24.87080 116.0
24.87580 123.0
24.88080 141.0
24.88580 96.0
24.89080 131.0
24.89580 113.0
24.90080 135.0
24.90580 132.0
24.91080 134.0
24.91580 117.0
24.92080 141.0
24.92580 144.0
24.93080 130.0
24.93580 134.0
24.94080 144.0
24.94580 180.0
24.95080 172.0
24.95580 186.0
24.96080 180.0
24.96580 179.0
24.97080 199.0
24.97580 190.0
24.98080 185.0
24.98580 190.0
24.99080 232.0
24.99580 196.0
25.00080 217.0
25.00580 195.0
25.01080 179.0
25.01580 204.0
25.02080 194.0
25.02580 216.0
25.03080 212.0
25.03580 241.0
25.04080 271.0
25.04580 242.0
25.05080 291.0
25.05580 253.0
25.06080 297.0
25.06580 291.0
25.07080 264.0
25.07580 299.0
25.08080 251.0
25.08580 248.0
25.09080 277.0
25.09580 253.0
25.10080 258.0
25.10580 238.0
25.11080 215.0
25.11580 251.0
25.12080 230.0
25.12580 251.0
25.13080 244.0
25.13580 248.0
25.14080 235.0
25.14580 238.0
25.15080 243.0
25.15580 239.0
25.16080 250.0
25.16580 246.0
25.17080 267.0
25.17580 261.0
25.18080 240.0
25.18580 244.0
25.19080 270.0
25.19580 223.0
25.20080 208.0
25.20580 221.0
25.21080 180.0
25.21580 172.0
25.22080 151.0
25.22580 149.0
25.23080 166.0
25.23580 148.0
25.24080 122.0
25.24580 141.0
25.25080 120.0
25.25580 145.0
25.26080 132.0
25.26580 125.0
25.27080 128.0
25.27580 109.0
25.28080 128.0
25.28580 129.0
25.29080 126.0
25.29580 127.0
25.30080 122.0
25.30580 128.0
25.31080 132.0
25.31580 106.0
25.32080 117.0
25.32580 101.0
25.33080 129.0
25.33580 122.0
25.34080 122.0
25.34580 96.0
25.35080 97.0
25.35580 126.0
25.36080 93.0
25.36580 124.0
25.37080 114.0
25.37580 114.0
25.38080 132.0
25.38580 120.0
25.39080 130.0
25.39580 111.0
25.40080 130.0
25.40580 108.0
25.41080 124.0
25.41580 115.0
25.42080 116.0
25.42580 100.0
25.43080 105.0
25.43580 132.0
25.44080 112.0
25.44580 103.0
25.45080 121.0
25.45580 109.0
25.46080 120.0
25.46580 116.0
25.47080 100.0
25.47580 121.0
25.48080 111.0
25.48580 121.0
25.49080 109.0
25.49580 106.0
25.50080 113.0
25.50580 113.0
25.51080 118.0
25.51580 114.0
25.52080 112.0
25.52580 106.0
25.53080 116.0
25.53580 116.0
25.54080 109.0
25.54580 115.0
25.55080 98.0
25.55580 99.0
25.56080 104.0
25.56580 100.0
25.57080 104.0
25.57580 113.0
25.58080 97.0
25.58580 115.0
25.59080 105.0
25.59580 103.0
25.60080 113.0
25.60580 105.0
25.61080 113.0
25.61580 99.0
25.62080 100.0
25.62580 103.0
25.63080 112.0
25.63580 108.0
25.64080 116.0
25.64580 108.0
25.65080 103.0
25.65580 122.0
25.66080 123.0
25.66580 112.0
25.67080 102.0
25.67580 89.0
25.68080 104.0
25.68580 99.0
25.69080 108.0
25.69580 97.0
25.70080 117.0
25.70580 107.0
25.71080 84.0
25.71580 120.0
25.72080 97.0
25.72580 109.0
25.73080 97.0
25.73580 97.0
25.74080 91.0
25.74580 116.0
25.75080 94.0
25.75580 81.0
25.76080 91.0
25.76580 101.0
25.77080 81.0
25.77580 102.0
25.78080 92.0
25.78580 91.0
25.79080 116.0
25.79580 86.0
25.80080 79.0
25.80580 104.0
25.81080 104.0
25.81580 86.0
25.82080 87.0
25.82580 90.0
25.83080 118.0
25.83580 83.0
25.84080 92.0
25.84580 76.0
25.85080 97.0
25.85580 84.0
25.86080 89.0
25.86580 79.0
25.87080 106.0
25.87580 105.0
25.88080 87.0
25.88580 86.0
25.89080 89.0
25.89580 77.0
25.90080 77.0
25.90580 80.0
25.91080 90.0
25.91580 102.0
25.92080 97.0
25.92580 87.0
25.93080 105.0
25.93580 94.0
25.94080 90.0
25.94580 96.0
25.95080 96.0
25.95580 90.0
25.96080 72.0
25.96580 88.0
25.97080 84.0
25.97580 86.0
25.98080 84.0
25.98580 82.0
25.99080 75.0
25.99580 102.0
26.00080 95.0
26.00580 90.0
26.01080 87.0
26.01580 79.0
26.02080 75.0
26.02580 100.0
26.03080 76.0
26.03580 98.0
26.04080 88.0
26.04580 84.0
26.05080 81.0
26.05580 75.0
26.06080 88.0
26.06580 95.0
26.07080 86.0
26.07580 81.0
26.08080 77.0
26.08580 84.0
26.09080 87.0
26.09580 70.0
26.10080 91.0
26.10580 65.0
26.11080 84.0
26.11580 82.0
26.12080 74.0
26.12580 85.0
26.13080 70.0
26.13580 78.0
26.14080 77.0
26.14580 75.0
26.15080 77.0
26.15580 91.0
26.16080 69.0
26.16580 84.0
26.17080 76.0
26.17580 75.0
26.18080 68.0
26.18580 83.0
26.19080 83.0
26.19580 85.0
26.20080 86.0
26.20580 72.0
26.21080 84.0
26.21580 90.0
26.22080 96.0
26.22580 77.0
26.23080 91.0
26.23580 93.0
26.24080 76.0
26.24580 83.0
26.25080 79.0
26.25580 70.0
26.26080 82.0
26.26580 63.0
26.27080 67.0
26.27580 76.0
26.28080 87.0
26.28580 85.0
26.29080 65.0
26.29580 80.0
26.30080 68.0
26.30580 83.0
26.31080 81.0
26.31580 63.0
26.32080 61.0
26.32580 79.0
26.33080 81.0
26.33580 76.0
26.34080 72.0
26.34580 64.0
26.35080 71.0
26.35580 65.0
26.36080 79.0
26.36580 69.0
26.37080 60.0
26.37580 69.0
26.38080 60.0
26.38580 70.0
26.39080 68.0
26.39580 69.0
26.40080 60.0
26.40580 71.0
26.41080 62.0
26.41580 73.0
26.42080 76.0
26.42580 56.0
26.43080 67.0
26.43580 68.0
26.44080 64.0
26.44580 70.0
26.45080 65.0
26.45580 60.0
26.46080 59.0
26.46580 58.0
26.47080 56.0
26.47580 58.0
26.48080 65.0
26.48580 57.0
26.49080 74.0
26.49580 65.0
26.50080 61.0
26.50580 73.0
26.51080 66.0
26.51580 80.0
26.52080 56.0
26.52580 66.0
26.53080 68.0
26.53580 61.0
26.54080 62.0
26.54580 74.0
26.55080 61.0
26.55580 67.0
26.56080 52.0
26.56580 68.0
26.57080 72.0
26.57580 53.0
26.58080 59.0
26.58580 65.0
26.59080 55.0
26.59580 69.0
26.60080 61.0
26.60580 51.0
26.61080 70.0
26.61580 77.0
26.62080 54.0
26.62580 53.0
26.63080 67.0
26.63580 67.0
26.64080 59.0
26.64580 46.0
26.65080 65.0
26.65580 67.0
26.66080 74.0
26.66580 73.0
26.67080 61.0
26.67580 70.0
26.68080 64.0
26.68580 49.0
26.69080 56.0
26.69580 70.0
26.70080 57.0
26.70580 51.0
26.71080 61.0
26.71580 63.0
26.72080 58.0
26.72580 73.0
26.73080 75.0
26.73580 70.0
26.74080 47.0
26.74580 66.0
26.75080 65.0
26.75580 62.0
26.76080 49.0
26.76580 55.0
26.77080 63.0
26.77580 59.0
26.78080 51.0
26.78580 48.0
26.79080 55.0
26.79580 55.0
26.80080 62.0
26.80580 53.0
26.81080 51.0
26.81580 51.0
26.82080 45.0
26.82580 66.0
26.83080 70.0
26.83580 57.0
26.84080 59.0
26.84580 54.0
26.85080 66.0
26.85580 60.0
26.86080 67.0
26.86580 59.0
26.87080 60.0
26.87580 59.0
26.88080 58.0
26.88580 62.0
26.89080 53.0
26.89580 58.0
26.90080 64.0
26.90580 66.0
26.91080 61.0
26.91580 59.0
26.92080 50.0
26.92580 61.0
26.93080 70.0
26.93580 58.0
26.94080 56.0
26.94580 49.0
26.95080 61.0
26.95580 51.0
26.96080 77.0
26.96580 50.0
26.97080 57.0
26.97580 49.0
26.98080 46.0
26.98580 57.0
26.99080 52.0
26.99580 71.0
27.00080 53.0
27.00580 63.0
27.01080 63.0
27.01580 69.0
27.02080 65.0
27.02580 54.0
27.03080 56.0
27.03580 61.0
27.04080 67.0
27.04580 55.0
27.05080 45.0
27.05580 62.0
27.06080 54.0