File: data/w6930a/XRD_Omega/film_a_scan_omega_4deg_step_0.005deg0_C3.xy
16.30970 32.0
16.31470 35.0
16.31970 34.0
16.32470 35.0
16.32970 37.0
16.33470 30.0
16.33970 39.0
16.34470 34.0
16.34970 36.0
16.35470 38.0
16.35970 26.0
16.36470 24.0
16.36970 34.0
16.37470 34.0
16.37970 33.0
16.38470 36.0
16.38970 32.0
16.39470 44.0
16.39970 36.0
16.40470 36.0
16.40970 29.0
16.41470 35.0
16.41970 30.0
16.42470 35.0
16.42970 42.0
16.43470 29.0
16.43970 34.0
16.44470 29.0
16.44970 42.0
16.45470 37.0
16.45970 31.0
16.46470 36.0
16.46970 44.0
16.47470 25.0
16.47970 26.0
16.48470 42.0
16.48970 28.0
16.49470 34.0
16.49970 38.0
16.50470 35.0
16.50970 31.0
16.51470 33.0
16.51970 38.0
16.52470 43.0
16.52970 36.0
16.53470 32.0
16.53970 34.0
16.54470 30.0
16.54970 38.0
16.55470 34.0
16.55970 25.0
16.56470 25.0
16.56970 25.0
16.57470 23.0
16.57970 26.0
16.58470 37.0
16.58970 35.0
16.59470 34.0
16.59970 35.0
16.60470 34.0
16.60970 26.0
16.61470 35.0
16.61970 41.0
16.62470 36.0
16.62970 40.0
16.63470 32.0
16.63970 22.0
16.64470 28.0
16.64970 35.0
16.65470 42.0
16.65970 31.0
16.66470 42.0
16.66970 28.0
16.67470 33.0
16.67970 34.0
16.68470 38.0
16.68970 28.0
16.69470 34.0
16.69970 37.0
16.70470 31.0
16.70970 31.0
16.71470 26.0
16.71970 31.0
16.72470 31.0
16.72970 34.0
16.73470 32.0
16.73970 42.0
16.74470 31.0
16.74970 32.0
16.75470 29.0
16.75970 14.0
16.76470 38.0
16.76970 33.0
16.77470 40.0
16.77970 30.0
16.78470 32.0
16.78970 39.0
16.79470 30.0
16.79970 42.0
16.80470 28.0
16.80970 31.0
16.81470 43.0
16.81970 33.0
16.82470 38.0
16.82970 37.0
16.83470 26.0
16.83970 37.0
16.84470 38.0
16.84970 32.0
16.85470 28.0
16.85970 42.0
16.86470 31.0
16.86970 37.0
16.87470 38.0
16.87970 32.0
16.88470 27.0
16.88970 33.0
16.89470 34.0
16.89970 30.0
16.90470 40.0
16.90970 39.0
16.91470 36.0
16.91970 28.0
16.92470 39.0
16.92970 31.0
16.93470 23.0
16.93970 38.0
16.94470 40.0
16.94970 36.0
16.95470 25.0
16.95970 29.0
16.96470 30.0
16.96970 32.0
16.97470 23.0
16.97970 35.0
16.98470 33.0
16.98970 25.0
16.99470 40.0
16.99970 34.0
17.00470 39.0
17.00970 35.0
17.01470 31.0
17.01970 20.0
17.02470 28.0
17.02970 37.0
17.03470 32.0
17.03970 37.0
17.04470 35.0
17.04970 28.0
17.05470 38.0
17.05970 37.0
17.06470 35.0
17.06970 40.0
17.07470 35.0
17.07970 30.0
17.08470 24.0
17.08970 28.0
17.09470 36.0
17.09970 31.0
17.10470 23.0
17.10970 34.0
17.11470 22.0
17.11970 34.0
17.12470 42.0
17.12970 34.0
17.13470 36.0
17.13970 36.0
17.14470 31.0
17.14970 24.0
17.15470 34.0
17.15970 37.0
17.16470 35.0
17.16970 29.0
17.17470 32.0
17.17970 37.0
17.18470 34.0
17.18970 35.0
17.19470 33.0
17.19970 31.0
17.20470 30.0
17.20970 34.0
17.21470 40.0
17.21970 38.0
17.22470 37.0
17.22970 29.0
17.23470 43.0
17.23970 34.0
17.24470 37.0
17.24970 43.0
17.25470 41.0
17.25970 34.0
17.26470 42.0
17.26970 42.0
17.27470 43.0
17.27970 36.0
17.28470 46.0
17.28970 44.0
17.29470 40.0
17.29970 46.0
17.30470 34.0
17.30970 29.0
17.31470 47.0
17.31970 39.0
17.32470 35.0
17.32970 44.0
17.33470 33.0
17.33970 32.0
17.34470 42.0
17.34970 40.0
17.35470 37.0
17.35970 35.0
17.36470 33.0
17.36970 34.0
17.37470 38.0
17.37970 49.0
17.38470 35.0
17.38970 46.0
17.39470 26.0
17.39970 31.0
17.40470 33.0
17.40970 32.0
17.41470 47.0
17.41970 41.0
17.42470 33.0
17.42970 35.0
17.43470 38.0
17.43970 32.0
17.44470 36.0
17.44970 32.0
17.45470 33.0
17.45970 29.0
17.46470 32.0
17.46970 31.0
17.47470 34.0
17.47970 37.0
17.48470 39.0
17.48970 34.0
17.49470 38.0
17.49970 37.0
17.50470 21.0
17.50970 45.0
17.51470 34.0
17.51970 30.0
17.52470 36.0
17.52970 28.0
17.53470 44.0
17.53970 36.0
17.54470 29.0
17.54970 47.0
17.55470 34.0
17.55970 41.0
17.56470 36.0
17.56970 31.0
17.57470 24.0
17.57970 31.0
17.58470 23.0
17.58970 39.0
17.59470 27.0
17.59970 35.0
17.60470 35.0
17.60970 41.0
17.61470 50.0
17.61970 42.0
17.62470 36.0
17.62970 38.0
17.63470 28.0
17.63970 38.0
17.64470 39.0
17.64970 40.0
17.65470 45.0
17.65970 30.0
17.66470 39.0
17.66970 33.0
17.67470 50.0
17.67970 44.0
17.68470 35.0
17.68970 33.0
17.69470 31.0
17.69970 35.0
17.70470 46.0
17.70970 34.0
17.71470 33.0
17.71970 29.0
17.72470 50.0
17.72970 27.0
17.73470 36.0
17.73970 39.0
17.74470 28.0
17.74970 48.0
17.75470 44.0
17.75970 35.0
17.76470 36.0
17.76970 39.0
17.77470 34.0
17.77970 36.0
17.78470 51.0
17.78970 33.0
17.79470 32.0
17.79970 33.0
17.80470 34.0
17.80970 50.0
17.81470 44.0
17.81970 24.0
17.82470 39.0
17.82970 42.0
17.83470 37.0
17.83970 49.0
17.84470 41.0
17.84970 33.0
17.85470 35.0
17.85970 24.0
17.86470 40.0
17.86970 39.0
17.87470 38.0
17.87970 37.0
17.88470 36.0
17.88970 41.0
17.89470 39.0
17.89970 29.0
17.90470 40.0
17.90970 43.0
17.91470 44.0
17.91970 41.0
17.92470 33.0
17.92970 47.0
17.93470 40.0
17.93970 43.0
17.94470 39.0
17.94970 48.0
17.95470 47.0
17.95970 39.0
17.96470 43.0
17.96970 41.0
17.97470 47.0
17.97970 51.0
17.98470 39.0
17.98970 44.0
17.99470 28.0
17.99970 42.0
18.00470 38.0
18.00970 36.0
18.01470 33.0
18.01970 30.0
18.02470 44.0
18.02970 39.0
18.03470 36.0
18.03970 32.0
18.04470 38.0
18.04970 32.0
18.05470 34.0
18.05970 37.0
18.06470 35.0
18.06970 37.0
18.07470 35.0
18.07970 37.0
18.08470 26.0
18.08970 36.0
18.09470 34.0
18.09970 31.0
18.10470 44.0
18.10970 35.0
18.11470 30.0
18.11970 46.0
18.12470 53.0
18.12970 57.0
18.13470 39.0
18.13970 64.0
18.14470 59.0
18.14970 43.0
18.15470 62.0
18.15970 49.0
18.16470 59.0
18.16970 58.0
18.17470 56.0
18.17970 53.0
18.18470 62.0
18.18970 70.0
18.19470 65.0
18.19970 73.0
18.20470 73.0
18.20970 67.0
18.21470 56.0
18.21970 68.0
18.22470 69.0
18.22970 97.0
18.23470 88.0
18.23970 97.0
18.24470 113.0
18.24970 117.0
18.25470 143.0
18.25970 132.0
18.26470 105.0
18.26970 102.0
18.27470 114.0
18.27970 91.0
18.28470 83.0
18.28970 84.0
18.29470 105.0
18.29970 104.0
18.30470 88.0
18.30970 85.0
18.31470 91.0
18.31970 98.0
18.32470 103.0
18.32970 90.0
18.33470 84.0
18.33970 100.0
18.34470 76.0
18.34970 81.0
18.35470 90.0
18.35970 83.0
18.36470 83.0
18.36970 100.0
18.37470 97.0
18.37970 80.0
18.38470 107.0
18.38970 111.0
18.39470 94.0
18.39970 72.0
18.40470 86.0
18.40970 49.0
18.41470 51.0
18.41970 39.0
18.42470 53.0
18.42970 45.0
18.43470 60.0
18.43970 56.0
18.44470 41.0
18.44970 35.0
18.45470 35.0
18.45970 40.0
18.46470 39.0
18.46970 48.0
18.47470 52.0
18.47970 49.0
18.48470 31.0
18.48970 28.0
18.49470 47.0
18.49970 31.0
18.50470 35.0
18.50970 32.0
18.51470 40.0
18.51970 27.0
18.52470 38.0
18.52970 43.0
18.53470 28.0
18.53970 36.0
18.54470 42.0
18.54970 34.0
18.55470 36.0
18.55970 41.0
18.56470 41.0
18.56970 39.0
18.57470 45.0
18.57970 33.0
18.58470 45.0
18.58970 37.0
18.59470 37.0
18.59970 35.0
18.60470 38.0
18.60970 42.0
18.61470 43.0
18.61970 50.0
18.62470 39.0
18.62970 36.0
18.63470 41.0
18.63970 39.0
18.64470 32.0
18.64970 31.0
18.65470 44.0
18.65970 29.0
18.66470 38.0
18.66970 42.0
18.67470 37.0
18.67970 33.0
18.68470 39.0
18.68970 37.0
18.69470 40.0
18.69970 38.0
18.70470 44.0
18.70970 38.0
18.71470 36.0
18.71970 35.0
18.72470 43.0
18.72970 22.0
18.73470 35.0
18.73970 33.0
18.74470 31.0
18.74970 48.0
18.75470 34.0
18.75970 34.0
18.76470 35.0
18.76970 29.0
18.77470 45.0
18.77970 36.0
18.78470 26.0
18.78970 33.0
18.79470 34.0
18.79970 31.0
18.80470 32.0
18.80970 31.0
18.81470 34.0
18.81970 40.0
18.82470 32.0
18.82970 31.0
18.83470 44.0
18.83970 37.0
18.84470 50.0
18.84970 37.0
18.85470 30.0
18.85970 42.0
18.86470 32.0
18.86970 39.0
18.87470 26.0
18.87970 28.0
18.88470 35.0
18.88970 36.0
18.89470 37.0
18.89970 37.0
18.90470 35.0
18.90970 33.0
18.91470 35.0
18.91970 33.0
18.92470 38.0
18.92970 34.0
18.93470 32.0
18.93970 34.0
18.94470 28.0
18.94970 45.0
18.95470 29.0
18.95970 38.0
18.96470 27.0
18.96970 30.0
18.97470 38.0
18.97970 47.0
18.98470 45.0
18.98970 37.0
18.99470 28.0
18.99970 47.0
19.00470 29.0
19.00970 41.0
19.01470 29.0
19.01970 37.0
19.02470 30.0
19.02970 29.0
19.03470 30.0
19.03970 28.0
19.04470 40.0
19.04970 36.0
19.05470 43.0
19.05970 27.0
19.06470 38.0
19.06970 41.0
19.07470 27.0
19.07970 34.0
19.08470 38.0
19.08970 43.0
19.09470 37.0
19.09970 37.0
19.10470 31.0
19.10970 40.0
19.11470 35.0
19.11970 27.0
19.12470 26.0
19.12970 31.0
19.13470 33.0
19.13970 31.0
19.14470 37.0
19.14970 26.0
19.15470 31.0
19.15970 32.0
19.16470 33.0
19.16970 28.0
19.17470 34.0
19.17970 35.0
19.18470 25.0
19.18970 34.0
19.19470 34.0
19.19970 36.0
19.20470 25.0
19.20970 35.0
19.21470 32.0
19.21970 40.0
19.22470 36.0
19.22970 23.0
19.23470 38.0
19.23970 36.0
19.24470 38.0
19.24970 36.0
19.25470 37.0
19.25970 31.0
19.26470 31.0
19.26970 36.0
19.27470 33.0
19.27970 26.0
19.28470 31.0
19.28970 24.0
19.29470 32.0
19.29970 28.0
19.30470 32.0
19.30970 25.0
19.31470 40.0
19.31970 28.0
19.32470 30.0
19.32970 28.0
19.33470 24.0
19.33970 24.0
19.34470 38.0
19.34970 45.0
19.35470 33.0
19.35970 24.0
19.36470 27.0
19.36970 42.0
19.37470 34.0
19.37970 31.0
19.38470 31.0
19.38970 29.0
19.39470 35.0
19.39970 37.0
19.40470 31.0
19.40970 29.0
19.41470 38.0
19.41970 44.0
19.42470 34.0
19.42970 33.0
19.43470 26.0
19.43970 35.0
19.44470 33.0
19.44970 28.0
19.45470 28.0
19.45970 33.0
19.46470 31.0
19.46970 31.0
19.47470 27.0
19.47970 19.0
19.48470 29.0
19.48970 32.0
19.49470 31.0
19.49970 19.0
19.50470 40.0
19.50970 24.0
19.51470 21.0
19.51970 42.0
19.52470 40.0
19.52970 36.0
19.53470 28.0
19.53970 30.0
19.54470 22.0
19.54970 35.0
19.55470 23.0
19.55970 28.0
19.56470 37.0
19.56970 17.0
19.57470 30.0
19.57970 34.0
19.58470 36.0
19.58970 27.0
19.59470 27.0
19.59970 25.0
19.60470 30.0
19.60970 23.0
19.61470 31.0
19.61970 28.0
19.62470 29.0
19.62970 33.0
19.63470 18.0
19.63970 24.0
19.64470 20.0
19.64970 26.0
19.65470 31.0
19.65970 39.0
19.66470 30.0
19.66970 42.0
19.67470 37.0
19.67970 33.0
19.68470 29.0
19.68970 22.0
19.69470 30.0
19.69970 38.0
19.70470 25.0
19.70970 30.0
19.71470 30.0
19.71970 37.0
19.72470 30.0
19.72970 38.0
19.73470 26.0
19.73970 32.0
19.74470 30.0
19.74970 30.0
19.75470 27.0
19.75970 31.0
19.76470 36.0
19.76970 39.0
19.77470 43.0
19.77970 31.0
19.78470 34.0
19.78970 24.0
19.79470 28.0
19.79970 38.0
19.80470 26.0
19.80970 33.0
19.81470 37.0
19.81970 35.0
19.82470 24.0
19.82970 32.0
19.83470 31.0
19.83970 31.0
19.84470 24.0
19.84970 25.0
19.85470 36.0
19.85970 39.0
19.86470 22.0
19.86970 37.0
19.87470 28.0
19.87970 24.0
19.88470 35.0
19.88970 32.0
19.89470 32.0
19.89970 32.0
19.90470 26.0
19.90970 42.0
19.91470 32.0
19.91970 28.0
19.92470 23.0
19.92970 21.0
19.93470 28.0
19.93970 33.0
19.94470 25.0
19.94970 29.0
19.95470 39.0
19.95970 33.0
19.96470 41.0
19.96970 25.0
19.97470 31.0
19.97970 25.0
19.98470 39.0
19.98970 34.0
19.99470 22.0
19.99970 19.0
20.00470 27.0
20.00970 30.0
20.01470 34.0
20.01970 24.0
20.02470 27.0
20.02970 34.0
20.03470 37.0
20.03970 33.0
20.04470 31.0
20.04970 26.0
20.05470 31.0
20.05970 25.0
20.06470 29.0
20.06970 31.0
20.07470 30.0
20.07970 32.0
20.08470 44.0
20.08970 35.0
20.09470 22.0
20.09970 39.0
20.10470 40.0
20.10970 28.0
20.11470 36.0
20.11970 29.0
20.12470 27.0
20.12970 30.0
20.13470 36.0
20.13970 27.0
20.14470 27.0
20.14970 23.0
20.15470 28.0
20.15970 37.0
20.16470 38.0
20.16970 33.0
20.17470 24.0
20.17970 29.0
20.18470 23.0
20.18970 30.0
20.19470 40.0
20.19970 38.0
20.20470 36.0
20.20970 38.0
20.21470 28.0
20.21970 30.0
20.22470 18.0
20.22970 33.0
20.23470 18.0
20.23970 27.0
20.24470 30.0
20.24970 31.0
20.25470 30.0
20.25970 23.0
20.26470 29.0
20.26970 29.0