File: data/W6814r1/XRD_Omega/w6814r1_scan_omega.xy
21.61630 44.0
21.62130 43.0
21.62630 59.0
21.63130 59.0
21.63630 50.0
21.64130 50.0
21.64630 44.0
21.65130 56.0
21.65630 42.0
21.66130 49.0
21.66630 44.0
21.67130 57.0
21.67630 59.0
21.68130 38.0
21.68630 64.0
21.69130 59.0
21.69630 56.0
21.70130 38.0
21.70630 33.0
21.71130 59.0
21.71630 42.0
21.72130 58.0
21.72630 56.0
21.73130 43.0
21.73630 58.0
21.74130 51.0
21.74630 65.0
21.75130 55.0
21.75630 65.0
21.76130 50.0
21.76630 52.0
21.77130 68.0
21.77630 44.0
21.78130 54.0
21.78630 55.0
21.79130 61.0
21.79630 66.0
21.80130 51.0
21.80630 66.0
21.81130 63.0
21.81630 66.0
21.82130 51.0
21.82630 62.0
21.83130 62.0
21.83630 43.0
21.84130 53.0
21.84630 59.0
21.85130 58.0
21.85630 56.0
21.86130 58.0
21.86630 61.0
21.87130 58.0
21.87630 63.0
21.88130 67.0
21.88630 56.0
21.89130 67.0
21.89630 59.0
21.90130 71.0
21.90630 65.0
21.91130 65.0
21.91630 60.0
21.92130 62.0
21.92630 63.0
21.93130 59.0
21.93630 60.0
21.94130 68.0
21.94630 72.0
21.95130 66.0
21.95630 66.0
21.96130 73.0
21.96630 52.0
21.97130 80.0
21.97630 61.0
21.98130 80.0
21.98630 64.0
21.99130 89.0
21.99630 81.0
22.00130 62.0
22.00630 74.0
22.01130 73.0
22.01630 74.0
22.02130 79.0
22.02630 72.0
22.03130 78.0
22.03630 77.0
22.04130 77.0
22.04630 81.0
22.05130 81.0
22.05630 69.0
22.06130 74.0
22.06630 65.0
22.07130 90.0
22.07630 79.0
22.08130 82.0
22.08630 82.0
22.09130 88.0
22.09630 81.0
22.10130 71.0
22.10630 82.0
22.11130 71.0
22.11630 64.0
22.12130 90.0
22.12630 80.0
22.13130 75.0
22.13630 95.0
22.14130 91.0
22.14630 90.0
22.15130 80.0
22.15630 79.0
22.16130 104.0
22.16630 109.0
22.17130 96.0
22.17630 79.0
22.18130 117.0
22.18630 107.0
22.19130 97.0
22.19630 108.0
22.20130 104.0
22.20630 96.0
22.21130 101.0
22.21630 89.0
22.22130 91.0
22.22630 94.0
22.23130 93.0
22.23630 123.0
22.24130 97.0
22.24630 110.0
22.25130 100.0
22.25630 108.0
22.26130 106.0
22.26630 110.0
22.27130 118.0
22.27630 109.0
22.28130 122.0
22.28630 141.0
22.29130 117.0
22.29630 120.0
22.30130 96.0
22.30630 141.0
22.31130 129.0
22.31630 120.0
22.32130 122.0
22.32630 146.0
22.33130 110.0
22.33630 135.0
22.34130 135.0
22.34630 129.0
22.35130 121.0
22.35630 123.0
22.36130 151.0
22.36630 155.0
22.37130 140.0
22.37630 145.0
22.38130 132.0
22.38630 139.0
22.39130 127.0
22.39630 165.0
22.40130 174.0
22.40630 186.0
22.41130 155.0
22.41630 149.0
22.42130 191.0
22.42630 163.0
22.43130 172.0
22.43630 154.0
22.44130 178.0
22.44630 164.0
22.45130 172.0
22.45630 173.0
22.46130 166.0
22.46630 204.0
22.47130 188.0
22.47630 192.0
22.48130 197.0
22.48630 180.0
22.49130 196.0
22.49630 184.0
22.50130 196.0
22.50630 207.0
22.51130 203.0
22.51630 203.0
22.52130 235.0
22.52630 189.0
22.53130 218.0
22.53630 269.0
22.54130 194.0
22.54630 200.0
22.55130 225.0
22.55630 204.0
22.56130 221.0
22.56630 226.0
22.57130 231.0
22.57630 233.0
22.58130 262.0
22.58630 242.0
22.59130 263.0
22.59630 241.0
22.60130 262.0
22.60630 255.0
22.61130 290.0
22.61630 253.0
22.62130 281.0
22.62630 258.0
22.63130 273.0
22.63630 301.0
22.64130 269.0
22.64630 285.0
22.65130 325.0
22.65630 321.0
22.66130 304.0
22.66630 288.0
22.67130 343.0
22.67630 326.0
22.68130 323.0
22.68630 305.0
22.69130 325.0
22.69630 362.0
22.70130 356.0
22.70630 340.0
22.71130 377.0
22.71630 361.0
22.72130 388.0
22.72630 407.0
22.73130 431.0
22.73630 359.0
22.74130 380.0
22.74630 383.0
22.75130 382.0
22.75630 422.0
22.76130 423.0
22.76630 437.0
22.77130 439.0
22.77630 436.0
22.78130 457.0
22.78630 436.0
22.79130 428.0
22.79630 427.0
22.80130 426.0
22.80630 481.0
22.81130 501.0
22.81630 477.0
22.82130 489.0
22.82630 503.0
22.83130 503.0
22.83630 493.0
22.84130 496.0
22.84630 522.0
22.85130 538.0
22.85630 562.0
22.86130 516.0
22.86630 557.0
22.87130 577.0
22.87630 554.0
22.88130 568.0
22.88630 542.0
22.89130 626.0
22.89630 541.0
22.90130 618.0
22.90630 636.0
22.91130 634.0
22.91630 646.0
22.92130 624.0
22.92630 622.0
22.93130 690.0
22.93630 681.0
22.94130 645.0
22.94630 755.0
22.95130 715.0
22.95630 728.0
22.96130 665.0
22.96630 731.0
22.97130 741.0
22.97630 761.0
22.98130 832.0
22.98630 757.0
22.99130 786.0
22.99630 859.0
23.00130 840.0
23.00630 819.0
23.01130 818.0
23.01630 889.0
23.02130 825.0
23.02630 924.0
23.03130 901.0
23.03630 911.0
23.04130 911.0
23.04630 995.0
23.05130 934.0
23.05630 893.0
23.06130 979.0
23.06630 950.0
23.07130 1005.0
23.07630 1072.0
23.08130 1010.0
23.08630 1012.0
23.09130 1040.0
23.09630 1029.0
23.10130 1126.0
23.10630 1100.0
23.11130 1132.0
23.11630 1194.0
23.12130 1131.0
23.12630 1179.0
23.13130 1213.0
23.13630 1229.0
23.14130 1216.0
23.14630 1212.0
23.15130 1248.0
23.15630 1300.0
23.16130 1290.0
23.16630 1325.0
23.17130 1317.0
23.17630 1259.0
23.18130 1271.0
23.18630 1310.0
23.19130 1364.0
23.19630 1433.0
23.20130 1394.0
23.20630 1424.0
23.21130 1371.0
23.21630 1404.0
23.22130 1423.0
23.22630 1488.0
23.23130 1558.0
23.23630 1595.0
23.24130 1494.0
23.24630 1525.0
23.25130 1578.0
23.25630 1616.0
23.26130 1571.0
23.26630 1598.0
23.27130 1699.0
23.27630 1656.0
23.28130 1700.0
23.28630 1728.0
23.29130 1675.0
23.29630 1731.0
23.30130 1791.0
23.30630 1820.0
23.31130 1831.0
23.31630 1778.0
23.32130 1863.0
23.32630 1806.0
23.33130 1836.0
23.33630 1861.0
23.34130 1848.0
23.34630 1864.0
23.35130 1934.0
23.35630 1993.0
23.36130 2046.0
23.36630 2079.0
23.37130 2043.0
23.37630 2007.0
23.38130 1944.0
23.38630 2008.0
23.39130 2036.0
23.39630 2055.0
23.40130 2114.0
23.40630 2131.0
23.41130 2143.0
23.41630 2022.0
23.42130 2172.0
23.42630 2202.0
23.43130 2156.0
23.43630 2184.0
23.44130 2180.0
23.44630 2281.0
23.45130 2354.0
23.45630 2232.0
23.46130 2118.0
23.46630 2343.0
23.47130 2244.0
23.47630 2336.0
23.48130 2287.0
23.48630 2286.0
23.49130 2273.0
23.49630 2310.0
23.50130 2371.0
23.50630 2330.0
23.51130 2458.0
23.51630 2367.0
23.52130 2426.0
23.52630 2429.0
23.53130 2364.0
23.53630 2387.0
23.54130 2389.0
23.54630 2497.0
23.55130 2451.0
23.55630 2495.0
23.56130 2406.0
23.56630 2473.0
23.57130 2489.0
23.57630 2491.0
23.58130 2523.0
23.58630 2383.0
23.59130 2486.0
23.59630 2598.0
23.60130 2476.0
23.60630 2521.0
23.61130 2553.0
23.61630 2526.0
23.62130 2566.0
23.62630 2643.0
23.63130 2506.0
23.63630 2552.0
23.64130 2515.0
23.64630 2506.0
23.65130 2424.0
23.65630 2526.0
23.66130 2520.0
23.66630 2466.0
23.67130 2534.0
23.67630 2510.0
23.68130 2500.0
23.68630 2474.0
23.69130 2539.0
23.69630 2493.0
23.70130 2508.0
23.70630 2523.0
23.71130 2500.0
23.71630 2511.0
23.72130 2549.0
23.72630 2535.0
23.73130 2528.0
23.73630 2480.0
23.74130 2494.0
23.74630 2514.0
23.75130 2406.0
23.75630 2371.0
23.76130 2426.0
23.76630 2377.0
23.77130 2375.0
23.77630 2348.0
23.78130 2373.0
23.78630 2381.0
23.79130 2365.0
23.79630 2322.0
23.80130 2301.0
23.80630 2374.0
23.81130 2235.0
23.81630 2286.0
23.82130 2345.0
23.82630 2313.0
23.83130 2258.0
23.83630 2170.0
23.84130 2122.0
23.84630 2162.0
23.85130 2148.0
23.85630 2166.0
23.86130 2125.0
23.86630 2247.0
23.87130 2082.0
23.87630 2082.0
23.88130 1986.0
23.88630 2068.0
23.89130 1979.0
23.89630 1940.0
23.90130 1973.0
23.90630 1928.0
23.91130 1951.0
23.91630 2020.0
23.92130 1946.0
23.92630 1918.0
23.93130 1872.0
23.93630 1847.0
23.94130 1921.0
23.94630 1802.0
23.95130 1705.0
23.95630 1692.0
23.96130 1815.0
23.96630 1716.0
23.97130 1696.0
23.97630 1620.0
23.98130 1635.0
23.98630 1709.0
23.99130 1668.0
23.99630 1649.0
24.00130 1604.0
24.00630 1535.0
24.01130 1543.0
24.01630 1491.0
24.02130 1410.0
24.02630 1473.0
24.03130 1507.0
24.03630 1424.0
24.04130 1470.0
24.04630 1436.0
24.05130 1442.0
24.05630 1495.0
24.06130 1392.0
24.06630 1313.0
24.07130 1328.0
24.07630 1293.0
24.08130 1266.0
24.08630 1240.0
24.09130 1215.0
24.09630 1175.0
24.10130 1217.0
24.10630 1245.0
24.11130 1225.0
24.11630 1121.0
24.12130 1127.0
24.12630 1110.0
24.13130 1111.0
24.13630 1017.0
24.14130 993.0
24.14630 1008.0
24.15130 1044.0
24.15630 993.0
24.16130 1039.0
24.16630 974.0
24.17130 908.0
24.17630 968.0
24.18130 943.0
24.18630 877.0
24.19130 877.0
24.19630 924.0
24.20130 843.0
24.20630 878.0
24.21130 762.0
24.21630 813.0
24.22130 816.0
24.22630 814.0
24.23130 745.0
24.23630 775.0
24.24130 761.0
24.24630 716.0
24.25130 706.0
24.25630 668.0
24.26130 711.0
24.26630 663.0
24.27130 707.0
24.27630 642.0
24.28130 649.0
24.28630 605.0
24.29130 627.0
24.29630 611.0
24.30130 603.0
24.30630 562.0
24.31130 569.0
24.31630 576.0
24.32130 568.0
24.32630 505.0
24.33130 549.0
24.33630 528.0
24.34130 481.0
24.34630 527.0
24.35130 505.0
24.35630 484.0
24.36130 486.0
24.36630 498.0
24.37130 456.0
24.37630 464.0
24.38130 467.0
24.38630 412.0
24.39130 441.0
24.39630 429.0
24.40130 385.0
24.40630 434.0
24.41130 406.0
24.41630 410.0
24.42130 427.0
24.42630 378.0
24.43130 362.0
24.43630 337.0
24.44130 337.0
24.44630 356.0
24.45130 359.0
24.45630 325.0
24.46130 338.0
24.46630 368.0
24.47130 322.0
24.47630 341.0
24.48130 327.0
24.48630 294.0
24.49130 315.0
24.49630 279.0
24.50130 290.0
24.50630 297.0
24.51130 309.0
24.51630 263.0
24.52130 280.0
24.52630 253.0
24.53130 210.0
24.53630 252.0
24.54130 251.0
24.54630 250.0
24.55130 253.0
24.55630 246.0
24.56130 230.0
24.56630 222.0
24.57130 228.0
24.57630 213.0
24.58130 223.0
24.58630 242.0
24.59130 217.0
24.59630 185.0
24.60130 187.0
24.60630 195.0
24.61130 210.0
24.61630 200.0
24.62130 207.0
24.62630 198.0
24.63130 175.0
24.63630 186.0
24.64130 208.0
24.64630 191.0
24.65130 175.0
24.65630 175.0
24.66130 175.0
24.66630 184.0
24.67130 152.0
24.67630 181.0
24.68130 185.0
24.68630 150.0
24.69130 138.0
24.69630 141.0
24.70130 150.0
24.70630 150.0
24.71130 123.0
24.71630 146.0
24.72130 154.0
24.72630 161.0
24.73130 113.0
24.73630 135.0
24.74130 159.0
24.74630 139.0
24.75130 127.0
24.75630 133.0
24.76130 122.0
24.76630 115.0
24.77130 128.0
24.77630 108.0
24.78130 126.0
24.78630 125.0
24.79130 142.0
24.79630 103.0
24.80130 120.0
24.80630 109.0
24.81130 128.0
24.81630 108.0
24.82130 102.0
24.82630 113.0
24.83130 93.0
24.83630 117.0
24.84130 112.0
24.84630 92.0
24.85130 101.0
24.85630 104.0
24.86130 87.0
24.86630 85.0
24.87130 84.0
24.87630 99.0
24.88130 93.0
24.88630 106.0
24.89130 71.0
24.89630 90.0
24.90130 97.0
24.90630 82.0
24.91130 81.0
24.91630 73.0
24.92130 71.0
24.92630 67.0
24.93130 77.0
24.93630 70.0
24.94130 79.0
24.94630 74.0
24.95130 76.0
24.95630 82.0
24.96130 76.0
24.96630 61.0
24.97130 69.0
24.97630 81.0
24.98130 80.0
24.98630 79.0
24.99130 73.0
24.99630 63.0
25.00130 80.0
25.00630 76.0
25.01130 71.0
25.01630 74.0
25.02130 66.0
25.02630 80.0
25.03130 91.0
25.03630 86.0
25.04130 92.0
25.04630 73.0
25.05130 99.0
25.05630 88.0
25.06130 82.0
25.06630 65.0
25.07130 86.0
25.07630 85.0
25.08130 98.0
25.08630 95.0
25.09130 70.0
25.09630 90.0
25.10130 92.0
25.10630 65.0
25.11130 80.0
25.11630 81.0
25.12130 84.0
25.12630 85.0
25.13130 81.0
25.13630 90.0
25.14130 71.0
25.14630 97.0
25.15130 80.0
25.15630 119.0
25.16130 85.0
25.16630 65.0
25.17130 97.0
25.17630 101.0
25.18130 72.0
25.18630 78.0
25.19130 85.0
25.19630 64.0
25.20130 101.0
25.20630 97.0
25.21130 101.0
25.21630 88.0
25.22130 85.0
25.22630 87.0
25.23130 84.0
25.23630 86.0
25.24130 110.0
25.24630 129.0
25.25130 133.0
25.25630 130.0
25.26130 157.0
25.26630 140.0
25.27130 175.0
25.27630 168.0
25.28130 121.0
25.28630 117.0
25.29130 93.0
25.29630 80.0
25.30130 77.0
25.30630 70.0
25.31130 60.0
25.31630 68.0
25.32130 58.0
25.32630 57.0
25.33130 53.0
25.33630 70.0
25.34130 67.0
25.34630 77.0
25.35130 59.0
25.35630 55.0
25.36130 41.0
25.36630 51.0
25.37130 45.0
25.37630 56.0
25.38130 52.0
25.38630 53.0
25.39130 54.0
25.39630 50.0
25.40130 57.0
25.40630 36.0
25.41130 39.0
25.41630 43.0
25.42130 31.0
25.42630 43.0
25.43130 42.0
25.43630 43.0
25.44130 38.0
25.44630 45.0
25.45130 41.0
25.45630 45.0
25.46130 30.0
25.46630 33.0
25.47130 41.0
25.47630 39.0
25.48130 24.0
25.48630 47.0
25.49130 42.0
25.49630 41.0
25.50130 46.0
25.50630 48.0
25.51130 39.0
25.51630 42.0
25.52130 42.0
25.52630 37.0
25.53130 51.0
25.53630 44.0
25.54130 36.0
25.54630 39.0
25.55130 41.0
25.55630 32.0
25.56130 40.0
25.56630 36.0
25.57130 35.0
25.57630 36.0
25.58130 31.0
25.58630 35.0