File: data/W6783c/XRD_Omega/W6783c_Cr2O3_scan_omega_2deg_step_0.002deg0_12.xy
18.62360 1150.0
18.62560 1204.0
18.62760 1188.0
18.62960 1177.0
18.63160 1145.0
18.63360 1236.0
18.63560 1197.0
18.63760 1141.0
18.63960 1154.0
18.64160 1128.0
18.64360 1142.0
18.64560 1209.0
18.64760 1157.0
18.64960 1258.0
18.65160 1193.0
18.65360 1150.0
18.65560 1306.0
18.65760 1199.0
18.65960 1261.0
18.66160 1261.0
18.66360 1233.0
18.66560 1206.0
18.66760 1257.0
18.66960 1258.0
18.67160 1249.0
18.67360 1288.0
18.67560 1186.0
18.67760 1275.0
18.67960 1233.0
18.68160 1261.0
18.68360 1221.0
18.68560 1298.0
18.68760 1264.0
18.68960 1299.0
18.69160 1297.0
18.69360 1301.0
18.69560 1322.0
18.69760 1312.0
18.69960 1319.0
18.70160 1331.0
18.70360 1324.0
18.70560 1291.0
18.70760 1404.0
18.70960 1319.0
18.71160 1365.0
18.71360 1432.0
18.71560 1411.0
18.71760 1361.0
18.71960 1316.0
18.72160 1354.0
18.72360 1480.0
18.72560 1390.0
18.72760 1345.0
18.72960 1458.0
18.73160 1406.0
18.73360 1466.0
18.73560 1413.0
18.73760 1421.0
18.73960 1459.0
18.74160 1443.0
18.74360 1445.0
18.74560 1448.0
18.74760 1419.0
18.74960 1456.0
18.75160 1433.0
18.75360 1464.0
18.75560 1415.0
18.75760 1385.0
18.75960 1445.0
18.76160 1470.0
18.76360 1503.0
18.76560 1482.0
18.76760 1492.0
18.76960 1461.0
18.77160 1553.0
18.77360 1515.0
18.77560 1506.0
18.77760 1559.0
18.77960 1552.0
18.78160 1490.0
18.78360 1515.0
18.78560 1595.0
18.78760 1521.0
18.78960 1604.0
18.79160 1599.0
18.79360 1546.0
18.79560 1596.0
18.79760 1600.0
18.79960 1645.0
18.80160 1602.0
18.80360 1657.0
18.80560 1656.0
18.80760 1687.0
18.80960 1652.0
18.81160 1609.0
18.81360 1649.0
18.81560 1720.0
18.81760 1666.0
18.81960 1646.0
18.82160 1705.0
18.82360 1634.0
18.82560 1713.0
18.82760 1695.0
18.82960 1709.0
18.83160 1628.0
18.83360 1766.0
18.83560 1677.0
18.83760 1725.0
18.83960 1675.0
18.84160 1728.0
18.84360 1698.0
18.84560 1849.0
18.84760 1787.0
18.84960 1835.0
18.85160 1825.0
18.85360 1863.0
18.85560 1870.0
18.85760 1864.0
18.85960 1851.0
18.86160 1835.0
18.86360 1867.0
18.86560 1890.0
18.86760 1802.0
18.86960 1819.0
18.87160 1919.0
18.87360 1841.0
18.87560 1849.0
18.87760 1896.0
18.87960 1854.0
18.88160 1848.0
18.88360 1838.0
18.88560 1885.0
18.88760 1920.0
18.88960 1871.0
18.89160 1936.0
18.89360 1975.0
18.89560 1880.0
18.89760 1890.0
18.89960 2001.0
18.90160 1917.0
18.90360 2056.0
18.90560 1975.0
18.90760 2131.0
18.90960 2048.0
18.91160 2159.0
18.91360 2053.0
18.91560 2061.0
18.91760 2093.0
18.91960 2025.0
18.92160 2073.0
18.92360 2154.0
18.92560 2150.0
18.92760 2139.0
18.92960 2102.0
18.93160 2098.0
18.93360 2093.0
18.93560 2135.0
18.93760 2135.0
18.93960 2107.0
18.94160 2199.0
18.94360 2153.0
18.94560 2236.0
18.94760 2171.0
18.94960 2196.0
18.95160 2261.0
18.95360 2271.0
18.95560 2322.0
18.95760 2287.0
18.95960 2302.0
18.96160 2277.0
18.96360 2343.0
18.96560 2128.0
18.96760 2287.0
18.96960 2381.0
18.97160 2310.0
18.97360 2336.0
18.97560 2314.0
18.97760 2426.0
18.97960 2297.0
18.98160 2413.0
18.98360 2379.0
18.98560 2327.0
18.98760 2398.0
18.98960 2388.0
18.99160 2416.0
18.99360 2433.0
18.99560 2532.0
18.99760 2429.0
18.99960 2550.0
19.00160 2515.0
19.00360 2536.0
19.00560 2552.0
19.00760 2610.0
19.00960 2517.0
19.01160 2600.0
19.01360 2608.0
19.01560 2589.0
19.01760 2597.0
19.01960 2607.0
19.02160 2716.0
19.02360 2696.0
19.02560 2665.0
19.02760 2670.0
19.02960 2769.0
19.03160 2696.0
19.03360 2777.0
19.03560 2759.0
19.03760 2789.0
19.03960 2775.0
19.04160 2809.0
19.04360 2739.0
19.04560 2794.0
19.04760 2789.0
19.04960 2811.0
19.05160 2820.0
19.05360 2879.0
19.05560 2795.0
19.05760 2854.0
19.05960 2884.0
19.06160 2870.0
19.06360 2972.0
19.06560 3038.0
19.06760 2939.0
19.06960 3020.0
19.07160 2943.0
19.07360 2932.0
19.07560 3013.0
19.07760 3043.0
19.07960 3068.0
19.08160 3094.0
19.08360 3082.0
19.08560 3179.0
19.08760 3183.0
19.08960 3139.0
19.09160 3274.0
19.09360 3185.0
19.09560 3239.0
19.09760 3270.0
19.09960 3253.0
19.10160 3238.0
19.10360 3197.0
19.10560 3196.0
19.10760 3354.0
19.10960 3340.0
19.11160 3377.0
19.11360 3394.0
19.11560 3472.0
19.11760 3352.0
19.11960 3463.0
19.12160 3436.0
19.12360 3483.0
19.12560 3376.0
19.12760 3567.0
19.12960 3437.0
19.13160 3579.0
19.13360 3485.0
19.13560 3506.0
19.13760 3606.0
19.13960 3586.0
19.14160 3514.0
19.14360 3547.0
19.14560 3616.0
19.14760 3556.0
19.14960 3513.0
19.15160 3658.0
19.15360 3692.0
19.15560 3745.0
19.15760 3773.0
19.15960 3730.0
19.16160 3890.0
19.16360 3748.0
19.16560 3716.0
19.16760 3927.0
19.16960 3912.0
19.17160 3924.0
19.17360 3871.0
19.17560 3871.0
19.17760 3808.0
19.17960 3975.0
19.18160 3967.0
19.18360 3950.0
19.18560 3990.0
19.18760 4014.0
19.18960 3937.0
19.19160 4159.0
19.19360 4156.0
19.19560 4142.0
19.19760 4166.0
19.19960 4275.0
19.20160 4234.0
19.20360 4150.0
19.20560 4230.0
19.20760 4158.0
19.20960 4193.0
19.21160 4268.0
19.21360 4347.0
19.21560 4279.0
19.21760 4435.0
19.21960 4385.0
19.22160 4457.0
19.22360 4503.0
19.22560 4415.0
19.22760 4416.0
19.22960 4376.0
19.23160 4578.0
19.23360 4535.0
19.23560 4478.0
19.23760 4522.0
19.23960 4521.0
19.24160 4652.0
19.24360 4705.0
19.24560 4530.0
19.24760 4632.0
19.24960 4597.0
19.25160 4673.0
19.25360 4618.0
19.25560 4752.0
19.25760 4786.0
19.25960 4957.0
19.26160 4766.0
19.26360 4782.0
19.26560 4852.0
19.26760 4785.0
19.26960 4797.0
19.27160 4783.0
19.27360 4920.0
19.27560 4614.0
19.27760 4658.0
19.27960 5043.0
19.28160 4891.0
19.28360 4914.0
19.28560 5085.0
19.28760 4980.0
19.28960 5116.0
19.29160 5197.0
19.29360 5186.0
19.29560 5108.0
19.29760 5208.0
19.29960 4969.0
19.30160 5143.0
19.30360 4949.0
19.30560 5177.0
19.30760 5213.0
19.30960 5214.0
19.31160 5174.0
19.31360 5309.0
19.31560 5352.0
19.31760 5226.0
19.31960 5262.0
19.32160 5266.0
19.32360 5278.0
19.32560 5259.0
19.32760 5331.0
19.32960 5403.0
19.33160 5396.0
19.33360 5293.0
19.33560 5443.0
19.33760 5393.0
19.33960 5601.0
19.34160 5520.0
19.34360 5471.0
19.34560 5565.0
19.34760 5442.0
19.34960 5444.0
19.35160 5528.0
19.35360 5451.0
19.35560 5528.0
19.35760 5622.0
19.35960 5622.0
19.36160 5553.0
19.36360 5626.0
19.36560 5655.0
19.36760 5537.0
19.36960 5732.0
19.37160 5639.0
19.37360 5667.0
19.37560 5622.0
19.37760 5578.0
19.37960 5734.0
19.38160 5822.0
19.38360 5635.0
19.38560 5901.0
19.38760 5832.0
19.38960 5774.0
19.39160 5899.0
19.39360 5852.0
19.39560 5701.0
19.39760 5860.0
19.39960 5991.0
19.40160 5943.0
19.40360 5984.0
19.40560 5948.0
19.40760 5971.0
19.40960 6095.0
19.41160 6082.0
19.41360 5963.0
19.41560 6011.0
19.41760 6103.0
19.41960 6142.0
19.42160 5962.0
19.42360 6002.0
19.42560 5980.0
19.42760 6163.0
19.42960 6010.0
19.43160 6072.0
19.43360 6084.0
19.43560 6083.0
19.43760 5998.0
19.43960 6134.0
19.44160 6182.0
19.44360 6224.0
19.44560 6239.0
19.44760 6211.0
19.44960 6151.0
19.45160 6087.0
19.45360 6212.0
19.45560 6103.0
19.45760 6166.0
19.45960 6224.0
19.46160 6133.0
19.46360 6260.0
19.46560 6339.0
19.46760 6195.0
19.46960 6161.0
19.47160 6200.0
19.47360 6461.0
19.47560 6198.0
19.47760 6323.0
19.47960 6278.0
19.48160 6315.0
19.48360 6355.0
19.48560 6301.0
19.48760 6327.0
19.48960 6275.0
19.49160 6350.0
19.49360 6111.0
19.49560 6410.0
19.49760 6230.0
19.49960 6292.0
19.50160 6307.0
19.50360 6458.0
19.50560 6426.0
19.50760 6244.0
19.50960 6386.0
19.51160 6400.0
19.51360 6356.0
19.51560 6376.0
19.51760 6435.0
19.51960 6403.0
19.52160 6446.0
19.52360 6396.0
19.52560 6559.0
19.52760 6506.0
19.52960 6231.0
19.53160 6308.0
19.53360 6574.0
19.53560 6286.0
19.53760 6335.0
19.53960 6408.0
19.54160 6374.0
19.54360 6482.0
19.54560 6597.0
19.54760 6311.0
19.54960 6419.0
19.55160 6517.0
19.55360 6469.0
19.55560 6498.0
19.55760 6539.0
19.55960 6344.0
19.56160 6519.0
19.56360 6472.0
19.56560 6514.0
19.56760 6426.0
19.56960 6260.0
19.57160 6561.0
19.57360 6450.0
19.57560 6261.0
19.57760 6289.0
19.57960 6428.0
19.58160 6289.0
19.58360 6343.0
19.58560 6247.0
19.58760 6372.0
19.58960 6352.0
19.59160 6351.0
19.59360 6407.0
19.59560 6341.0
19.59760 6297.0
19.59960 6301.0
19.60160 6457.0
19.60360 6204.0
19.60560 6322.0
19.60760 6372.0
19.60960 6339.0
19.61160 6386.0
19.61360 6376.0
19.61560 6229.0
19.61760 6360.0
19.61960 6316.0
19.62160 6208.0
19.62360 6369.0
19.62560 6294.0
19.62760 6187.0
19.62960 6174.0
19.63160 6417.0
19.63360 6493.0
19.63560 6297.0
19.63760 6328.0
19.63960 6224.0
19.64160 6236.0
19.64360 6301.0
19.64560 6327.0
19.64760 6097.0
19.64960 6258.0
19.65160 6197.0
19.65360 6270.0
19.65560 6156.0
19.65760 6312.0
19.65960 6259.0
19.66160 6178.0
19.66360 5967.0
19.66560 6275.0
19.66760 6299.0
19.66960 6149.0
19.67160 6102.0
19.67360 6114.0
19.67560 6131.0
19.67760 6233.0
19.67960 6138.0
19.68160 6180.0
19.68360 6053.0
19.68560 6037.0
19.68760 6084.0
19.68960 6019.0
19.69160 6049.0
19.69360 5959.0
19.69560 6033.0
19.69760 5920.0
19.69960 6019.0
19.70160 5976.0
19.70360 5859.0
19.70560 5883.0
19.70760 5923.0
19.70960 5972.0
19.71160 5926.0
19.71360 5883.0
19.71560 5915.0
19.71760 6187.0
19.71960 5870.0
19.72160 5910.0
19.72360 5954.0
19.72560 5937.0
19.72760 5872.0
19.72960 5904.0
19.73160 5973.0
19.73360 5859.0
19.73560 5877.0
19.73760 5779.0
19.73960 5802.0
19.74160 5735.0
19.74360 5936.0
19.74560 5820.0
19.74760 5574.0
19.74960 5788.0
19.75160 5724.0
19.75360 5666.0
19.75560 5687.0
19.75760 5650.0
19.75960 5539.0
19.76160 5766.0
19.76360 5479.0
19.76560 5519.0
19.76760 5730.0
19.76960 5605.0
19.77160 5483.0
19.77360 5455.0
19.77560 5521.0
19.77760 5525.0
19.77960 5435.0
19.78160 5453.0
19.78360 5739.0
19.78560 5586.0
19.78760 5548.0
19.78960 5575.0
19.79160 5498.0
19.79360 5483.0
19.79560 5450.0
19.79760 5445.0
19.79960 5357.0
19.80160 5224.0
19.80360 5246.0
19.80560 5334.0
19.80760 5313.0
19.80960 5295.0
19.81160 5326.0
19.81360 5267.0
19.81560 5366.0
19.81760 5382.0
19.81960 5214.0
19.82160 5388.0
19.82360 5262.0
19.82560 5301.0
19.82760 5131.0
19.82960 5244.0
19.83160 5102.0
19.83360 5150.0
19.83560 5110.0
19.83760 5143.0
19.83960 5115.0
19.84160 5295.0
19.84360 5143.0
19.84560 5172.0
19.84760 5011.0
19.84960 4993.0
19.85160 5066.0
19.85360 4951.0
19.85560 5046.0
19.85760 4931.0
19.85960 4979.0
19.86160 5015.0
19.86360 5008.0
19.86560 5032.0
19.86760 4731.0
19.86960 4960.0
19.87160 4923.0
19.87360 4843.0
19.87560 4813.0
19.87760 4722.0
19.87960 4810.0
19.88160 4827.0
19.88360 4821.0
19.88560 4817.0
19.88760 4842.0
19.88960 4706.0
19.89160 4694.0
19.89360 4635.0
19.89560 4786.0
19.89760 4706.0
19.89960 4661.0
19.90160 4631.0
19.90360 4642.0
19.90560 4700.0
19.90760 4661.0
19.90960 4627.0
19.91160 4671.0
19.91360 4603.0
19.91560 4449.0
19.91760 4517.0
19.91960 4520.0
19.92160 4473.0
19.92360 4410.0
19.92560 4461.0
19.92760 4413.0
19.92960 4359.0
19.93160 4441.0
19.93360 4375.0
19.93560 4423.0
19.93760 4386.0
19.93960 4411.0
19.94160 4333.0
19.94360 4345.0
19.94560 4439.0
19.94760 4249.0
19.94960 4214.0
19.95160 4277.0
19.95360 4267.0
19.95560 4246.0
19.95760 4043.0
19.95960 4247.0
19.96160 4146.0
19.96360 4170.0
19.96560 4115.0
19.96760 4204.0
19.96960 4168.0
19.97160 4328.0
19.97360 4182.0
19.97560 4215.0
19.97760 4048.0
19.97960 4122.0
19.98160 4109.0
19.98360 3960.0
19.98560 3992.0
19.98760 4097.0
19.98960 3997.0
19.99160 4040.0
19.99360 4082.0
19.99560 3918.0
19.99760 3943.0
19.99960 3903.0
20.00160 3918.0
20.00360 3837.0
20.00560 3945.0
20.00760 3747.0
20.00960 3797.0
20.01160 3820.0
20.01360 3723.0
20.01560 3854.0
20.01760 3767.0
20.01960 3732.0
20.02160 3838.0
20.02360 3775.0
20.02560 3609.0
20.02760 3762.0
20.02960 3753.0
20.03160 3591.0
20.03360 3580.0
20.03560 3711.0
20.03760 3798.0
20.03960 3650.0
20.04160 3604.0
20.04360 3543.0
20.04560 3557.0
20.04760 3646.0
20.04960 3602.0
20.05160 3567.0
20.05360 3593.0
20.05560 3566.0
20.05760 3479.0
20.05960 3434.0
20.06160 3445.0
20.06360 3341.0
20.06560 3469.0
20.06760 3405.0
20.06960 3411.0
20.07160 3281.0
20.07360 3323.0
20.07560 3361.0
20.07760 3436.0
20.07960 3440.0
20.08160 3440.0
20.08360 3335.0
20.08560 3266.0
20.08760 3257.0
20.08960 3250.0
20.09160 3341.0
20.09360 3195.0
20.09560 3191.0
20.09760 3208.0
20.09960 3172.0
20.10160 3096.0
20.10360 3120.0
20.10560 3149.0
20.10760 3113.0
20.10960 3137.0
20.11160 3177.0
20.11360 3135.0
20.11560 3117.0
20.11760 3060.0
20.11960 3025.0
20.12160 3039.0
20.12360 2960.0
20.12560 2904.0
20.12760 2949.0
20.12960 2978.0
20.13160 2943.0
20.13360 2979.0
20.13560 2938.0
20.13760 2990.0
20.13960 2875.0
20.14160 2902.0
20.14360 2934.0
20.14560 2911.0
20.14760 2988.0
20.14960 2948.0
20.15160 3055.0
20.15360 2893.0
20.15560 2912.0
20.15760 2908.0
20.15960 2933.0
20.16160 2918.0
20.16360 2730.0
20.16560 2908.0
20.16760 2795.0
20.16960 2847.0
20.17160 2800.0
20.17360 2767.0
20.17560 2765.0
20.17760 2708.0
20.17960 2779.0
20.18160 2661.0
20.18360 2681.0
20.18560 2652.0
20.18760 2616.0
20.18960 2769.0
20.19160 2671.0
20.19360 2743.0
20.19560 2665.0
20.19760 2544.0
20.19960 2696.0
20.20160 2685.0
20.20360 2631.0
20.20560 2599.0
20.20760 2615.0
20.20960 2559.0
20.21160 2554.0
20.21360 2552.0
20.21560 2444.0
20.21760 2550.0
20.21960 2679.0
20.22160 2549.0
20.22360 2484.0
20.22560 2511.0
20.22760 2573.0
20.22960 2544.0
20.23160 2471.0
20.23360 2437.0
20.23560 2467.0
20.23760 2513.0
20.23960 2432.0
20.24160 2443.0
20.24360 2493.0
20.24560 2380.0
20.24760 2443.0
20.24960 2423.0
20.25160 2383.0
20.25360 2386.0
20.25560 2325.0
20.25760 2287.0
20.25960 2175.0
20.26160 2264.0
20.26360 2349.0
20.26560 2274.0
20.26760 2245.0
20.26960 2229.0
20.27160 2216.0
20.27360 2192.0
20.27560 2203.0
20.27760 2131.0
20.27960 2215.0
20.28160 2198.0
20.28360 2150.0
20.28560 2154.0
20.28760 2123.0
20.28960 2131.0
20.29160 2163.0
20.29360 2097.0
20.29560 2102.0
20.29760 2045.0
20.29960 2028.0
20.30160 2108.0
20.30360 1991.0
20.30560 2064.0
20.30760 1939.0
20.30960 2119.0
20.31160 2102.0
20.31360 2012.0
20.31560 1915.0
20.31760 2061.0
20.31960 1955.0
20.32160 1973.0
20.32360 1938.0
20.32560 1939.0
20.32760 1929.0
20.32960 1888.0
20.33160 1874.0
20.33360 1908.0
20.33560 1912.0
20.33760 1955.0
20.33960 1913.0
20.34160 1872.0
20.34360 1799.0
20.34560 1823.0
20.34760 1832.0
20.34960 1862.0
20.35160 1773.0
20.35360 1777.0
20.35560 1739.0
20.35760 1794.0
20.35960 1786.0
20.36160 1729.0
20.36360 1834.0
20.36560 1846.0
20.36760 1760.0
20.36960 1789.0
20.37160 1749.0
20.37360 1823.0
20.37560 1710.0
20.37760 1721.0
20.37960 1774.0
20.38160 1744.0
20.38360 1796.0
20.38560 1652.0
20.38760 1744.0
20.38960 1724.0
20.39160 1759.0
20.39360 1601.0
20.39560 1670.0
20.39760 1708.0
20.39960 1609.0
20.40160 1650.0
20.40360 1600.0
20.40560 1670.0
20.40760 1678.0
20.40960 1613.0
20.41160 1667.0
20.41360 1604.0
20.41560 1616.0
20.41760 1595.0
20.41960 1628.0
20.42160 1638.0
20.42360 1554.0
20.42560 1528.0
20.42760 1534.0
20.42960 1517.0
20.43160 1605.0
20.43360 1569.0
20.43560 1525.0
20.43760 1459.0
20.43960 1556.0
20.44160 1535.0
20.44360 1561.0
20.44560 1457.0
20.44760 1562.0
20.44960 1538.0
20.45160 1459.0
20.45360 1505.0
20.45560 1522.0
20.45760 1472.0
20.45960 1396.0
20.46160 1461.0
20.46360 1435.0
20.46560 1493.0
20.46760 1515.0
20.46960 1438.0
20.47160 1428.0
20.47360 1454.0
20.47560 1382.0
20.47760 1444.0
20.47960 1406.0
20.48160 1492.0
20.48360 1402.0
20.48560 1295.0
20.48760 1433.0
20.48960 1426.0
20.49160 1326.0
20.49360 1415.0
20.49560 1365.0
20.49760 1404.0
20.49960 1404.0
20.50160 1357.0
20.50360 1363.0
20.50560 1400.0
20.50760 1413.0
20.50960 1346.0
20.51160 1286.0
20.51360 1323.0
20.51560 1383.0
20.51760 1250.0
20.51960 1262.0
20.52160 1324.0
20.52360 1324.0
20.52560 1237.0
20.52760 1317.0
20.52960 1286.0
20.53160 1296.0
20.53360 1232.0
20.53560 1264.0
20.53760 1311.0
20.53960 1234.0
20.54160 1293.0
20.54360 1272.0
20.54560 1247.0
20.54760 1261.0
20.54960 1249.0
20.55160 1224.0
20.55360 1249.0
20.55560 1140.0
20.55760 1256.0
20.55960 1245.0
20.56160 1234.0
20.56360 1253.0
20.56560 1184.0
20.56760 1255.0
20.56960 1206.0
20.57160 1153.0
20.57360 1130.0
20.57560 1146.0
20.57760 1121.0
20.57960 1202.0
20.58160 1172.0
20.58360 1174.0
20.58560 1197.0
20.58760 1153.0
20.58960 1178.0
20.59160 1183.0
20.59360 1190.0
20.59560 1175.0
20.59760 1119.0
20.59960 1135.0
20.60160 1118.0
20.60360 1122.0
20.60560 1136.0
20.60760 1120.0