File: data/W6900m/XRD_Omega/scan_omega_4deg_step_0.005deg0_C1_2.xy
29.91400 96.0
29.91900 105.0
29.92400 85.0
29.92900 96.0
29.93400 93.0
29.93900 84.0
29.94400 107.0
29.94900 104.0
29.95400 99.0
29.95900 82.0
29.96400 76.0
29.96900 99.0
29.97400 91.0
29.97900 70.0
29.98400 71.0
29.98900 95.0
29.99400 106.0
29.99900 79.0
30.00400 97.0
30.00900 95.0
30.01400 98.0
30.01900 75.0
30.02400 100.0
30.02900 91.0
30.03400 89.0
30.03900 97.0
30.04400 97.0
30.04900 84.0
30.05400 90.0
30.05900 97.0
30.06400 93.0
30.06900 84.0
30.07400 84.0
30.07900 101.0
30.08400 90.0
30.08900 99.0
30.09400 94.0
30.09900 87.0
30.10400 86.0
30.10900 90.0
30.11400 115.0
30.11900 88.0
30.12400 104.0
30.12900 103.0
30.13400 102.0
30.13900 99.0
30.14400 92.0
30.14900 105.0
30.15400 94.0
30.15900 90.0
30.16400 91.0
30.16900 110.0
30.17400 90.0
30.17900 82.0
30.18400 117.0
30.18900 90.0
30.19400 79.0
30.19900 96.0
30.20400 94.0
30.20900 87.0
30.21400 106.0
30.21900 85.0
30.22400 81.0
30.22900 87.0
30.23400 91.0
30.23900 98.0
30.24400 75.0
30.24900 96.0
30.25400 93.0
30.25900 84.0
30.26400 104.0
30.26900 91.0
30.27400 81.0
30.27900 96.0
30.28400 89.0
30.28900 95.0
30.29400 101.0
30.29900 98.0
30.30400 101.0
30.30900 83.0
30.31400 88.0
30.31900 82.0
30.32400 98.0
30.32900 85.0
30.33400 93.0
30.33900 96.0
30.34400 87.0
30.34900 82.0
30.35400 93.0
30.35900 77.0
30.36400 100.0
30.36900 96.0
30.37400 99.0
30.37900 99.0
30.38400 110.0
30.38900 89.0
30.39400 95.0
30.39900 86.0
30.40400 86.0
30.40900 81.0
30.41400 88.0
30.41900 102.0
30.42400 112.0
30.42900 72.0
30.43400 98.0
30.43900 108.0
30.44400 98.0
30.44900 97.0
30.45400 102.0
30.45900 85.0
30.46400 129.0
30.46900 107.0
30.47400 96.0
30.47900 96.0
30.48400 96.0
30.48900 98.0
30.49400 96.0
30.49900 91.0
30.50400 112.0
30.50900 106.0
30.51400 87.0
30.51900 85.0
30.52400 84.0
30.52900 97.0
30.53400 89.0
30.53900 83.0
30.54400 105.0
30.54900 104.0
30.55400 92.0
30.55900 101.0
30.56400 89.0
30.56900 113.0
30.57400 88.0
30.57900 94.0
30.58400 81.0
30.58900 96.0
30.59400 91.0
30.59900 99.0
30.60400 85.0
30.60900 86.0
30.61400 83.0
30.61900 96.0
30.62400 79.0
30.62900 89.0
30.63400 93.0
30.63900 99.0
30.64400 113.0
30.64900 109.0
30.65400 107.0
30.65900 104.0
30.66400 126.0
30.66900 114.0
30.67400 112.0
30.67900 106.0
30.68400 98.0
30.68900 102.0
30.69400 96.0
30.69900 108.0
30.70400 101.0
30.70900 116.0
30.71400 95.0
30.71900 87.0
30.72400 85.0
30.72900 92.0
30.73400 98.0
30.73900 100.0
30.74400 112.0
30.74900 97.0
30.75400 97.0
30.75900 103.0
30.76400 112.0
30.76900 114.0
30.77400 94.0
30.77900 87.0
30.78400 100.0
30.78900 116.0
30.79400 96.0
30.79900 116.0
30.80400 107.0
30.80900 107.0
30.81400 107.0
30.81900 134.0
30.82400 111.0
30.82900 117.0
30.83400 105.0
30.83900 115.0
30.84400 109.0
30.84900 120.0
30.85400 118.0
30.85900 111.0
30.86400 105.0
30.86900 102.0
30.87400 109.0
30.87900 96.0
30.88400 101.0
30.88900 120.0
30.89400 102.0
30.89900 97.0
30.90400 124.0
30.90900 117.0
30.91400 108.0
30.91900 114.0
30.92400 100.0
30.92900 116.0
30.93400 101.0
30.93900 126.0
30.94400 115.0
30.94900 121.0
30.95400 105.0
30.95900 137.0
30.96400 121.0
30.96900 118.0
30.97400 127.0
30.97900 118.0
30.98400 139.0
30.98900 129.0
30.99400 127.0
30.99900 135.0
31.00400 114.0
31.00900 103.0
31.01400 114.0
31.01900 127.0
31.02400 109.0
31.02900 121.0
31.03400 152.0
31.03900 114.0
31.04400 130.0
31.04900 133.0
31.05400 127.0
31.05900 146.0
31.06400 138.0
31.06900 137.0
31.07400 152.0
31.07900 124.0
31.08400 136.0
31.08900 127.0
31.09400 158.0
31.09900 136.0
31.10400 138.0
31.10900 128.0
31.11400 148.0
31.11900 144.0
31.12400 152.0
31.12900 132.0
31.13400 155.0
31.13900 144.0
31.14400 146.0
31.14900 173.0
31.15400 160.0
31.15900 156.0
31.16400 158.0
31.16900 138.0
31.17400 161.0
31.17900 177.0
31.18400 181.0
31.18900 151.0
31.19400 135.0
31.19900 161.0
31.20400 172.0
31.20900 164.0
31.21400 139.0
31.21900 161.0
31.22400 171.0
31.22900 166.0
31.23400 171.0
31.23900 193.0
31.24400 177.0
31.24900 201.0
31.25400 183.0
31.25900 204.0
31.26400 177.0
31.26900 203.0
31.27400 182.0
31.27900 192.0
31.28400 188.0
31.28900 195.0
31.29400 202.0
31.29900 203.0
31.30400 199.0
31.30900 218.0
31.31400 204.0
31.31900 207.0
31.32400 221.0
31.32900 195.0
31.33400 217.0
31.33900 206.0
31.34400 211.0
31.34900 218.0
31.35400 232.0
31.35900 254.0
31.36400 248.0
31.36900 207.0
31.37400 224.0
31.37900 234.0
31.38400 232.0
31.38900 253.0
31.39400 262.0
31.39900 250.0
31.40400 250.0
31.40900 251.0
31.41400 288.0
31.41900 285.0
31.42400 282.0
31.42900 272.0
31.43400 256.0
31.43900 257.0
31.44400 330.0
31.44900 304.0
31.45400 318.0
31.45900 312.0
31.46400 351.0
31.46900 341.0
31.47400 320.0
31.47900 349.0
31.48400 330.0
31.48900 333.0
31.49400 341.0
31.49900 335.0
31.50400 362.0
31.50900 378.0
31.51400 382.0
31.51900 379.0
31.52400 396.0
31.52900 375.0
31.53400 394.0
31.53900 397.0
31.54400 414.0
31.54900 422.0
31.55400 417.0
31.55900 399.0
31.56400 440.0
31.56900 446.0
31.57400 449.0
31.57900 462.0
31.58400 449.0
31.58900 455.0
31.59400 469.0
31.59900 493.0
31.60400 497.0
31.60900 524.0
31.61400 506.0
31.61900 501.0
31.62400 518.0
31.62900 543.0
31.63400 565.0
31.63900 547.0
31.64400 598.0
31.64900 566.0
31.65400 616.0
31.65900 612.0
31.66400 599.0
31.66900 589.0
31.67400 613.0
31.67900 663.0
31.68400 563.0
31.68900 659.0
31.69400 667.0
31.69900 677.0
31.70400 623.0
31.70900 682.0
31.71400 686.0
31.71900 703.0
31.72400 696.0
31.72900 660.0
31.73400 710.0
31.73900 783.0
31.74400 758.0
31.74900 755.0
31.75400 744.0
31.75900 735.0
31.76400 766.0
31.76900 790.0
31.77400 755.0
31.77900 800.0
31.78400 773.0
31.78900 805.0
31.79400 826.0
31.79900 816.0
31.80400 815.0
31.80900 826.0
31.81400 883.0
31.81900 835.0
31.82400 817.0
31.82900 846.0
31.83400 819.0
31.83900 939.0
31.84400 835.0
31.84900 936.0
31.85400 901.0
31.85900 920.0
31.86400 877.0
31.86900 909.0
31.87400 821.0
31.87900 863.0
31.88400 867.0
31.88900 831.0
31.89400 869.0
31.89900 922.0
31.90400 925.0
31.90900 890.0
31.91400 815.0
31.91900 945.0
31.92400 859.0
31.92900 886.0
31.93400 891.0
31.93900 856.0
31.94400 877.0
31.94900 938.0
31.95400 849.0
31.95900 911.0
31.96400 850.0
31.96900 867.0
31.97400 853.0
31.97900 844.0
31.98400 853.0
31.98900 835.0
31.99400 829.0
31.99900 780.0
32.00400 817.0
32.00900 814.0
32.01400 792.0
32.01900 756.0
32.02400 789.0
32.02900 766.0
32.03400 711.0
32.03900 749.0
32.04400 743.0
32.04900 753.0
32.05400 742.0
32.05900 742.0
32.06400 740.0
32.06900 702.0
32.07400 739.0
32.07900 670.0
32.08400 722.0
32.08900 707.0
32.09400 692.0
32.09900 682.0
32.10400 690.0
32.10900 684.0
32.11400 669.0
32.11900 696.0
32.12400 666.0
32.12900 629.0
32.13400 665.0
32.13900 612.0
32.14400 622.0
32.14900 607.0
32.15400 606.0
32.15900 603.0
32.16400 643.0
32.16900 640.0
32.17400 650.0
32.17900 592.0
32.18400 567.0
32.18900 604.0
32.19400 621.0
32.19900 574.0
32.20400 581.0
32.20900 518.0
32.21400 577.0
32.21900 572.0
32.22400 578.0
32.22900 530.0
32.23400 540.0
32.23900 541.0
32.24400 533.0
32.24900 493.0
32.25400 494.0
32.25900 498.0
32.26400 488.0
32.26900 466.0
32.27400 435.0
32.27900 463.0
32.28400 449.0
32.28900 469.0
32.29400 444.0
32.29900 459.0
32.30400 455.0
32.30900 436.0
32.31400 445.0
32.31900 412.0
32.32400 424.0
32.32900 445.0
32.33400 423.0
32.33900 384.0
32.34400 394.0
32.34900 413.0
32.35400 380.0
32.35900 371.0
32.36400 400.0
32.36900 416.0
32.37400 374.0
32.37900 374.0
32.38400 337.0
32.38900 333.0
32.39400 340.0
32.39900 317.0
32.40400 341.0
32.40900 312.0
32.41400 331.0
32.41900 317.0
32.42400 343.0
32.42900 290.0
32.43400 282.0
32.43900 312.0
32.44400 278.0
32.44900 286.0
32.45400 316.0
32.45900 284.0
32.46400 286.0
32.46900 270.0
32.47400 255.0
32.47900 272.0
32.48400 279.0
32.48900 256.0
32.49400 218.0
32.49900 228.0
32.50400 238.0
32.50900 232.0
32.51400 243.0
32.51900 226.0
32.52400 200.0
32.52900 225.0
32.53400 250.0
32.53900 226.0
32.54400 226.0
32.54900 240.0
32.55400 214.0
32.55900 210.0
32.56400 247.0
32.56900 213.0
32.57400 199.0
32.57900 216.0
32.58400 210.0
32.58900 199.0
32.59400 212.0
32.59900 198.0
32.60400 197.0
32.60900 199.0
32.61400 214.0
32.61900 178.0
32.62400 180.0
32.62900 208.0
32.63400 159.0
32.63900 172.0
32.64400 164.0
32.64900 195.0
32.65400 194.0
32.65900 170.0
32.66400 181.0
32.66900 182.0
32.67400 186.0
32.67900 175.0
32.68400 153.0
32.68900 159.0
32.69400 166.0
32.69900 170.0
32.70400 142.0
32.70900 176.0
32.71400 154.0
32.71900 188.0
32.72400 167.0
32.72900 153.0
32.73400 162.0
32.73900 162.0
32.74400 146.0
32.74900 149.0
32.75400 153.0
32.75900 153.0
32.76400 159.0
32.76900 159.0
32.77400 133.0
32.77900 148.0
32.78400 116.0
32.78900 159.0
32.79400 151.0
32.79900 125.0
32.80400 138.0
32.80900 135.0
32.81400 149.0
32.81900 149.0
32.82400 131.0
32.82900 145.0
32.83400 118.0
32.83900 149.0
32.84400 132.0
32.84900 151.0
32.85400 135.0
32.85900 130.0
32.86400 119.0
32.86900 131.0
32.87400 122.0
32.87900 115.0
32.88400 136.0
32.88900 110.0
32.89400 124.0
32.89900 141.0
32.90400 115.0
32.90900 111.0
32.91400 128.0
32.91900 137.0
32.92400 129.0
32.92900 128.0
32.93400 114.0
32.93900 126.0
32.94400 119.0
32.94900 114.0
32.95400 102.0
32.95900 123.0
32.96400 120.0
32.96900 136.0
32.97400 131.0
32.97900 117.0
32.98400 111.0
32.98900 116.0
32.99400 102.0
32.99900 129.0
33.00400 125.0
33.00900 92.0
33.01400 106.0
33.01900 119.0
33.02400 103.0
33.02900 105.0
33.03400 100.0
33.03900 108.0
33.04400 122.0
33.04900 113.0
33.05400 111.0
33.05900 105.0
33.06400 117.0
33.06900 121.0
33.07400 115.0
33.07900 104.0
33.08400 110.0
33.08900 113.0
33.09400 88.0
33.09900 119.0
33.10400 97.0
33.10900 98.0
33.11400 114.0
33.11900 93.0
33.12400 95.0
33.12900 118.0
33.13400 105.0
33.13900 116.0
33.14400 108.0
33.14900 94.0
33.15400 111.0
33.15900 102.0
33.16400 106.0
33.16900 102.0
33.17400 107.0
33.17900 92.0
33.18400 97.0
33.18900 97.0
33.19400 91.0
33.19900 87.0
33.20400 96.0
33.20900 108.0
33.21400 87.0
33.21900 103.0
33.22400 113.0
33.22900 94.0
33.23400 99.0
33.23900 98.0
33.24400 106.0
33.24900 83.0
33.25400 92.0
33.25900 108.0
33.26400 102.0
33.26900 101.0
33.27400 98.0
33.27900 89.0
33.28400 88.0
33.28900 83.0
33.29400 90.0
33.29900 98.0
33.30400 90.0
33.30900 90.0
33.31400 100.0
33.31900 80.0
33.32400 106.0
33.32900 95.0
33.33400 95.0
33.33900 84.0
33.34400 83.0
33.34900 94.0
33.35400 97.0
33.35900 86.0
33.36400 89.0
33.36900 80.0
33.37400 80.0
33.37900 77.0
33.38400 84.0
33.38900 116.0
33.39400 91.0
33.39900 89.0
33.40400 96.0
33.40900 97.0
33.41400 110.0
33.41900 95.0
33.42400 110.0
33.42900 89.0
33.43400 95.0
33.43900 86.0
33.44400 82.0
33.44900 97.0
33.45400 102.0
33.45900 85.0
33.46400 76.0
33.46900 86.0
33.47400 86.0
33.47900 82.0
33.48400 96.0
33.48900 92.0
33.49400 77.0
33.49900 104.0
33.50400 91.0
33.50900 98.0
33.51400 84.0
33.51900 98.0
33.52400 74.0
33.52900 79.0
33.53400 93.0
33.53900 96.0
33.54400 69.0
33.54900 78.0
33.55400 90.0
33.55900 96.0
33.56400 70.0
33.56900 76.0
33.57400 85.0
33.57900 89.0
33.58400 74.0
33.58900 88.0
33.59400 81.0
33.59900 91.0
33.60400 93.0
33.60900 94.0
33.61400 74.0
33.61900 81.0
33.62400 114.0
33.62900 86.0
33.63400 91.0
33.63900 88.0
33.64400 85.0
33.64900 80.0
33.65400 89.0
33.65900 92.0
33.66400 63.0
33.66900 95.0
33.67400 102.0
33.67900 89.0
33.68400 81.0
33.68900 112.0
33.69400 109.0
33.69900 92.0
33.70400 93.0
33.70900 96.0
33.71400 87.0
33.71900 88.0
33.72400 95.0
33.72900 78.0
33.73400 82.0
33.73900 88.0
33.74400 90.0
33.74900 82.0
33.75400 100.0
33.75900 93.0
33.76400 94.0
33.76900 96.0
33.77400 83.0
33.77900 70.0
33.78400 106.0
33.78900 105.0
33.79400 86.0
33.79900 99.0
33.80400 90.0
33.80900 87.0
33.81400 84.0
33.81900 91.0
33.82400 98.0
33.82900 87.0
33.83400 92.0
33.83900 87.0
33.84400 99.0
33.84900 83.0
33.85400 84.0
33.85900 94.0
33.86400 81.0
33.86900 96.0
33.87400 74.0