File: data/W6957a/XRD_2ThetaOmega/a_scan_2th-om_10-130deg_PIXscan_17min_C1.xy
10.0035 48.0
10.0872 47.0
10.1709 47.0
10.2546 40.0
10.3383 43.0
10.422 38.0
10.5057 50.0
10.5894 59.0
10.6731 48.0
10.7568 52.0
10.8405 44.0
10.9242 35.0
11.0079 38.0
11.0916 43.0
11.1753 51.0
11.259 51.0
11.3428 35.0
11.4265 55.0
11.5102 55.0
11.5939 37.0
11.6776 41.0
11.7613 62.0
11.845 53.0
11.9287 42.0
12.0124 44.0
12.0961 41.0
12.1798 42.0
12.2635 42.0
12.3472 48.0
12.4309 36.0
12.5146 55.0
12.5983 35.0
12.682 44.0
12.7657 41.0
12.8495 36.0
12.9332 35.0
13.0169 39.0
13.1006 54.0
13.1843 35.0
13.268 32.0
13.3517 44.0
13.4354 42.0
13.5191 37.0
13.6028 53.0
13.6865 17.0
13.7702 37.0
13.8539 31.0
13.9376 40.0
14.0213 33.0
14.105 33.0
14.1887 33.0
14.2724 30.0
14.3562 34.0
14.4399 33.0
14.5236 34.0
14.6073 29.0
14.691 36.0
14.7747 24.0
14.8584 40.0
14.9421 29.0
15.0258 36.0
15.1095 35.0
15.1932 39.0
15.2769 31.0
15.3606 39.0
15.4443 39.0
15.528 38.0
15.6117 47.0
15.6954 38.0
15.7791 30.0
15.8629 28.0
15.9466 29.0
16.0303 23.0
16.114 43.0
16.1977 33.0
16.2814 27.0
16.3651 31.0
16.4488 33.0
16.5325 33.0
16.6162 34.0
16.6999 29.0
16.7836 33.0
16.8673 31.0
16.951 39.0
17.0347 34.0
17.1184 40.0
17.2021 27.0
17.2858 38.0
17.3696 33.0
17.4533 29.0
17.537 26.0
17.6207 33.0
17.7044 39.0
17.7881 30.0
17.8718 32.0
17.9555 26.0
18.0392 36.0
18.1229 39.0
18.2066 33.0
18.2903 33.0
18.374 35.0
18.4577 24.0
18.5414 28.0
18.6251 30.0
18.7088 23.0
18.7925 29.0
18.8763 31.0
18.96 24.0
19.0437 27.0
19.1274 28.0
19.2111 22.0
19.2948 41.0
19.3785 30.0
19.4622 30.0
19.5459 29.0
19.6296 24.0
19.7133 24.0
19.797 30.0
19.8807 28.0
19.9644 36.0
20.0481 40.0
20.1318 22.0
20.2155 25.0
20.2992 26.0
20.383 25.0
20.4667 22.0
20.5504 20.0
20.6341 22.0
20.7178 30.0
20.8015 21.0
20.8852 19.0
20.9689 30.0
21.0526 29.0
21.1363 33.0
21.22 18.0
21.3037 18.0
21.3874 31.0
21.4711 24.0
21.5548 23.0
21.6385 28.0
21.7222 20.0
21.8059 27.0
21.8897 23.0
21.9734 23.0
22.0571 16.0
22.1408 26.0
22.2245 23.0
22.3082 30.0
22.3919 30.0
22.4756 22.0
22.5593 19.0
22.643 33.0
22.7267 28.0
22.8104 19.0
22.8941 23.0
22.9778 28.0
23.0615 27.0
23.1452 22.0
23.2289 25.0
23.3126 17.0
23.3964 26.0
23.4801 28.0
23.5638 32.0
23.6475 24.0
23.7312 24.0
23.8149 25.0
23.8986 23.0
23.9823 19.0
24.066 29.0
24.1497 19.0
24.2334 21.0
24.3171 26.0
24.4008 21.0
24.4845 25.0
24.5682 36.0
24.6519 30.0
24.7356 27.0
24.8193 24.0
24.9031 29.0
24.9868 29.0
25.0705 26.0
25.1542 18.0
25.2379 26.0
25.3216 21.0
25.4053 18.0
25.489 30.0
25.5727 21.0
25.6564 24.0
25.7401 22.0
25.8238 24.0
25.9075 23.0
25.9912 22.0
26.0749 24.0
26.1586 31.0
26.2423 26.0
26.326 15.0
26.4098 30.0
26.4935 24.0
26.5772 28.0
26.6609 17.0
26.7446 19.0
26.8283 27.0
26.912 29.0
26.9957 22.0
27.0794 20.0
27.1631 18.0
27.2468 24.0
27.3305 24.0
27.4142 17.0
27.4979 21.0
27.5816 26.0
27.6653 26.0
27.749 13.0
27.8327 23.0
27.9165 24.0
28.0002 19.0
28.0839 21.0
28.1676 31.0
28.2513 28.0
28.335 23.0
28.4187 34.0
28.5024 20.0
28.5861 29.0
28.6698 15.0
28.7535 23.0
28.8372 26.0
28.9209 16.0
29.0046 28.0
29.0883 22.0
29.172 21.0
29.2557 23.0
29.3394 22.0
29.4232 20.0
29.5069 16.0
29.5906 18.0
29.6743 25.0
29.758 18.0
29.8417 20.0
29.9254 17.0
30.0091 23.0
30.0928 20.0
30.1765 26.0
30.2602 12.0
30.3439 17.0
30.4276 18.0
30.5113 24.0
30.595 17.0
30.6787 21.0
30.7624 27.0
30.8461 31.0
30.9298 23.0
31.0136 27.0
31.0973 20.0
31.181 23.0
31.2647 16.0
31.3484 20.0
31.4321 28.0
31.5158 20.0
31.5995 20.0
31.6832 24.0
31.7669 24.0
31.8506 25.0
31.9343 16.0
32.018 19.0
32.1017 24.0
32.1854 39.0
32.2691 53.0
32.3528 232.0
32.4365 56.0
32.5203 30.0
32.604 25.0
32.6877 28.0
32.7714 16.0
32.8551 24.0
32.9388 18.0
33.0225 33.0
33.1062 29.0
33.1899 25.0
33.2736 28.0
33.3573 31.0
33.441 24.0
33.5247 26.0
33.6084 18.0
33.6921 29.0
33.7758 33.0
33.8595 33.0
33.9432 154.0
34.027 52.0
34.1107 43.0
34.1944 34.0
34.2781 46.0
34.3618 78.0
34.4455 45.0
34.5292 42.0
34.6129 47.0
34.6966 57.0
34.7803 70.0
34.864 76.0
34.9477 104.0
35.0314 104.0
35.1151 134.0
35.1988 174.0
35.2825 196.0
35.3662 243.0
35.4499 347.0
35.5337 481.0
35.6174 961.0
35.7011 3739.0
35.7848 10376.0
35.8685 23894.0
35.9522 51268.0
36.0359 30159.0
36.1196 3014.0
36.2033 1104.0
36.287 647.0
36.3707 445.0
36.4544 283.0
36.5381 227.0
36.6218 171.0
36.7055 142.0
36.7892 127.0
36.8729 104.0
36.9566 114.0
37.0404 131.0
37.1241 126.0
37.2078 143.0
37.2915 166.0
37.3752 199.0
37.4589 326.0
37.5426 833.0
37.6263 1288.0
37.71 64505.0
37.7937 19247.0
37.8774 3116.0
37.9611 580.0
38.0448 296.0
38.1285 216.0
38.2122 153.0
38.2959 97.0
38.3796 83.0
38.4633 82.0
38.5471 69.0
38.6308 40.0
38.7145 40.0
38.7982 42.0
38.8819 38.0
38.9656 27.0
39.0493 46.0
39.133 32.0
39.2167 28.0
39.3004 31.0
39.3841 20.0
39.4678 18.0
39.5515 23.0
39.6352 27.0
39.7189 32.0
39.8026 29.0
39.8863 24.0
39.97 16.0
40.0538 28.0
40.1375 25.0
40.2212 26.0
40.3049 29.0
40.3886 27.0
40.4723 33.0
40.556 29.0
40.6397 21.0
40.7234 32.0
40.8071 27.0
40.8908 29.0
40.9745 26.0
41.0582 27.0
41.1419 24.0
41.2256 16.0
41.3093 26.0
41.393 32.0
41.4767 25.0
41.5605 32.0
41.6442 25.0
41.7279 33.0
41.8116 28.0
41.8953 20.0
41.979 18.0
42.0627 20.0
42.1464 27.0
42.2301 34.0
42.3138 26.0
42.3975 25.0
42.4812 29.0
42.5649 16.0
42.6486 33.0
42.7323 26.0
42.816 20.0
42.8997 29.0
42.9834 11.0
43.0672 28.0
43.1509 16.0
43.2346 21.0
43.3183 30.0
43.402 27.0
43.4857 39.0
43.5694 20.0
43.6531 15.0
43.7368 22.0
43.8205 31.0
43.9042 23.0
43.9879 23.0
44.0716 35.0
44.1553 32.0
44.239 33.0
44.3227 47.0
44.4064 43.0
44.4901 59.0
44.5739 31.0
44.6576 27.0
44.7413 21.0
44.825 28.0
44.9087 27.0
44.9924 22.0
45.0761 18.0
45.1598 29.0
45.2435 30.0
45.3272 31.0
45.4109 26.0
45.4946 22.0
45.5783 16.0
45.662 18.0
45.7457 17.0
45.8294 20.0
45.9131 25.0
45.9968 21.0
46.0806 21.0
46.1643 24.0
46.248 24.0
46.3317 16.0
46.4154 15.0
46.4991 23.0
46.5828 23.0
46.6665 23.0
46.7502 22.0
46.8339 19.0
46.9176 17.0
47.0013 21.0
47.085 21.0
47.1687 15.0
47.2524 23.0
47.3361 20.0
47.4198 19.0
47.5035 25.0
47.5873 20.0
47.671 29.0
47.7547 22.0
47.8384 18.0
47.9221 14.0
48.0058 23.0
48.0895 19.0
48.1732 23.0
48.2569 31.0
48.3406 20.0
48.4243 20.0
48.508 29.0
48.5917 19.0
48.6754 20.0
48.7591 23.0
48.8428 27.0
48.9265 25.0
49.0102 30.0
49.094 23.0
49.1777 22.0
49.2614 27.0
49.3451 17.0
49.4288 27.0
49.5125 23.0
49.5962 25.0
49.6799 24.0
49.7636 18.0
49.8473 24.0
49.931 26.0
50.0147 15.0
50.0984 23.0
50.1821 28.0
50.2658 30.0
50.3495 22.0
50.4332 21.0
50.5169 27.0
50.6007 33.0
50.6844 29.0
50.7681 14.0
50.8518 26.0
50.9355 21.0
51.0192 19.0
51.1029 17.0
51.1866 16.0
51.2703 14.0
51.354 18.0
51.4377 21.0
51.5214 20.0
51.6051 22.0
51.6888 26.0
51.7725 18.0
51.8562 22.0
51.9399 21.0
52.0236 18.0
52.1074 26.0
52.1911 27.0
52.2748 19.0
52.3585 17.0
52.4422 23.0
52.5259 22.0
52.6096 21.0
52.6933 17.0
52.777 23.0
52.8607 32.0
52.9444 26.0
53.0281 24.0
53.1118 14.0
53.1955 23.0
53.2792 22.0
53.3629 27.0
53.4466 20.0
53.5303 16.0
53.6141 18.0
53.6978 14.0
53.7815 21.0
53.8652 18.0
53.9489 25.0
54.0326 26.0
54.1163 20.0
54.2 16.0
54.2837 28.0
54.3674 27.0
54.4511 19.0
54.5348 30.0
54.6185 34.0
54.7022 28.0
54.7859 21.0
54.8696 25.0
54.9533 24.0
55.037 22.0
55.1208 31.0
55.2045 33.0
55.2882 20.0
55.3719 14.0
55.4556 22.0
55.5393 23.0
55.623 20.0
55.7067 18.0
55.7904 29.0
55.8741 19.0
55.9578 24.0
56.0415 26.0
56.1252 18.0
56.2089 25.0
56.2926 27.0
56.3763 19.0
56.46 30.0
56.5437 13.0
56.6275 24.0
56.7112 25.0
56.7949 24.0
56.8786 30.0
56.9623 34.0
57.046 13.0
57.1297 22.0
57.2134 38.0
57.2971 21.0
57.3808 21.0
57.4645 21.0
57.5482 21.0
57.6319 18.0
57.7156 20.0
57.7993 21.0
57.883 27.0
57.9667 27.0
58.0504 21.0
58.1342 25.0
58.2179 15.0
58.3016 20.0
58.3853 26.0
58.469 32.0
58.5527 17.0
58.6364 27.0
58.7201 28.0
58.8038 18.0
58.8875 22.0
58.9712 25.0
59.0549 18.0
59.1386 20.0
59.2223 34.0
59.306 37.0
59.3897 21.0
59.4734 26.0
59.5571 23.0
59.6409 34.0
59.7246 26.0
59.8083 27.0
59.892 16.0
59.9757 25.0
60.0594 26.0
60.1431 25.0
60.2268 15.0
60.3105 19.0
60.3942 22.0
60.4779 29.0
60.5616 22.0
60.6453 24.0
60.729 26.0
60.8127 20.0
60.8964 15.0
60.9801 23.0
61.0638 18.0
61.1476 24.0
61.2313 20.0
61.315 27.0
61.3987 19.0
61.4824 17.0
61.5661 19.0
61.6498 28.0
61.7335 18.0
61.8172 28.0
61.9009 30.0
61.9846 18.0
62.0683 22.0
62.152 25.0
62.2357 23.0
62.3194 24.0
62.4031 36.0
62.4868 23.0
62.5705 24.0
62.6543 21.0
62.738 30.0
62.8217 25.0
62.9054 28.0
62.9891 24.0
63.0728 20.0
63.1565 25.0
63.2402 24.0
63.3239 30.0
63.4076 26.0
63.4913 19.0
63.575 17.0
63.6587 26.0
63.7424 19.0
63.8261 22.0
63.9098 26.0
63.9935 27.0
64.0772 23.0
64.161 30.0
64.2447 29.0
64.3284 27.0
64.4121 29.0
64.4958 18.0
64.5795 25.0
64.6632 35.0
64.7469 21.0
64.8306 17.0
64.9143 23.0
64.998 29.0
65.0817 34.0
65.1654 26.0
65.2491 25.0
65.3328 24.0
65.4165 27.0
65.5002 22.0
65.5839 30.0
65.6677 28.0
65.7514 27.0
65.8351 15.0
65.9188 17.0
66.0025 23.0
66.0862 16.0
66.1699 32.0
66.2536 27.0
66.3373 31.0
66.421 23.0
66.5047 17.0
66.5884 26.0
66.6721 25.0
66.7558 23.0
66.8395 26.0
66.9232 20.0
67.0069 27.0
67.0906 24.0
67.1744 17.0
67.2581 27.0
67.3418 34.0
67.4255 31.0
67.5092 18.0
67.5929 34.0
67.6766 24.0
67.7603 37.0
67.844 40.0
67.9277 33.0
68.0114 21.0
68.0951 25.0
68.1788 17.0
68.2625 36.0
68.3462 25.0
68.4299 30.0
68.5136 33.0
68.5973 28.0
68.6811 25.0
68.7648 30.0
68.8485 27.0
68.9322 19.0
69.0159 22.0
69.0996 22.0
69.1833 18.0
69.267 21.0
69.3507 23.0
69.4344 28.0
69.5181 24.0
69.6018 31.0
69.6855 28.0
69.7692 40.0
69.8529 24.0
69.9366 20.0
70.0203 29.0
70.104 26.0
70.1878 25.0
70.2715 30.0
70.3552 33.0
70.4389 30.0
70.5226 31.0
70.6063 33.0
70.69 26.0
70.7737 25.0
70.8574 30.0
70.9411 18.0
71.0248 29.0
71.1085 26.0
71.1922 29.0
71.2759 28.0
71.3596 26.0
71.4433 30.0
71.527 54.0
71.6107 69.0
71.6945 45.0
71.7782 37.0
71.8619 28.0
71.9456 32.0
72.0293 30.0
72.113 32.0
72.1967 30.0
72.2804 26.0
72.3641 27.0
72.4478 31.0
72.5315 26.0
72.6152 30.0
72.6989 24.0
72.7826 22.0
72.8663 27.0
72.95 27.0
73.0337 24.0
73.1174 26.0
73.2012 24.0
73.2849 30.0
73.3686 20.0
73.4523 25.0
73.536 35.0
73.6197 18.0
73.7034 29.0
73.7871 23.0
73.8708 34.0
73.9545 32.0
74.0382 42.0
74.1219 29.0
74.2056 30.0
74.2893 34.0
74.373 27.0
74.4567 27.0
74.5404 36.0
74.6241 44.0
74.7079 31.0
74.7916 33.0
74.8753 35.0
74.959 47.0
75.0427 51.0
75.1264 37.0
75.2101 30.0
75.2938 51.0
75.3775 47.0
75.4612 65.0
75.5449 94.0
75.6286 140.0
75.7123 227.0
75.796 407.0
75.8797 467.0
75.9634 519.0
76.0471 598.0
76.1308 1167.0
76.2146 3978.0
76.2983 2343.0
76.382 1341.0
76.4657 2160.0
76.5494 786.0
76.6331 268.0
76.7168 138.0
76.8005 108.0
76.8842 72.0
76.9679 46.0
77.0516 56.0
77.1353 57.0
77.219 58.0
77.3027 47.0
77.3864 49.0
77.4701 48.0
77.5538 37.0
77.6375 39.0
77.7213 42.0
77.805 36.0
77.8887 37.0
77.9724 36.0
78.0561 34.0
78.1398 36.0
78.2235 32.0
78.3072 37.0
78.3909 34.0
78.4746 35.0
78.5583 34.0
78.642 30.0
78.7257 30.0
78.8094 36.0
78.8931 52.0
78.9768 23.0
79.0605 35.0
79.1442 42.0
79.228 36.0
79.3117 55.0
79.3954 49.0
79.4791 72.0
79.5628 109.0
79.6465 67.0
79.7302 82.0
79.8139 81.0
79.8976 70.0
79.9813 67.0
80.065 71.0
80.1487 104.0
80.2324 183.0
80.3161 179.0
80.3998 186.0
80.4835 387.0
80.5672 1330.0
80.6509 21172.0
80.7347 2304.0
80.8184 1235.0
80.9021 10390.0
80.9858 1048.0
81.0695 319.0
81.1532 171.0
81.2369 139.0
81.3206 93.0
81.4043 79.0
81.488 49.0
81.5717 64.0
81.6554 53.0
81.7391 59.0
81.8228 58.0
81.9065 61.0
81.9902 53.0
82.0739 47.0
82.1576 49.0
82.2414 44.0
82.3251 33.0
82.4088 31.0
82.4925 40.0
82.5762 36.0
82.6599 27.0
82.7436 40.0
82.8273 33.0
82.911 28.0
82.9947 25.0
83.0784 22.0
83.1621 25.0
83.2458 33.0
83.3295 27.0
83.4132 30.0
83.4969 37.0
83.5806 31.0
83.6643 29.0
83.7481 26.0
83.8318 27.0
83.9155 19.0
83.9992 24.0
84.0829 34.0
84.1666 24.0
84.2503 40.0
84.334 24.0
84.4177 17.0
84.5014 17.0
84.5851 23.0
84.6688 25.0
84.7525 35.0
84.8362 22.0
84.9199 38.0
85.0036 40.0
85.0873 32.0
85.171 35.0
85.2548 33.0
85.3385 21.0
85.4222 37.0
85.5059 28.0
85.5896 32.0
85.6733 29.0
85.757 29.0
85.8407 33.0
85.9244 24.0
86.0081 27.0
86.0918 33.0
86.1755 24.0
86.2592 25.0
86.3429 30.0
86.4266 24.0
86.5103 28.0
86.594 29.0
86.6777 26.0
86.7615 22.0
86.8452 30.0
86.9289 30.0
87.0126 29.0
87.0963 30.0
87.18 30.0
87.2637 22.0
87.3474 29.0
87.4311 18.0
87.5148 29.0
87.5985 17.0
87.6822 30.0
87.7659 31.0
87.8496 31.0
87.9333 28.0
88.017 29.0
88.1007 33.0
88.1844 27.0
88.2682 32.0
88.3519 28.0
88.4356 30.0
88.5193 25.0
88.603 28.0
88.6867 42.0
88.7704 25.0
88.8541 27.0
88.9378 25.0
89.0215 44.0
89.1052 29.0
89.1889 31.0
89.2726 31.0
89.3563 25.0
89.44 35.0
89.5237 32.0
89.6074 34.0
89.6911 26.0
89.7749 31.0
89.8586 21.0
89.9423 31.0
90.026 24.0
90.1097 22.0
90.1934 34.0
90.2771 33.0
90.3608 33.0
90.4445 34.0
90.5282 24.0
90.6119 25.0
90.6956 26.0
90.7793 24.0
90.863 35.0
90.9467 32.0
91.0304 32.0
91.1141 30.0
91.1978 27.0
91.2816 23.0
91.3653 26.0
91.449 35.0
91.5327 28.0
91.6164 20.0
91.7001 26.0
91.7838 26.0
91.8675 26.0
91.9512 33.0
92.0349 33.0
92.1186 25.0
92.2023 19.0
92.286 24.0
92.3697 31.0
92.4534 40.0
92.5371 32.0
92.6208 26.0
92.7045 29.0
92.7883 30.0
92.872 20.0
92.9557 24.0
93.0394 26.0
93.1231 31.0
93.2068 26.0
93.2905 30.0
93.3742 25.0
93.4579 30.0
93.5416 30.0
93.6253 33.0
93.709 32.0
93.7927 28.0
93.8764 34.0
93.9601 20.0
94.0438 25.0
94.1275 28.0
94.2112 20.0
94.295 23.0
94.3787 26.0
94.4624 24.0
94.5461 39.0
94.6298 32.0
94.7135 27.0
94.7972 39.0
94.8809 35.0
94.9646 20.0
95.0483 27.0
95.132 23.0
95.2157 26.0
95.2994 28.0
95.3831 28.0
95.4668 34.0
95.5505 31.0
95.6342 22.0
95.7179 29.0
95.8017 24.0
95.8854 30.0
95.9691 28.0
96.0528 29.0
96.1365 25.0
96.2202 32.0
96.3039 34.0
96.3876 24.0
96.4713 33.0
96.555 27.0
96.6387 28.0
96.7224 23.0
96.8061 24.0
96.8898 38.0
96.9735 20.0
97.0572 27.0
97.1409 33.0
97.2246 36.0
97.3084 32.0
97.3921 27.0
97.4758 27.0
97.5595 26.0
97.6432 34.0
97.7269 28.0
97.8106 26.0
97.8943 26.0
97.978 24.0
98.0617 33.0
98.1454 22.0
98.2291 30.0
98.3128 25.0
98.3965 30.0
98.4802 32.0
98.5639 25.0
98.6476 36.0
98.7313 22.0
98.8151 28.0
98.8988 31.0
98.9825 25.0
99.0662 25.0
99.1499 32.0
99.2336 32.0
99.3173 34.0
99.401 32.0
99.4847 25.0
99.5684 24.0
99.6521 23.0
99.7358 28.0
99.8195 16.0
99.9032 25.0
99.9869 36.0
100.071 26.0
100.154 30.0
100.238 28.0
100.322 24.0
100.405 35.0
100.489 36.0
100.573 22.0
100.657 19.0
100.74 21.0
100.824 40.0
100.908 22.0
100.991 21.0
101.075 21.0
101.159 29.0
101.243 30.0
101.326 27.0
101.41 29.0
101.494 23.0
101.577 21.0
101.661 26.0
101.745 16.0
101.828 21.0
101.912 26.0
101.996 22.0
102.08 27.0
102.163 31.0
102.247 32.0
102.331 25.0
102.414 29.0
102.498 33.0
102.582 27.0
102.666 24.0
102.749 24.0
102.833 28.0
102.917 29.0
103 28.0
103.084 39.0
103.168 24.0
103.251 30.0
103.335 20.0
103.419 41.0
103.503 36.0
103.586 31.0
103.67 27.0
103.754 32.0
103.837 25.0
103.921 28.0
104.005 32.0
104.089 20.0
104.172 36.0
104.256 27.0
104.34 36.0
104.423 30.0
104.507 25.0
104.591 23.0
104.674 24.0
104.758 26.0
104.842 24.0
104.926 28.0
105.009 25.0
105.093 44.0
105.177 30.0
105.26 23.0
105.344 26.0
105.428 24.0
105.511 32.0
105.595 39.0
105.679 26.0
105.763 26.0
105.846 31.0
105.93 31.0
106.014 23.0
106.097 34.0
106.181 20.0
106.265 26.0
106.349 26.0
106.432 29.0
106.516 20.0
106.6 29.0
106.683 23.0
106.767 32.0
106.851 29.0
106.934 27.0
107.018 40.0
107.102 36.0
107.186 26.0
107.269 21.0
107.353 25.0
107.437 27.0
107.52 33.0
107.604 33.0
107.688 35.0
107.772 25.0
107.855 28.0
107.939 26.0
108.023 22.0
108.106 27.0
108.19 21.0
108.274 31.0
108.357 28.0
108.441 29.0
108.525 40.0
108.609 36.0
108.692 32.0
108.776 31.0
108.86 38.0
108.943 29.0
109.027 23.0
109.111 34.0
109.195 28.0
109.278 28.0
109.362 23.0
109.446 32.0
109.529 29.0
109.613 41.0
109.697 16.0
109.78 29.0
109.864 30.0
109.948 22.0
110.032 26.0
110.115 30.0
110.199 30.0
110.283 36.0
110.366 39.0
110.45 24.0
110.534 28.0
110.618 30.0
110.701 25.0
110.785 43.0
110.869 30.0
110.952 19.0
111.036 31.0
111.12 29.0
111.203 30.0
111.287 23.0
111.371 29.0
111.455 29.0
111.538 20.0
111.622 24.0
111.706 36.0
111.789 34.0
111.873 31.0
111.957 38.0
112.041 31.0
112.124 31.0
112.208 30.0
112.292 22.0
112.375 33.0
112.459 26.0
112.543 34.0
112.626 22.0
112.71 42.0
112.794 28.0
112.878 36.0
112.961 30.0
113.045 20.0
113.129 33.0
113.212 33.0
113.296 27.0
113.38 31.0
113.464 26.0
113.547 17.0
113.631 32.0
113.715 39.0
113.798 25.0
113.882 34.0
113.966 34.0
114.049 30.0
114.133 33.0
114.217 31.0
114.301 30.0
114.384 43.0
114.468 22.0
114.552 27.0
114.635 31.0
114.719 39.0
114.803 38.0
114.887 19.0
114.97 31.0
115.054 26.0
115.138 31.0
115.221 25.0
115.305 39.0
115.389 26.0
115.472 26.0
115.556 35.0
115.64 31.0
115.724 29.0
115.807 42.0
115.891 49.0
115.975 34.0
116.058 22.0
116.142 30.0
116.226 30.0
116.31 35.0
116.393 29.0
116.477 32.0
116.561 34.0
116.644 28.0
116.728 23.0
116.812 17.0
116.895 33.0
116.979 44.0
117.063 44.0
117.147 38.0
117.23 36.0
117.314 31.0
117.398 29.0
117.481 39.0
117.565 40.0
117.649 29.0
117.733 27.0
117.816 30.0
117.9 37.0
117.984 20.0
118.067 29.0
118.151 30.0
118.235 30.0
118.318 40.0
118.402 28.0
118.486 37.0
118.57 26.0
118.653 24.0
118.737 32.0
118.821 23.0
118.904 25.0
118.988 36.0
119.072 23.0
119.156 33.0
119.239 19.0
119.323 31.0
119.407 34.0
119.49 30.0
119.574 37.0
119.658 31.0
119.741 33.0
119.825 29.0
119.909 28.0
119.993 23.0
120.076 26.0
120.16 29.0
120.244 17.0
120.327 31.0
120.411 38.0
120.495 33.0
120.578 32.0
120.662 32.0
120.746 22.0
120.83 31.0
120.913 44.0
120.997 25.0
121.081 28.0
121.164 30.0
121.248 39.0
121.332 26.0
121.416 28.0
121.499 19.0
121.583 26.0
121.667 30.0
121.75 35.0
121.834 33.0
121.918 41.0
122.001 36.0
122.085 25.0
122.169 28.0
122.253 47.0
122.336 29.0
122.42 32.0
122.504 37.0
122.587 62.0
122.671 88.0
122.755 82.0
122.839 60.0
122.922 45.0
123.006 35.0
123.09 39.0
123.173 33.0
123.257 33.0
123.341 37.0
123.424 28.0
123.508 37.0
123.592 32.0
123.676 33.0
123.759 36.0
123.843 36.0
123.927 32.0
124.01 32.0
124.094 25.0
124.178 34.0
124.262 39.0
124.345 28.0
124.429 29.0
124.513 33.0
124.596 38.0
124.68 37.0
124.764 31.0
124.847 26.0
124.931 27.0
125.015 46.0
125.099 30.0
125.182 31.0
125.266 22.0
125.35 27.0
125.433 31.0
125.517 31.0
125.601 40.0
125.685 24.0
125.768 31.0
125.852 27.0
125.936 31.0
126.019 31.0
126.103 26.0
126.187 34.0
126.27 29.0
126.354 36.0
126.438 18.0
126.522 31.0
126.605 29.0
126.689 41.0
126.773 30.0
126.856 33.0
126.94 37.0
127.024 36.0
127.108 36.0
127.191 40.0
127.275 30.0
127.359 24.0
127.442 35.0
127.526 36.0
127.61 32.0
127.693 22.0
127.777 32.0
127.861 25.0
127.945 27.0
128.028 45.0
128.112 34.0
128.196 34.0
128.279 24.0
128.363 19.0
128.447 33.0
128.531 38.0
128.614 21.0
128.698 33.0
128.782 34.0
128.865 29.0
128.949 30.0
129.033 29.0
129.116 40.0
129.2 27.0
129.284 30.0
129.368 37.0
129.451 39.0
129.535 39.0
129.619 32.0
129.702 27.0
129.786 40.0
129.87 37.0
129.954 48.0
129.998 30.0