File: data/W6910c/XRD_2ThetaOmega/w6910c_scan_2th-om_c_Cr2O3_35-45deg_PIXscan_4min.xy
35.0021 128.0
35.0119 129.0
35.0218 106.0
35.0316 129.0
35.0415 139.0
35.0513 105.0
35.0611 117.0
35.071 114.0
35.0808 116.0
35.0907 108.0
35.1005 112.0
35.1104 131.0
35.1202 141.0
35.1301 115.0
35.1399 112.0
35.1498 134.0
35.1596 137.0
35.1695 131.0
35.1793 133.0
35.1892 129.0
35.199 98.0
35.2089 125.0
35.2187 117.0
35.2286 119.0
35.2384 113.0
35.2483 129.0
35.2581 137.0
35.268 116.0
35.2778 122.0
35.2876 109.0
35.2975 109.0
35.3073 103.0
35.3172 125.0
35.327 126.0
35.3369 142.0
35.3467 148.0
35.3566 137.0
35.3664 122.0
35.3763 119.0
35.3861 103.0
35.396 149.0
35.4058 132.0
35.4157 141.0
35.4255 142.0
35.4354 111.0
35.4452 136.0
35.4551 121.0
35.4649 127.0
35.4748 140.0
35.4846 136.0
35.4944 132.0
35.5043 143.0
35.5141 133.0
35.524 147.0
35.5338 151.0
35.5437 126.0
35.5535 154.0
35.5634 156.0
35.5732 138.0
35.5831 134.0
35.5929 155.0
35.6028 149.0
35.6126 145.0
35.6225 163.0
35.6323 144.0
35.6422 139.0
35.652 128.0
35.6619 129.0
35.6717 133.0
35.6816 134.0
35.6914 116.0
35.7012 133.0
35.7111 123.0
35.7209 138.0
35.7308 141.0
35.7406 121.0
35.7505 120.0
35.7603 113.0
35.7702 106.0
35.78 143.0
35.7899 111.0
35.7997 118.0
35.8096 121.0
35.8194 104.0
35.8293 123.0
35.8391 134.0
35.849 149.0
35.8588 120.0
35.8687 139.0
35.8785 119.0
35.8884 122.0
35.8982 114.0
35.9081 109.0
35.9179 115.0
35.9277 127.0
35.9376 123.0
35.9474 142.0
35.9573 132.0
35.9671 110.0
35.977 116.0
35.9868 132.0
35.9967 131.0
36.0065 132.0
36.0164 118.0
36.0262 110.0
36.0361 118.0
36.0459 124.0
36.0558 125.0
36.0656 129.0
36.0755 123.0
36.0853 135.0
36.0952 120.0
36.105 109.0
36.1149 129.0
36.1247 137.0
36.1345 146.0
36.1444 136.0
36.1542 149.0
36.1641 102.0
36.1739 121.0
36.1838 136.0
36.1936 110.0
36.2035 104.0
36.2133 116.0
36.2232 144.0
36.233 120.0
36.2429 116.0
36.2527 111.0
36.2626 123.0
36.2724 130.0
36.2823 121.0
36.2921 118.0
36.302 133.0
36.3118 113.0
36.3217 122.0
36.3315 118.0
36.3414 127.0
36.3512 124.0
36.361 120.0
36.3709 116.0
36.3807 120.0
36.3906 134.0
36.4004 128.0
36.4103 117.0
36.4201 104.0
36.43 139.0
36.4398 144.0
36.4497 124.0
36.4595 139.0
36.4694 131.0
36.4792 117.0
36.4891 135.0
36.4989 106.0
36.5088 115.0
36.5186 103.0
36.5285 127.0
36.5383 117.0
36.5482 97.0
36.558 131.0
36.5678 113.0
36.5777 102.0
36.5875 127.0
36.5974 114.0
36.6072 136.0
36.6171 106.0
36.6269 124.0
36.6368 114.0
36.6466 119.0
36.6565 114.0
36.6663 127.0
36.6762 113.0
36.686 113.0
36.6959 135.0
36.7057 118.0
36.7156 140.0
36.7254 110.0
36.7353 112.0
36.7451 127.0
36.755 127.0
36.7648 123.0
36.7747 117.0
36.7845 125.0
36.7943 104.0
36.8042 125.0
36.814 116.0
36.8239 124.0
36.8337 107.0
36.8436 114.0
36.8534 121.0
36.8633 133.0
36.8731 118.0
36.883 128.0
36.8928 129.0
36.9027 143.0
36.9125 122.0
36.9224 150.0
36.9322 131.0
36.9421 134.0
36.9519 129.0
36.9618 127.0
36.9716 127.0
36.9815 119.0
36.9913 129.0
37.0011 139.0
37.011 127.0
37.0208 125.0
37.0307 134.0
37.0405 125.0
37.0504 129.0
37.0602 126.0
37.0701 124.0
37.0799 139.0
37.0898 138.0
37.0996 135.0
37.1095 108.0
37.1193 143.0
37.1292 134.0
37.139 131.0
37.1489 119.0
37.1587 124.0
37.1686 133.0
37.1784 145.0
37.1883 124.0
37.1981 113.0
37.2079 134.0
37.2178 121.0
37.2276 111.0
37.2375 122.0
37.2473 120.0
37.2572 129.0
37.267 122.0
37.2769 130.0
37.2867 153.0
37.2966 112.0
37.3064 138.0
37.3163 112.0
37.3261 132.0
37.336 140.0
37.3458 145.0
37.3557 143.0
37.3655 121.0
37.3754 119.0
37.3852 163.0
37.3951 161.0
37.4049 194.0
37.4148 289.0
37.4246 342.0
37.4344 348.0
37.4443 382.0
37.4541 339.0
37.464 321.0
37.4738 299.0
37.4837 214.0
37.4935 166.0
37.5034 174.0
37.5132 165.0
37.5231 180.0
37.5329 143.0
37.5428 125.0
37.5526 130.0
37.5625 135.0
37.5723 126.0
37.5822 124.0
37.592 143.0
37.6019 141.0
37.6117 134.0
37.6216 137.0
37.6314 149.0
37.6412 130.0
37.6511 130.0
37.6609 120.0
37.6708 122.0
37.6806 126.0
37.6905 135.0
37.7003 135.0
37.7102 117.0
37.72 139.0
37.7299 128.0
37.7397 135.0
37.7496 137.0
37.7594 112.0
37.7693 130.0
37.7791 130.0
37.789 123.0
37.7988 127.0
37.8087 120.0
37.8185 126.0
37.8284 132.0
37.8382 139.0
37.8481 134.0
37.8579 147.0
37.8677 133.0
37.8776 110.0
37.8874 118.0
37.8973 120.0
37.9071 141.0
37.917 129.0
37.9268 128.0
37.9367 121.0
37.9465 124.0
37.9564 130.0
37.9662 118.0
37.9761 155.0
37.9859 136.0
37.9958 127.0
38.0056 139.0
38.0155 129.0
38.0253 142.0
38.0352 128.0
38.045 122.0
38.0549 135.0
38.0647 129.0
38.0745 134.0
38.0844 125.0
38.0942 127.0
38.1041 125.0
38.1139 140.0
38.1238 141.0
38.1336 144.0
38.1435 128.0
38.1533 141.0
38.1632 147.0
38.173 127.0
38.1829 120.0
38.1927 143.0
38.2026 160.0
38.2124 126.0
38.2223 135.0
38.2321 146.0
38.242 137.0
38.2518 143.0
38.2617 116.0
38.2715 147.0
38.2814 120.0
38.2912 128.0
38.301 137.0
38.3109 153.0
38.3207 129.0
38.3306 136.0
38.3404 128.0
38.3503 137.0
38.3601 147.0
38.37 162.0
38.3798 156.0
38.3897 142.0
38.3995 138.0
38.4094 143.0
38.4192 142.0
38.4291 142.0
38.4389 153.0
38.4488 151.0
38.4586 153.0
38.4685 139.0
38.4783 153.0
38.4882 147.0
38.498 160.0
38.5078 152.0
38.5177 167.0
38.5275 154.0
38.5374 163.0
38.5472 149.0
38.5571 132.0
38.5669 135.0
38.5768 156.0
38.5866 149.0
38.5965 164.0
38.6063 178.0
38.6162 175.0
38.626 172.0
38.6359 158.0
38.6457 189.0
38.6556 177.0
38.6654 167.0
38.6753 177.0
38.6851 190.0
38.695 173.0
38.7048 168.0
38.7146 174.0
38.7245 193.0
38.7343 195.0
38.7442 191.0
38.754 183.0
38.7639 160.0
38.7737 196.0
38.7836 171.0
38.7934 180.0
38.8033 189.0
38.8131 195.0
38.823 204.0
38.8328 201.0
38.8427 195.0
38.8525 209.0
38.8624 199.0
38.8722 226.0
38.8821 197.0
38.8919 208.0
38.9018 246.0
38.9116 243.0
38.9215 241.0
38.9313 264.0
38.9411 259.0
38.951 249.0
38.9608 271.0
38.9707 303.0
38.9805 304.0
38.9904 280.0
39.0002 366.0
39.0101 319.0
39.0199 300.0
39.0298 341.0
39.0396 373.0
39.0495 380.0
39.0593 398.0
39.0692 411.0
39.079 430.0
39.0889 444.0
39.0987 527.0
39.1086 568.0
39.1184 534.0
39.1283 613.0
39.1381 614.0
39.1479 655.0
39.1578 757.0
39.1676 714.0
39.1775 839.0
39.1873 867.0
39.1972 920.0
39.207 1006.0
39.2169 1038.0
39.2267 1078.0
39.2366 1168.0
39.2464 1217.0
39.2563 1334.0
39.2661 1417.0
39.276 1550.0
39.2858 1623.0
39.2957 1704.0
39.3055 1930.0
39.3154 2123.0
39.3252 2168.0
39.3351 2343.0
39.3449 2516.0
39.3548 2669.0
39.3646 2943.0
39.3744 2984.0
39.3843 3332.0
39.3941 3552.0
39.404 3978.0
39.4138 4177.0
39.4237 4445.0
39.4335 4874.0
39.4434 5191.0
39.4532 5504.0
39.4631 5915.0
39.4729 6404.0
39.4828 6845.0
39.4926 7375.0
39.5025 7673.0
39.5123 7916.0
39.5222 8303.0
39.532 8596.0
39.5419 8657.0
39.5517 8834.0
39.5616 8493.0
39.5714 8498.0
39.5812 8342.0
39.5911 8143.0
39.6009 7929.0
39.6108 7566.0
39.6206 7266.0
39.6305 6920.0
39.6403 6556.0
39.6502 6090.0
39.66 5593.0
39.6699 5280.0
39.6797 4921.0
39.6896 4467.0
39.6994 4089.0
39.7093 3654.0
39.7191 3429.0
39.729 3126.0
39.7388 2690.0
39.7487 2445.0
39.7585 2143.0
39.7684 1894.0
39.7782 1777.0
39.788 1592.0
39.7979 1405.0
39.8077 1384.0
39.8176 1153.0
39.8274 1108.0
39.8373 1052.0
39.8471 898.0
39.857 820.0
39.8668 820.0
39.8767 747.0
39.8865 638.0
39.8964 641.0
39.9062 618.0
39.9161 517.0
39.9259 539.0
39.9358 502.0
39.9456 477.0
39.9555 462.0
39.9653 384.0
39.9752 404.0
39.985 409.0
39.9949 378.0
40.0047 317.0
40.0145 348.0
40.0244 342.0
40.0342 332.0
40.0441 317.0
40.0539 289.0
40.0638 271.0
40.0736 279.0
40.0835 277.0
40.0933 281.0
40.1032 271.0
40.113 224.0
40.1229 240.0
40.1327 227.0
40.1426 209.0
40.1524 232.0
40.1623 236.0
40.1721 226.0
40.182 210.0
40.1918 192.0
40.2017 185.0
40.2115 194.0
40.2213 205.0
40.2312 179.0
40.241 174.0
40.2509 197.0
40.2607 199.0
40.2706 187.0
40.2804 192.0
40.2903 183.0
40.3001 189.0
40.31 174.0
40.3198 176.0
40.3297 174.0
40.3395 156.0
40.3494 169.0
40.3592 177.0
40.3691 171.0
40.3789 140.0
40.3888 175.0
40.3986 174.0
40.4085 194.0
40.4183 173.0
40.4282 144.0
40.438 173.0
40.4478 171.0
40.4577 172.0
40.4675 152.0
40.4774 162.0
40.4872 176.0
40.4971 158.0
40.5069 159.0
40.5168 156.0
40.5266 173.0
40.5365 162.0
40.5463 171.0
40.5562 168.0
40.566 160.0
40.5759 160.0
40.5857 194.0
40.5956 187.0
40.6054 168.0
40.6153 196.0
40.6251 180.0
40.635 149.0
40.6448 157.0
40.6546 185.0
40.6645 182.0
40.6743 180.0
40.6842 183.0
40.694 163.0
40.7039 170.0
40.7137 198.0
40.7236 185.0
40.7334 182.0
40.7433 158.0
40.7531 188.0
40.763 181.0
40.7728 172.0
40.7827 198.0
40.7925 192.0
40.8024 144.0
40.8122 201.0
40.8221 197.0
40.8319 180.0
40.8418 166.0
40.8516 176.0
40.8615 200.0
40.8713 200.0
40.8811 213.0
40.891 191.0
40.9008 199.0
40.9107 187.0
40.9205 206.0
40.9304 207.0
40.9402 185.0
40.9501 199.0
40.9599 208.0
40.9698 211.0
40.9796 205.0
40.9895 195.0
40.9993 197.0
41.0092 222.0
41.019 175.0
41.0289 211.0
41.0387 226.0
41.0486 206.0
41.0584 220.0
41.0683 206.0
41.0781 224.0
41.0879 220.0
41.0978 189.0
41.1076 222.0
41.1175 213.0
41.1273 212.0
41.1372 255.0
41.147 218.0
41.1569 278.0
41.1667 219.0
41.1766 257.0
41.1864 204.0
41.1963 270.0
41.2061 272.0
41.216 305.0
41.2258 289.0
41.2357 271.0
41.2455 228.0
41.2554 288.0
41.2652 327.0
41.2751 284.0
41.2849 303.0
41.2947 277.0
41.3046 302.0
41.3144 358.0
41.3243 385.0
41.3341 392.0
41.344 373.0
41.3538 373.0
41.3637 413.0
41.3735 462.0
41.3834 541.0
41.3932 574.0
41.4031 722.0
41.4129 783.0
41.4228 918.0
41.4326 919.0
41.4425 968.0
41.4523 960.0
41.4622 941.0
41.472 922.0
41.4819 966.0
41.4917 957.0
41.5016 1043.0
41.5114 1133.0
41.5212 1362.0
41.5311 1589.0
41.5409 2138.0
41.5508 2781.0
41.5606 4101.0
41.5705 6650.0
41.5803 14645.0
41.5902 34434.0
41.6 52124.0
41.6099 59108.0
41.6197 61299.0
41.6296 60447.0
41.6394 51980.0
41.6493 29959.0
41.6591 14165.0
41.669 8075.0
41.6788 7083.0
41.6887 9868.0
41.6985 18683.0
41.7084 27276.0
41.7182 30330.0
41.728 31522.0
41.7379 30033.0
41.7477 25332.0
41.7576 15386.0
41.7674 7386.0
41.7773 3822.0
41.7871 2438.0
41.797 1723.0
41.8068 1358.0
41.8167 1193.0
41.8265 975.0
41.8364 947.0
41.8462 745.0
41.8561 709.0
41.8659 665.0
41.8758 611.0
41.8856 533.0
41.8955 534.0
41.9053 454.0
41.9152 463.0
41.925 476.0
41.9349 413.0
41.9447 410.0
41.9545 380.0
41.9644 363.0
41.9742 375.0
41.9841 365.0
41.9939 369.0
42.0038 333.0
42.0136 347.0
42.0235 335.0
42.0333 286.0
42.0432 281.0
42.053 285.0
42.0629 264.0
42.0727 268.0
42.0826 261.0
42.0924 259.0
42.1023 255.0
42.1121 229.0
42.122 223.0
42.1318 231.0
42.1417 222.0
42.1515 212.0
42.1613 218.0
42.1712 232.0
42.181 193.0
42.1909 211.0
42.2007 206.0
42.2106 189.0
42.2204 170.0
42.2303 160.0
42.2401 201.0
42.25 184.0
42.2598 180.0
42.2697 199.0
42.2795 195.0
42.2894 155.0
42.2992 192.0
42.3091 193.0
42.3189 210.0
42.3288 183.0
42.3386 157.0
42.3485 198.0
42.3583 170.0
42.3682 166.0
42.378 158.0
42.3878 167.0
42.3977 148.0
42.4075 186.0
42.4174 155.0
42.4272 161.0
42.4371 127.0
42.4469 158.0
42.4568 156.0
42.4666 165.0
42.4765 157.0
42.4863 166.0
42.4962 163.0
42.506 138.0
42.5159 160.0
42.5257 150.0
42.5356 126.0
42.5454 146.0
42.5553 143.0
42.5651 153.0
42.575 146.0
42.5848 148.0
42.5946 158.0
42.6045 149.0
42.6143 141.0
42.6242 148.0
42.634 138.0
42.6439 150.0
42.6537 150.0
42.6636 121.0
42.6734 155.0
42.6833 126.0
42.6931 139.0
42.703 153.0
42.7128 139.0
42.7227 127.0
42.7325 148.0
42.7424 143.0
42.7522 145.0
42.7621 134.0
42.7719 131.0
42.7818 116.0
42.7916 112.0
42.8014 144.0
42.8113 140.0
42.8211 142.0
42.831 143.0
42.8408 114.0
42.8507 136.0
42.8605 152.0
42.8704 137.0
42.8802 117.0
42.8901 131.0
42.8999 131.0
42.9098 149.0
42.9196 137.0
42.9295 138.0
42.9393 106.0
42.9492 125.0
42.959 149.0
42.9689 146.0
42.9787 124.0
42.9886 126.0
42.9984 162.0
43.0083 136.0
43.0181 127.0
43.0279 141.0
43.0378 133.0
43.0476 131.0
43.0575 151.0
43.0673 129.0
43.0772 122.0
43.087 142.0
43.0969 137.0
43.1067 126.0
43.1166 130.0
43.1264 138.0
43.1363 113.0
43.1461 173.0
43.156 137.0
43.1658 140.0
43.1757 132.0
43.1855 119.0
43.1954 121.0
43.2052 128.0
43.2151 121.0
43.2249 123.0
43.2347 115.0
43.2446 140.0
43.2544 146.0
43.2643 127.0
43.2741 131.0
43.284 146.0
43.2938 138.0
43.3037 136.0
43.3135 127.0
43.3234 144.0
43.3332 118.0
43.3431 122.0
43.3529 136.0
43.3628 154.0
43.3726 122.0
43.3825 158.0
43.3923 125.0
43.4022 135.0
43.412 135.0
43.4219 132.0
43.4317 139.0
43.4416 139.0
43.4514 135.0
43.4612 137.0
43.4711 149.0
43.4809 142.0
43.4908 139.0
43.5006 133.0
43.5105 128.0
43.5203 151.0
43.5302 130.0
43.54 142.0
43.5499 145.0
43.5597 143.0
43.5696 108.0
43.5794 128.0
43.5893 142.0
43.5991 142.0
43.609 134.0
43.6188 138.0
43.6287 129.0
43.6385 118.0
43.6484 115.0
43.6582 124.0
43.668 120.0
43.6779 130.0
43.6877 140.0
43.6976 150.0
43.7074 132.0
43.7173 126.0
43.7271 148.0
43.737 137.0
43.7468 140.0
43.7567 150.0
43.7665 120.0
43.7764 147.0
43.7862 140.0
43.7961 148.0
43.8059 122.0
43.8158 145.0
43.8256 144.0
43.8355 122.0
43.8453 133.0
43.8552 135.0
43.865 127.0
43.8749 144.0
43.8847 129.0
43.8945 143.0
43.9044 120.0
43.9142 125.0
43.9241 127.0
43.9339 154.0
43.9438 132.0
43.9536 122.0
43.9635 128.0
43.9733 184.0
43.9832 173.0
43.993 160.0
44.0029 151.0
44.0127 140.0
44.0226 143.0
44.0324 171.0
44.0423 136.0
44.0521 139.0
44.062 149.0
44.0718 140.0
44.0817 142.0
44.0915 168.0
44.1013 181.0
44.1112 164.0
44.121 161.0
44.1309 162.0
44.1407 163.0
44.1506 196.0
44.1604 159.0
44.1703 163.0
44.1801 165.0
44.19 174.0
44.1998 194.0
44.2097 189.0
44.2195 166.0
44.2294 177.0
44.2392 174.0
44.2491 197.0
44.2589 224.0
44.2688 208.0
44.2786 216.0
44.2885 215.0
44.2983 226.0
44.3081 223.0
44.318 241.0
44.3278 258.0
44.3377 241.0
44.3475 266.0
44.3574 240.0
44.3672 248.0
44.3771 274.0
44.3869 283.0
44.3968 244.0
44.4066 285.0
44.4165 284.0
44.4263 291.0
44.4362 282.0
44.446 272.0
44.4559 242.0
44.4657 260.0
44.4756 274.0
44.4854 264.0
44.4953 260.0
44.5051 214.0
44.515 233.0
44.5248 249.0
44.5346 210.0
44.5445 236.0
44.5543 207.0
44.5642 237.0
44.574 241.0
44.5839 214.0
44.5937 216.0
44.6036 190.0
44.6134 195.0
44.6233 185.0
44.6331 155.0
44.643 190.0
44.6528 183.0
44.6627 154.0
44.6725 180.0
44.6824 172.0
44.6922 160.0
44.7021 170.0
44.7119 153.0
44.7218 154.0
44.7316 139.0
44.7414 161.0
44.7513 140.0
44.7611 143.0
44.771 135.0
44.7808 154.0
44.7907 148.0
44.8005 158.0
44.8104 112.0
44.8202 133.0
44.8301 141.0
44.8399 124.0
44.8498 147.0
44.8596 156.0
44.8695 136.0
44.8793 131.0
44.8892 134.0
44.899 140.0
44.9089 125.0
44.9187 119.0
44.9286 151.0
44.9384 141.0
44.9483 133.0
44.9581 146.0
44.9679 141.0
44.9778 149.0
44.9876 118.0
44.9975 115.0