File: data/W6857c/XRD_Omega/w6857c_scan_omega_4deg_step_0.005deg0_C5.xy
17.33600 34.0
17.34100 46.0
17.34600 42.0
17.35100 45.0
17.35600 47.0
17.36100 50.0
17.36600 48.0
17.37100 51.0
17.37600 32.0
17.38100 41.0
17.38600 46.0
17.39100 45.0
17.39600 42.0
17.40100 50.0
17.40600 52.0
17.41100 34.0
17.41600 61.0
17.42100 47.0
17.42600 51.0
17.43100 40.0
17.43600 52.0
17.44100 50.0
17.44600 49.0
17.45100 50.0
17.45600 41.0
17.46100 53.0
17.46600 55.0
17.47100 58.0
17.47600 52.0
17.48100 48.0
17.48600 44.0
17.49100 47.0
17.49600 46.0
17.50100 56.0
17.50600 45.0
17.51100 46.0
17.51600 48.0
17.52100 39.0
17.52600 54.0
17.53100 39.0
17.53600 52.0
17.54100 51.0
17.54600 54.0
17.55100 51.0
17.55600 41.0
17.56100 36.0
17.56600 41.0
17.57100 27.0
17.57600 42.0
17.58100 44.0
17.58600 36.0
17.59100 56.0
17.59600 50.0
17.60100 45.0
17.60600 41.0
17.61100 47.0
17.61600 37.0
17.62100 43.0
17.62600 55.0
17.63100 44.0
17.63600 51.0
17.64100 43.0
17.64600 54.0
17.65100 39.0
17.65600 47.0
17.66100 52.0
17.66600 59.0
17.67100 47.0
17.67600 59.0
17.68100 47.0
17.68600 46.0
17.69100 55.0
17.69600 51.0
17.70100 37.0
17.70600 41.0
17.71100 56.0
17.71600 57.0
17.72100 47.0
17.72600 59.0
17.73100 62.0
17.73600 38.0
17.74100 53.0
17.74600 48.0
17.75100 51.0
17.75600 40.0
17.76100 53.0
17.76600 51.0
17.77100 50.0
17.77600 43.0
17.78100 54.0
17.78600 46.0
17.79100 45.0
17.79600 52.0
17.80100 45.0
17.80600 48.0
17.81100 46.0
17.81600 53.0
17.82100 49.0
17.82600 51.0
17.83100 60.0
17.83600 58.0
17.84100 63.0
17.84600 61.0
17.85100 42.0
17.85600 52.0
17.86100 54.0
17.86600 62.0
17.87100 49.0
17.87600 58.0
17.88100 44.0
17.88600 39.0
17.89100 60.0
17.89600 60.0
17.90100 37.0
17.90600 52.0
17.91100 50.0
17.91600 59.0
17.92100 64.0
17.92600 50.0
17.93100 51.0
17.93600 53.0
17.94100 73.0
17.94600 67.0
17.95100 62.0
17.95600 54.0
17.96100 51.0
17.96600 58.0
17.97100 59.0
17.97600 56.0
17.98100 56.0
17.98600 49.0
17.99100 54.0
17.99600 41.0
18.00100 52.0
18.00600 66.0
18.01100 61.0
18.01600 59.0
18.02100 56.0
18.02600 55.0
18.03100 60.0
18.03600 58.0
18.04100 64.0
18.04600 46.0
18.05100 48.0
18.05600 54.0
18.06100 61.0
18.06600 64.0
18.07100 48.0
18.07600 69.0
18.08100 68.0
18.08600 65.0
18.09100 67.0
18.09600 60.0
18.10100 71.0
18.10600 71.0
18.11100 53.0
18.11600 63.0
18.12100 59.0
18.12600 72.0
18.13100 74.0
18.13600 56.0
18.14100 58.0
18.14600 68.0
18.15100 56.0
18.15600 62.0
18.16100 59.0
18.16600 83.0
18.17100 75.0
18.17600 68.0
18.18100 77.0
18.18600 73.0
18.19100 78.0
18.19600 70.0
18.20100 74.0
18.20600 60.0
18.21100 72.0
18.21600 72.0
18.22100 64.0
18.22600 59.0
18.23100 70.0
18.23600 60.0
18.24100 59.0
18.24600 60.0
18.25100 74.0
18.25600 70.0
18.26100 87.0
18.26600 86.0
18.27100 75.0
18.27600 70.0
18.28100 63.0
18.28600 71.0
18.29100 61.0
18.29600 77.0
18.30100 65.0
18.30600 70.0
18.31100 67.0
18.31600 63.0
18.32100 74.0
18.32600 76.0
18.33100 77.0
18.33600 73.0
18.34100 72.0
18.34600 94.0
18.35100 78.0
18.35600 61.0
18.36100 87.0
18.36600 84.0
18.37100 79.0
18.37600 73.0
18.38100 71.0
18.38600 73.0
18.39100 85.0
18.39600 86.0
18.40100 64.0
18.40600 82.0
18.41100 70.0
18.41600 74.0
18.42100 95.0
18.42600 85.0
18.43100 87.0
18.43600 97.0
18.44100 96.0
18.44600 72.0
18.45100 73.0
18.45600 88.0
18.46100 93.0
18.46600 82.0
18.47100 83.0
18.47600 92.0
18.48100 94.0
18.48600 65.0
18.49100 90.0
18.49600 75.0
18.50100 102.0
18.50600 96.0
18.51100 77.0
18.51600 89.0
18.52100 113.0
18.52600 85.0
18.53100 93.0
18.53600 99.0
18.54100 97.0
18.54600 112.0
18.55100 94.0
18.55600 89.0
18.56100 90.0
18.56600 90.0
18.57100 90.0
18.57600 101.0
18.58100 101.0
18.58600 113.0
18.59100 103.0
18.59600 95.0
18.60100 108.0
18.60600 108.0
18.61100 113.0
18.61600 110.0
18.62100 95.0
18.62600 107.0
18.63100 104.0
18.63600 113.0
18.64100 113.0
18.64600 133.0
18.65100 111.0
18.65600 109.0
18.66100 108.0
18.66600 133.0
18.67100 92.0
18.67600 114.0
18.68100 127.0
18.68600 118.0
18.69100 112.0
18.69600 114.0
18.70100 139.0
18.70600 134.0
18.71100 123.0
18.71600 146.0
18.72100 126.0
18.72600 115.0
18.73100 139.0
18.73600 141.0
18.74100 121.0
18.74600 131.0
18.75100 129.0
18.75600 159.0
18.76100 137.0
18.76600 142.0
18.77100 138.0
18.77600 148.0
18.78100 132.0
18.78600 139.0
18.79100 168.0
18.79600 131.0
18.80100 137.0
18.80600 154.0
18.81100 162.0
18.81600 165.0
18.82100 179.0
18.82600 171.0
18.83100 146.0
18.83600 167.0
18.84100 147.0
18.84600 163.0
18.85100 172.0
18.85600 169.0
18.86100 157.0
18.86600 191.0
18.87100 153.0
18.87600 167.0
18.88100 172.0
18.88600 171.0
18.89100 174.0
18.89600 185.0
18.90100 191.0
18.90600 184.0
18.91100 166.0
18.91600 202.0
18.92100 200.0
18.92600 216.0
18.93100 200.0
18.93600 189.0
18.94100 186.0
18.94600 200.0
18.95100 215.0
18.95600 200.0
18.96100 223.0
18.96600 221.0
18.97100 231.0
18.97600 192.0
18.98100 226.0
18.98600 244.0
18.99100 237.0
18.99600 236.0
19.00100 215.0
19.00600 261.0
19.01100 262.0
19.01600 241.0
19.02100 265.0
19.02600 275.0
19.03100 315.0
19.03600 303.0
19.04100 281.0
19.04600 278.0
19.05100 312.0
19.05600 317.0
19.06100 316.0
19.06600 329.0
19.07100 319.0
19.07600 334.0
19.08100 370.0
19.08600 339.0
19.09100 395.0
19.09600 408.0
19.10100 369.0
19.10600 410.0
19.11100 378.0
19.11600 411.0
19.12100 465.0
19.12600 431.0
19.13100 427.0
19.13600 487.0
19.14100 497.0
19.14600 534.0
19.15100 534.0
19.15600 574.0
19.16100 553.0
19.16600 597.0
19.17100 596.0
19.17600 626.0
19.18100 649.0
19.18600 684.0
19.19100 768.0
19.19600 743.0
19.20100 844.0
19.20600 840.0
19.21100 893.0
19.21600 914.0
19.22100 936.0
19.22600 997.0
19.23100 974.0
19.23600 971.0
19.24100 970.0
19.24600 1063.0
19.25100 1015.0
19.25600 1023.0
19.26100 1080.0
19.26600 1101.0
19.27100 1108.0
19.27600 1169.0
19.28100 1081.0
19.28600 1108.0
19.29100 1080.0
19.29600 1189.0
19.30100 1131.0
19.30600 1176.0
19.31100 1094.0
19.31600 1112.0
19.32100 1096.0
19.32600 1143.0
19.33100 1153.0
19.33600 1106.0
19.34100 1157.0
19.34600 1110.0
19.35100 1044.0
19.35600 1077.0
19.36100 1147.0
19.36600 1057.0
19.37100 1029.0
19.37600 1038.0
19.38100 952.0
19.38600 992.0
19.39100 971.0
19.39600 1024.0
19.40100 915.0
19.40600 896.0
19.41100 927.0
19.41600 904.0
19.42100 867.0
19.42600 808.0
19.43100 783.0
19.43600 783.0
19.44100 735.0
19.44600 759.0
19.45100 654.0
19.45600 684.0
19.46100 668.0
19.46600 630.0
19.47100 599.0
19.47600 596.0
19.48100 582.0
19.48600 523.0
19.49100 538.0
19.49600 542.0
19.50100 525.0
19.50600 545.0
19.51100 470.0
19.51600 460.0
19.52100 436.0
19.52600 437.0
19.53100 458.0
19.53600 412.0
19.54100 440.0
19.54600 387.0
19.55100 391.0
19.55600 371.0
19.56100 403.0
19.56600 374.0
19.57100 299.0
19.57600 345.0
19.58100 308.0
19.58600 332.0
19.59100 312.0
19.59600 276.0
19.60100 290.0
19.60600 288.0
19.61100 276.0
19.61600 296.0
19.62100 272.0
19.62600 270.0
19.63100 272.0
19.63600 249.0
19.64100 257.0
19.64600 214.0
19.65100 260.0
19.65600 222.0
19.66100 241.0
19.66600 218.0
19.67100 209.0
19.67600 219.0
19.68100 224.0
19.68600 206.0
19.69100 215.0
19.69600 223.0
19.70100 189.0
19.70600 188.0
19.71100 210.0
19.71600 222.0
19.72100 204.0
19.72600 249.0
19.73100 192.0
19.73600 195.0
19.74100 185.0
19.74600 196.0
19.75100 163.0
19.75600 169.0
19.76100 161.0
19.76600 170.0
19.77100 174.0
19.77600 153.0
19.78100 176.0
19.78600 180.0
19.79100 163.0
19.79600 144.0
19.80100 177.0
19.80600 160.0
19.81100 154.0
19.81600 144.0
19.82100 153.0
19.82600 144.0
19.83100 152.0
19.83600 154.0
19.84100 124.0
19.84600 154.0
19.85100 130.0
19.85600 147.0
19.86100 126.0
19.86600 128.0
19.87100 135.0
19.87600 125.0
19.88100 136.0
19.88600 143.0
19.89100 141.0
19.89600 137.0
19.90100 137.0
19.90600 108.0
19.91100 133.0
19.91600 114.0
19.92100 120.0
19.92600 126.0
19.93100 143.0
19.93600 112.0
19.94100 111.0
19.94600 133.0
19.95100 105.0
19.95600 102.0
19.96100 114.0
19.96600 113.0
19.97100 128.0
19.97600 122.0
19.98100 119.0
19.98600 115.0
19.99100 102.0
19.99600 107.0
20.00100 102.0
20.00600 99.0
20.01100 84.0
20.01600 116.0
20.02100 103.0
20.02600 98.0
20.03100 86.0
20.03600 109.0
20.04100 94.0
20.04600 111.0
20.05100 94.0
20.05600 101.0
20.06100 104.0
20.06600 91.0
20.07100 84.0
20.07600 97.0
20.08100 91.0
20.08600 90.0
20.09100 98.0
20.09600 94.0
20.10100 92.0
20.10600 96.0
20.11100 90.0
20.11600 82.0
20.12100 102.0
20.12600 88.0
20.13100 91.0
20.13600 82.0
20.14100 88.0
20.14600 86.0
20.15100 94.0
20.15600 83.0
20.16100 70.0
20.16600 89.0
20.17100 82.0
20.17600 81.0
20.18100 83.0
20.18600 91.0
20.19100 100.0
20.19600 86.0
20.20100 89.0
20.20600 71.0
20.21100 65.0
20.21600 75.0
20.22100 87.0
20.22600 74.0
20.23100 58.0
20.23600 87.0
20.24100 84.0
20.24600 70.0
20.25100 76.0
20.25600 59.0
20.26100 64.0
20.26600 63.0
20.27100 67.0
20.27600 63.0
20.28100 71.0
20.28600 84.0
20.29100 79.0
20.29600 70.0
20.30100 68.0
20.30600 60.0
20.31100 72.0
20.31600 76.0
20.32100 68.0
20.32600 78.0
20.33100 65.0
20.33600 67.0
20.34100 71.0
20.34600 62.0
20.35100 73.0
20.35600 53.0
20.36100 68.0
20.36600 68.0
20.37100 63.0
20.37600 73.0
20.38100 68.0
20.38600 77.0
20.39100 88.0
20.39600 61.0
20.40100 62.0
20.40600 80.0
20.41100 79.0
20.41600 62.0
20.42100 65.0
20.42600 56.0
20.43100 50.0
20.43600 63.0
20.44100 42.0
20.44600 45.0
20.45100 61.0
20.45600 70.0
20.46100 73.0
20.46600 62.0
20.47100 52.0
20.47600 56.0
20.48100 60.0
20.48600 48.0
20.49100 60.0
20.49600 62.0
20.50100 56.0
20.50600 73.0
20.51100 55.0
20.51600 77.0
20.52100 52.0
20.52600 63.0
20.53100 62.0
20.53600 56.0
20.54100 65.0
20.54600 60.0
20.55100 53.0
20.55600 49.0
20.56100 51.0
20.56600 65.0
20.57100 51.0
20.57600 53.0
20.58100 57.0
20.58600 56.0
20.59100 54.0
20.59600 48.0
20.60100 60.0
20.60600 65.0
20.61100 49.0
20.61600 60.0
20.62100 51.0
20.62600 58.0
20.63100 55.0
20.63600 40.0
20.64100 56.0
20.64600 52.0
20.65100 44.0
20.65600 51.0
20.66100 41.0
20.66600 51.0
20.67100 53.0
20.67600 46.0
20.68100 52.0
20.68600 60.0
20.69100 49.0
20.69600 53.0
20.70100 58.0
20.70600 52.0
20.71100 48.0
20.71600 46.0
20.72100 61.0
20.72600 57.0
20.73100 65.0
20.73600 60.0
20.74100 57.0
20.74600 43.0
20.75100 53.0
20.75600 53.0
20.76100 61.0
20.76600 50.0
20.77100 46.0
20.77600 35.0
20.78100 46.0
20.78600 48.0
20.79100 55.0
20.79600 68.0
20.80100 45.0
20.80600 52.0
20.81100 42.0
20.81600 40.0
20.82100 50.0
20.82600 36.0
20.83100 41.0
20.83600 34.0
20.84100 60.0
20.84600 45.0
20.85100 47.0
20.85600 44.0
20.86100 53.0
20.86600 43.0
20.87100 43.0
20.87600 50.0
20.88100 49.0
20.88600 52.0
20.89100 53.0
20.89600 41.0
20.90100 41.0
20.90600 55.0
20.91100 51.0
20.91600 31.0
20.92100 43.0
20.92600 48.0
20.93100 49.0
20.93600 47.0
20.94100 43.0
20.94600 35.0
20.95100 38.0
20.95600 28.0
20.96100 41.0
20.96600 44.0
20.97100 42.0
20.97600 44.0
20.98100 36.0
20.98600 37.0
20.99100 38.0
20.99600 38.0
21.00100 42.0
21.00600 39.0
21.01100 34.0
21.01600 45.0
21.02100 34.0
21.02600 35.0
21.03100 31.0
21.03600 35.0
21.04100 35.0
21.04600 40.0
21.05100 47.0
21.05600 47.0
21.06100 45.0
21.06600 35.0
21.07100 39.0
21.07600 38.0
21.08100 41.0
21.08600 40.0
21.09100 36.0
21.09600 48.0
21.10100 43.0
21.10600 50.0
21.11100 36.0
21.11600 38.0
21.12100 44.0
21.12600 36.0
21.13100 52.0
21.13600 35.0
21.14100 44.0
21.14600 29.0
21.15100 45.0
21.15600 52.0
21.16100 43.0
21.16600 52.0
21.17100 33.0
21.17600 44.0
21.18100 45.0
21.18600 35.0
21.19100 45.0
21.19600 37.0
21.20100 31.0
21.20600 35.0
21.21100 44.0
21.21600 46.0
21.22100 34.0
21.22600 33.0
21.23100 34.0
21.23600 39.0
21.24100 31.0
21.24600 52.0
21.25100 33.0
21.25600 33.0
21.26100 43.0
21.26600 47.0
21.27100 42.0
21.27600 27.0
21.28100 37.0
21.28600 31.0
21.29100 22.0
21.29600 32.0