File: data/W6816c2/XRD_Omega/W6816c2_Omega-Scan_2deg_0.002_0_7.xy
18.75230 219.0
18.75430 215.0
18.75630 220.0
18.75830 217.0
18.76030 226.0
18.76230 214.0
18.76430 224.0
18.76630 195.0
18.76830 240.0
18.77030 208.0
18.77230 209.0
18.77430 212.0
18.77630 210.0
18.77830 221.0
18.78030 215.0
18.78230 236.0
18.78430 225.0
18.78630 204.0
18.78830 217.0
18.79030 214.0
18.79230 240.0
18.79430 210.0
18.79630 227.0
18.79830 225.0
18.80030 223.0
18.80230 211.0
18.80430 256.0
18.80630 234.0
18.80830 249.0
18.81030 223.0
18.81230 225.0
18.81430 229.0
18.81630 193.0
18.81830 265.0
18.82030 198.0
18.82230 233.0
18.82430 229.0
18.82630 217.0
18.82830 208.0
18.83030 237.0
18.83230 236.0
18.83430 224.0
18.83630 201.0
18.83830 223.0
18.84030 243.0
18.84230 233.0
18.84430 199.0
18.84630 224.0
18.84830 223.0
18.85030 220.0
18.85230 245.0
18.85430 240.0
18.85630 230.0
18.85830 242.0
18.86030 271.0
18.86230 232.0
18.86430 240.0
18.86630 225.0
18.86830 242.0
18.87030 244.0
18.87230 235.0
18.87430 226.0
18.87630 254.0
18.87830 231.0
18.88030 248.0
18.88230 233.0
18.88430 245.0
18.88630 244.0
18.88830 260.0
18.89030 253.0
18.89230 254.0
18.89430 249.0
18.89630 233.0
18.89830 277.0
18.90030 262.0
18.90230 255.0
18.90430 291.0
18.90630 244.0
18.90830 232.0
18.91030 245.0
18.91230 244.0
18.91430 251.0
18.91630 331.0
18.91830 278.0
18.92030 243.0
18.92230 254.0
18.92430 309.0
18.92630 260.0
18.92830 258.0
18.93030 278.0
18.93230 275.0
18.93430 266.0
18.93630 269.0
18.93830 238.0
18.94030 273.0
18.94230 310.0
18.94430 257.0
18.94630 285.0
18.94830 286.0
18.95030 293.0
18.95230 255.0
18.95430 286.0
18.95630 289.0
18.95830 291.0
18.96030 268.0
18.96230 302.0
18.96430 277.0
18.96630 267.0
18.96830 311.0
18.97030 305.0
18.97230 306.0
18.97430 287.0
18.97630 305.0
18.97830 294.0
18.98030 298.0
18.98230 291.0
18.98430 310.0
18.98630 308.0
18.98830 256.0
18.99030 309.0
18.99230 299.0
18.99430 311.0
18.99630 313.0
18.99830 312.0
19.00030 286.0
19.00230 276.0
19.00430 309.0
19.00630 338.0
19.00830 327.0
19.01030 289.0
19.01230 318.0
19.01430 353.0
19.01630 324.0
19.01830 335.0
19.02030 332.0
19.02230 323.0
19.02430 318.0
19.02630 332.0
19.02830 350.0
19.03030 332.0
19.03230 332.0
19.03430 285.0
19.03630 376.0
19.03830 345.0
19.04030 350.0
19.04230 354.0
19.04430 348.0
19.04630 366.0
19.04830 344.0
19.05030 358.0
19.05230 319.0
19.05430 336.0
19.05630 374.0
19.05830 406.0
19.06030 407.0
19.06230 411.0
19.06430 409.0
19.06630 389.0
19.06830 387.0
19.07030 389.0
19.07230 386.0
19.07430 433.0
19.07630 417.0
19.07830 413.0
19.08030 468.0
19.08230 444.0
19.08430 453.0
19.08630 454.0
19.08830 498.0
19.09030 484.0
19.09230 472.0
19.09430 522.0
19.09630 520.0
19.09830 558.0
19.10030 515.0
19.10230 525.0
19.10430 545.0
19.10630 600.0
19.10830 614.0
19.11030 572.0
19.11230 589.0
19.11430 608.0
19.11630 598.0
19.11830 554.0
19.12030 621.0
19.12230 588.0
19.12430 610.0
19.12630 641.0
19.12830 641.0
19.13030 634.0
19.13230 605.0
19.13430 611.0
19.13630 648.0
19.13830 709.0
19.14030 660.0
19.14230 649.0
19.14430 707.0
19.14630 688.0
19.14830 684.0
19.15030 699.0
19.15230 724.0
19.15430 720.0
19.15630 752.0
19.15830 805.0
19.16030 763.0
19.16230 755.0
19.16430 746.0
19.16630 832.0
19.16830 798.0
19.17030 800.0
19.17230 790.0
19.17430 774.0
19.17630 824.0
19.17830 839.0
19.18030 835.0
19.18230 827.0
19.18430 832.0
19.18630 924.0
19.18830 892.0
19.19030 894.0
19.19230 884.0
19.19430 888.0
19.19630 911.0
19.19830 948.0
19.20030 939.0
19.20230 952.0
19.20430 964.0
19.20630 1020.0
19.20830 1029.0
19.21030 1032.0
19.21230 1030.0
19.21430 1023.0
19.21630 1013.0
19.21830 1007.0
19.22030 1093.0
19.22230 1074.0
19.22430 1070.0
19.22630 1099.0
19.22830 1029.0
19.23030 1109.0
19.23230 1156.0
19.23430 1107.0
19.23630 1142.0
19.23830 1123.0
19.24030 1114.0
19.24230 1191.0
19.24430 1128.0
19.24630 1196.0
19.24830 1196.0
19.25030 1174.0
19.25230 1279.0
19.25430 1303.0
19.25630 1229.0
19.25830 1316.0
19.26030 1263.0
19.26230 1331.0
19.26430 1362.0
19.26630 1450.0
19.26830 1454.0
19.27030 1369.0
19.27230 1381.0
19.27430 1462.0
19.27630 1332.0
19.27830 1459.0
19.28030 1470.0
19.28230 1500.0
19.28430 1507.0
19.28630 1557.0
19.28830 1613.0
19.29030 1571.0
19.29230 1663.0
19.29430 1659.0
19.29630 1666.0
19.29830 1675.0
19.30030 1669.0
19.30230 1740.0
19.30430 1663.0
19.30630 1802.0
19.30830 1730.0
19.31030 1811.0
19.31230 1809.0
19.31430 1845.0
19.31630 1826.0
19.31830 1883.0
19.32030 1874.0
19.32230 1944.0
19.32430 1934.0
19.32630 1999.0
19.32830 2013.0
19.33030 1989.0
19.33230 2075.0
19.33430 2087.0
19.33630 2027.0
19.33830 2083.0
19.34030 2063.0
19.34230 2070.0
19.34430 2080.0
19.34630 2063.0
19.34830 2097.0
19.35030 2163.0
19.35230 2073.0
19.35430 2171.0
19.35630 2158.0
19.35830 2198.0
19.36030 2151.0
19.36230 2089.0
19.36430 2105.0
19.36630 2150.0
19.36830 2188.0
19.37030 2153.0
19.37230 2157.0
19.37430 2105.0
19.37630 2071.0
19.37830 2030.0
19.38030 2113.0
19.38230 2032.0
19.38430 2083.0
19.38630 2043.0
19.38830 2047.0
19.39030 1991.0
19.39230 2000.0
19.39430 2029.0
19.39630 2047.0
19.39830 1922.0
19.40030 1930.0
19.40230 1882.0
19.40430 1889.0
19.40630 1864.0
19.40830 1856.0
19.41030 1857.0
19.41230 1838.0
19.41430 1728.0
19.41630 1753.0
19.41830 1709.0
19.42030 1690.0
19.42230 1707.0
19.42430 1757.0
19.42630 1675.0
19.42830 1666.0
19.43030 1620.0
19.43230 1614.0
19.43430 1532.0
19.43630 1558.0
19.43830 1565.0
19.44030 1460.0
19.44230 1482.0
19.44430 1460.0
19.44630 1476.0
19.44830 1373.0
19.45030 1397.0
19.45230 1334.0
19.45430 1335.0
19.45630 1372.0
19.45830 1340.0
19.46030 1301.0
19.46230 1277.0
19.46430 1261.0
19.46630 1216.0
19.46830 1192.0
19.47030 1190.0
19.47230 1266.0
19.47430 1155.0
19.47630 1131.0
19.47830 1117.0
19.48030 1132.0
19.48230 1116.0
19.48430 1076.0
19.48630 1081.0
19.48830 1044.0
19.49030 1099.0
19.49230 1016.0
19.49430 980.0
19.49630 1059.0
19.49830 1014.0
19.50030 1000.0
19.50230 948.0
19.50430 900.0
19.50630 922.0
19.50830 891.0
19.51030 899.0
19.51230 858.0
19.51430 917.0
19.51630 855.0
19.51830 908.0
19.52030 839.0
19.52230 801.0
19.52430 839.0
19.52630 809.0
19.52830 759.0
19.53030 812.0
19.53230 820.0
19.53430 747.0
19.53630 745.0
19.53830 768.0
19.54030 726.0
19.54230 692.0
19.54430 704.0
19.54630 748.0
19.54830 708.0
19.55030 666.0
19.55230 696.0
19.55430 665.0
19.55630 702.0
19.55830 655.0
19.56030 642.0
19.56230 633.0
19.56430 637.0
19.56630 593.0
19.56830 592.0
19.57030 630.0
19.57230 640.0
19.57430 605.0
19.57630 566.0
19.57830 557.0
19.58030 576.0
19.58230 556.0
19.58430 543.0
19.58630 576.0
19.58830 581.0
19.59030 534.0
19.59230 496.0
19.59430 517.0
19.59630 529.0
19.59830 527.0
19.60030 545.0
19.60230 491.0
19.60430 507.0
19.60630 478.0
19.60830 494.0
19.61030 498.0
19.61230 501.0
19.61430 479.0
19.61630 458.0
19.61830 454.0
19.62030 495.0
19.62230 444.0
19.62430 460.0
19.62630 406.0
19.62830 471.0
19.63030 426.0
19.63230 444.0
19.63430 467.0
19.63630 456.0
19.63830 407.0
19.64030 453.0
19.64230 382.0
19.64430 471.0
19.64630 403.0
19.64830 446.0
19.65030 440.0
19.65230 414.0
19.65430 411.0
19.65630 418.0
19.65830 385.0
19.66030 419.0
19.66230 395.0
19.66430 407.0
19.66630 429.0
19.66830 398.0
19.67030 352.0
19.67230 405.0
19.67430 413.0
19.67630 403.0
19.67830 396.0
19.68030 442.0
19.68230 405.0
19.68430 413.0
19.68630 385.0
19.68830 397.0
19.69030 415.0
19.69230 379.0
19.69430 414.0
19.69630 402.0
19.69830 384.0
19.70030 401.0
19.70230 374.0
19.70430 377.0
19.70630 382.0
19.70830 386.0
19.71030 392.0
19.71230 389.0
19.71430 357.0
19.71630 388.0
19.71830 372.0
19.72030 400.0
19.72230 496.0
19.72430 450.0
19.72630 467.0
19.72830 451.0
19.73030 509.0
19.73230 545.0
19.73430 569.0
19.73630 590.0
19.73830 623.0
19.74030 602.0
19.74230 653.0
19.74430 624.0
19.74630 634.0
19.74830 669.0
19.75030 658.0
19.75230 601.0
19.75430 592.0
19.75630 608.0
19.75830 559.0
19.76030 574.0
19.76230 580.0
19.76430 593.0
19.76630 466.0
19.76830 507.0
19.77030 497.0
19.77230 456.0
19.77430 425.0
19.77630 411.0
19.77830 460.0
19.78030 410.0
19.78230 439.0
19.78430 448.0
19.78630 407.0
19.78830 399.0
19.79030 403.0
19.79230 377.0
19.79430 411.0
19.79630 400.0
19.79830 396.0
19.80030 413.0
19.80230 401.0
19.80430 357.0
19.80630 355.0
19.80830 405.0
19.81030 369.0
19.81230 430.0
19.81430 410.0
19.81630 371.0
19.81830 364.0
19.82030 391.0
19.82230 371.0
19.82430 367.0
19.82630 345.0
19.82830 364.0
19.83030 379.0
19.83230 361.0
19.83430 333.0
19.83630 298.0
19.83830 342.0
19.84030 368.0
19.84230 325.0
19.84430 307.0
19.84630 340.0
19.84830 335.0
19.85030 311.0
19.85230 299.0
19.85430 312.0
19.85630 317.0
19.85830 297.0
19.86030 325.0
19.86230 297.0
19.86430 324.0
19.86630 340.0
19.86830 291.0
19.87030 347.0
19.87230 337.0
19.87430 306.0
19.87630 303.0
19.87830 310.0
19.88030 334.0
19.88230 299.0
19.88430 318.0
19.88630 326.0
19.88830 329.0
19.89030 340.0
19.89230 317.0
19.89430 345.0
19.89630 303.0
19.89830 325.0
19.90030 338.0
19.90230 329.0
19.90430 344.0
19.90630 329.0
19.90830 323.0
19.91030 350.0
19.91230 326.0
19.91430 320.0
19.91630 309.0
19.91830 307.0
19.92030 276.0
19.92230 298.0
19.92430 301.0
19.92630 282.0
19.92830 300.0
19.93030 309.0
19.93230 283.0
19.93430 279.0
19.93630 245.0
19.93830 267.0
19.94030 279.0
19.94230 275.0
19.94430 279.0
19.94630 271.0
19.94830 254.0
19.95030 252.0
19.95230 284.0
19.95430 265.0
19.95630 291.0
19.95830 224.0
19.96030 250.0
19.96230 265.0
19.96430 268.0
19.96630 252.0
19.96830 239.0
19.97030 281.0
19.97230 248.0
19.97430 226.0
19.97630 274.0
19.97830 240.0
19.98030 240.0
19.98230 241.0
19.98430 258.0
19.98630 254.0
19.98830 285.0
19.99030 242.0
19.99230 233.0
19.99430 237.0
19.99630 199.0
19.99830 261.0
20.00030 245.0
20.00230 238.0
20.00430 221.0
20.00630 231.0
20.00830 235.0
20.01030 252.0
20.01230 253.0
20.01430 254.0
20.01630 235.0
20.01830 209.0
20.02030 246.0
20.02230 234.0
20.02430 234.0
20.02630 241.0
20.02830 247.0
20.03030 217.0
20.03230 224.0
20.03430 247.0
20.03630 206.0
20.03830 222.0
20.04030 228.0
20.04230 222.0
20.04430 218.0
20.04630 246.0
20.04830 236.0
20.05030 245.0
20.05230 239.0
20.05430 267.0
20.05630 248.0
20.05830 224.0
20.06030 247.0
20.06230 239.0
20.06430 230.0
20.06630 266.0
20.06830 247.0
20.07030 238.0
20.07230 231.0
20.07430 229.0
20.07630 203.0
20.07830 246.0
20.08030 257.0
20.08230 248.0
20.08430 227.0
20.08630 227.0
20.08830 245.0
20.09030 250.0
20.09230 252.0
20.09430 178.0
20.09630 251.0
20.09830 252.0
20.10030 239.0
20.10230 245.0
20.10430 235.0
20.10630 230.0
20.10830 260.0
20.11030 229.0
20.11230 206.0
20.11430 232.0
20.11630 242.0
20.11830 199.0
20.12030 210.0
20.12230 231.0
20.12430 227.0
20.12630 225.0
20.12830 244.0
20.13030 241.0
20.13230 242.0
20.13430 212.0
20.13630 239.0
20.13830 233.0
20.14030 240.0
20.14230 221.0
20.14430 250.0
20.14630 243.0
20.14830 256.0
20.15030 261.0
20.15230 231.0
20.15430 208.0
20.15630 225.0
20.15830 216.0
20.16030 240.0
20.16230 234.0
20.16430 231.0
20.16630 231.0
20.16830 217.0
20.17030 222.0
20.17230 217.0
20.17430 235.0
20.17630 229.0
20.17830 242.0
20.18030 237.0
20.18230 251.0
20.18430 209.0
20.18630 239.0
20.18830 229.0
20.19030 246.0
20.19230 226.0
20.19430 247.0
20.19630 254.0
20.19830 258.0
20.20030 225.0
20.20230 245.0
20.20430 214.0
20.20630 257.0
20.20830 263.0
20.21030 244.0
20.21230 221.0
20.21430 242.0
20.21630 264.0
20.21830 242.0
20.22030 225.0
20.22230 234.0
20.22430 262.0
20.22630 208.0
20.22830 249.0
20.23030 208.0
20.23230 273.0
20.23430 256.0
20.23630 245.0
20.23830 248.0
20.24030 253.0
20.24230 240.0
20.24430 235.0
20.24630 243.0
20.24830 224.0
20.25030 229.0
20.25230 264.0
20.25430 246.0
20.25630 213.0
20.25830 222.0
20.26030 238.0
20.26230 263.0
20.26430 249.0
20.26630 233.0
20.26830 246.0
20.27030 267.0
20.27230 259.0
20.27430 256.0
20.27630 233.0
20.27830 266.0
20.28030 249.0
20.28230 229.0
20.28430 254.0
20.28630 239.0
20.28830 244.0
20.29030 241.0
20.29230 253.0
20.29430 276.0
20.29630 244.0
20.29830 281.0
20.30030 225.0
20.30230 274.0
20.30430 268.0
20.30630 260.0
20.30830 246.0
20.31030 246.0
20.31230 252.0
20.31430 269.0
20.31630 262.0
20.31830 251.0
20.32030 256.0
20.32230 266.0
20.32430 258.0
20.32630 264.0
20.32830 246.0
20.33030 284.0
20.33230 258.0
20.33430 277.0
20.33630 251.0
20.33830 238.0
20.34030 246.0
20.34230 270.0
20.34430 250.0
20.34630 259.0
20.34830 246.0
20.35030 250.0
20.35230 212.0
20.35430 216.0
20.35630 224.0
20.35830 221.0
20.36030 218.0
20.36230 192.0
20.36430 188.0
20.36630 209.0
20.36830 181.0
20.37030 201.0
20.37230 173.0
20.37430 180.0
20.37630 160.0
20.37830 195.0
20.38030 180.0
20.38230 167.0
20.38430 180.0
20.38630 185.0
20.38830 178.0
20.39030 193.0
20.39230 196.0
20.39430 187.0
20.39630 197.0
20.39830 156.0
20.40030 171.0
20.40230 195.0
20.40430 179.0
20.40630 177.0
20.40830 163.0
20.41030 184.0
20.41230 193.0
20.41430 164.0
20.41630 174.0
20.41830 190.0
20.42030 179.0
20.42230 177.0
20.42430 181.0
20.42630 160.0
20.42830 190.0
20.43030 165.0
20.43230 203.0
20.43430 167.0
20.43630 156.0
20.43830 167.0
20.44030 197.0
20.44230 171.0
20.44430 191.0
20.44630 168.0
20.44830 191.0
20.45030 192.0
20.45230 192.0
20.45430 178.0
20.45630 169.0
20.45830 167.0
20.46030 165.0
20.46230 188.0
20.46430 167.0
20.46630 183.0
20.46830 195.0
20.47030 199.0
20.47230 181.0
20.47430 176.0
20.47630 171.0
20.47830 194.0
20.48030 191.0
20.48230 163.0
20.48430 205.0
20.48630 182.0
20.48830 169.0
20.49030 149.0
20.49230 165.0
20.49430 178.0
20.49630 173.0
20.49830 199.0
20.50030 168.0
20.50230 159.0
20.50430 148.0
20.50630 165.0
20.50830 162.0
20.51030 153.0
20.51230 174.0
20.51430 179.0
20.51630 159.0
20.51830 190.0
20.52030 161.0
20.52230 182.0
20.52430 210.0
20.52630 172.0
20.52830 188.0
20.53030 154.0
20.53230 174.0
20.53430 168.0
20.53630 190.0
20.53830 172.0
20.54030 164.0
20.54230 175.0
20.54430 171.0
20.54630 169.0
20.54830 180.0
20.55030 180.0
20.55230 175.0
20.55430 194.0
20.55630 154.0
20.55830 159.0
20.56030 171.0
20.56230 169.0
20.56430 177.0
20.56630 185.0
20.56830 167.0
20.57030 175.0
20.57230 148.0
20.57430 171.0
20.57630 147.0
20.57830 171.0
20.58030 181.0
20.58230 185.0
20.58430 164.0
20.58630 175.0
20.58830 196.0
20.59030 179.0
20.59230 137.0
20.59430 161.0
20.59630 173.0
20.59830 172.0
20.60030 186.0
20.60230 155.0
20.60430 164.0
20.60630 187.0
20.60830 174.0
20.61030 168.0
20.61230 158.0
20.61430 145.0
20.61630 171.0
20.61830 189.0
20.62030 177.0
20.62230 182.0
20.62430 145.0
20.62630 172.0
20.62830 141.0
20.63030 194.0
20.63230 151.0
20.63430 174.0
20.63630 178.0
20.63830 177.0
20.64030 168.0
20.64230 181.0
20.64430 177.0
20.64630 192.0
20.64830 173.0
20.65030 164.0
20.65230 188.0
20.65430 166.0
20.65630 188.0
20.65830 194.0
20.66030 192.0
20.66230 216.0
20.66430 208.0
20.66630 191.0
20.66830 190.0
20.67030 146.0
20.67230 162.0
20.67430 181.0
20.67630 163.0
20.67830 186.0
20.68030 176.0
20.68230 176.0
20.68430 218.0
20.68630 184.0
20.68830 207.0
20.69030 170.0
20.69230 159.0
20.69430 169.0
20.69630 166.0
20.69830 181.0
20.70030 191.0
20.70230 193.0
20.70430 163.0
20.70630 192.0
20.70830 191.0
20.71030 163.0
20.71230 195.0
20.71430 158.0
20.71630 161.0
20.71830 155.0
20.72030 195.0
20.72230 171.0
20.72430 164.0
20.72630 159.0
20.72830 208.0
20.73030 186.0
20.73230 158.0
20.73430 153.0
20.73630 160.0