File: data/W6816c2/XRD_Omega/W6816c2_Cr2O3_scan_omega_2deg_step_0.002deg0_3_new.xy
18.35930 189.0
18.36130 191.0
18.36330 205.0
18.36530 189.0
18.36730 189.0
18.36930 207.0
18.37130 191.0
18.37330 158.0
18.37530 204.0
18.37730 184.0
18.37930 205.0
18.38130 207.0
18.38330 179.0
18.38530 200.0
18.38730 211.0
18.38930 200.0
18.39130 175.0
18.39330 200.0
18.39530 207.0
18.39730 210.0
18.39930 192.0
18.40130 204.0
18.40330 198.0
18.40530 213.0
18.40730 169.0
18.40930 203.0
18.41130 219.0
18.41330 198.0
18.41530 174.0
18.41730 195.0
18.41930 210.0
18.42130 207.0
18.42330 192.0
18.42530 202.0
18.42730 184.0
18.42930 196.0
18.43130 166.0
18.43330 204.0
18.43530 219.0
18.43730 188.0
18.43930 178.0
18.44130 196.0
18.44330 225.0
18.44530 210.0
18.44730 206.0
18.44930 209.0
18.45130 187.0
18.45330 164.0
18.45530 218.0
18.45730 173.0
18.45930 175.0
18.46130 219.0
18.46330 182.0
18.46530 206.0
18.46730 217.0
18.46930 194.0
18.47130 198.0
18.47330 196.0
18.47530 196.0
18.47730 176.0
18.47930 212.0
18.48130 221.0
18.48330 221.0
18.48530 226.0
18.48730 208.0
18.48930 196.0
18.49130 218.0
18.49330 203.0
18.49530 202.0
18.49730 208.0
18.49930 176.0
18.50130 200.0
18.50330 193.0
18.50530 179.0
18.50730 202.0
18.50930 208.0
18.51130 206.0
18.51330 182.0
18.51530 205.0
18.51730 210.0
18.51930 193.0
18.52130 192.0
18.52330 228.0
18.52530 240.0
18.52730 201.0
18.52930 209.0
18.53130 215.0
18.53330 215.0
18.53530 238.0
18.53730 210.0
18.53930 221.0
18.54130 199.0
18.54330 195.0
18.54530 197.0
18.54730 201.0
18.54930 204.0
18.55130 230.0
18.55330 213.0
18.55530 228.0
18.55730 225.0
18.55930 186.0
18.56130 201.0
18.56330 176.0
18.56530 218.0
18.56730 190.0
18.56930 188.0
18.57130 192.0
18.57330 198.0
18.57530 205.0
18.57730 233.0
18.57930 193.0
18.58130 208.0
18.58330 222.0
18.58530 216.0
18.58730 216.0
18.58930 204.0
18.59130 181.0
18.59330 235.0
18.59530 205.0
18.59730 228.0
18.59930 220.0
18.60130 187.0
18.60330 211.0
18.60530 213.0
18.60730 222.0
18.60930 202.0
18.61130 221.0
18.61330 201.0
18.61530 243.0
18.61730 227.0
18.61930 223.0
18.62130 214.0
18.62330 222.0
18.62530 226.0
18.62730 207.0
18.62930 232.0
18.63130 248.0
18.63330 206.0
18.63530 228.0
18.63730 208.0
18.63930 223.0
18.64130 217.0
18.64330 196.0
18.64530 202.0
18.64730 222.0
18.64930 222.0
18.65130 220.0
18.65330 232.0
18.65530 222.0
18.65730 227.0
18.65930 217.0
18.66130 218.0
18.66330 208.0
18.66530 220.0
18.66730 217.0
18.66930 223.0
18.67130 230.0
18.67330 227.0
18.67530 208.0
18.67730 193.0
18.67930 227.0
18.68130 239.0
18.68330 230.0
18.68530 204.0
18.68730 236.0
18.68930 259.0
18.69130 226.0
18.69330 249.0
18.69530 228.0
18.69730 210.0
18.69930 252.0
18.70130 255.0
18.70330 231.0
18.70530 247.0
18.70730 226.0
18.70930 276.0
18.71130 272.0
18.71330 248.0
18.71530 241.0
18.71730 258.0
18.71930 259.0
18.72130 255.0
18.72330 258.0
18.72530 261.0
18.72730 257.0
18.72930 257.0
18.73130 232.0
18.73330 276.0
18.73530 244.0
18.73730 238.0
18.73930 253.0
18.74130 284.0
18.74330 224.0
18.74530 268.0
18.74730 281.0
18.74930 282.0
18.75130 278.0
18.75330 285.0
18.75530 261.0
18.75730 280.0
18.75930 224.0
18.76130 259.0
18.76330 280.0
18.76530 303.0
18.76730 218.0
18.76930 281.0
18.77130 280.0
18.77330 249.0
18.77530 282.0
18.77730 266.0
18.77930 282.0
18.78130 264.0
18.78330 247.0
18.78530 272.0
18.78730 288.0
18.78930 275.0
18.79130 280.0
18.79330 300.0
18.79530 287.0
18.79730 269.0
18.79930 290.0
18.80130 259.0
18.80330 271.0
18.80530 265.0
18.80730 284.0
18.80930 317.0
18.81130 280.0
18.81330 301.0
18.81530 269.0
18.81730 321.0
18.81930 302.0
18.82130 285.0
18.82330 304.0
18.82530 312.0
18.82730 286.0
18.82930 323.0
18.83130 284.0
18.83330 306.0
18.83530 295.0
18.83730 345.0
18.83930 311.0
18.84130 304.0
18.84330 294.0
18.84530 278.0
18.84730 329.0
18.84930 333.0
18.85130 356.0
18.85330 314.0
18.85530 337.0
18.85730 289.0
18.85930 295.0
18.86130 344.0
18.86330 317.0
18.86530 324.0
18.86730 302.0
18.86930 338.0
18.87130 318.0
18.87330 338.0
18.87530 290.0
18.87730 300.0
18.87930 317.0
18.88130 314.0
18.88330 335.0
18.88530 332.0
18.88730 339.0
18.88930 327.0
18.89130 353.0
18.89330 334.0
18.89530 323.0
18.89730 341.0
18.89930 352.0
18.90130 326.0
18.90330 361.0
18.90530 344.0
18.90730 298.0
18.90930 329.0
18.91130 344.0
18.91330 300.0
18.91530 341.0
18.91730 370.0
18.91930 347.0
18.92130 354.0
18.92330 352.0
18.92530 344.0
18.92730 332.0
18.92930 357.0
18.93130 363.0
18.93330 348.0
18.93530 387.0
18.93730 392.0
18.93930 371.0
18.94130 352.0
18.94330 347.0
18.94530 378.0
18.94730 367.0
18.94930 385.0
18.95130 361.0
18.95330 384.0
18.95530 377.0
18.95730 358.0
18.95930 387.0
18.96130 356.0
18.96330 361.0
18.96530 409.0
18.96730 377.0
18.96930 354.0
18.97130 386.0
18.97330 423.0
18.97530 399.0
18.97730 407.0
18.97930 385.0
18.98130 405.0
18.98330 401.0
18.98530 375.0
18.98730 389.0
18.98930 374.0
18.99130 387.0
18.99330 402.0
18.99530 384.0
18.99730 408.0
18.99930 456.0
19.00130 421.0
19.00330 411.0
19.00530 442.0
19.00730 458.0
19.00930 456.0
19.01130 450.0
19.01330 430.0
19.01530 445.0
19.01730 468.0
19.01930 450.0
19.02130 448.0
19.02330 442.0
19.02530 436.0
19.02730 455.0
19.02930 443.0
19.03130 495.0
19.03330 467.0
19.03530 447.0
19.03730 444.0
19.03930 485.0
19.04130 472.0
19.04330 475.0
19.04530 443.0
19.04730 485.0
19.04930 476.0
19.05130 474.0
19.05330 528.0
19.05530 478.0
19.05730 476.0
19.05930 488.0
19.06130 507.0
19.06330 447.0
19.06530 528.0
19.06730 524.0
19.06930 580.0
19.07130 493.0
19.07330 519.0
19.07530 550.0
19.07730 535.0
19.07930 550.0
19.08130 519.0
19.08330 566.0
19.08530 514.0
19.08730 548.0
19.08930 517.0
19.09130 576.0
19.09330 568.0
19.09530 570.0
19.09730 580.0
19.09930 610.0
19.10130 624.0
19.10330 614.0
19.10530 629.0
19.10730 601.0
19.10930 622.0
19.11130 611.0
19.11330 587.0
19.11530 652.0
19.11730 627.0
19.11930 696.0
19.12130 639.0
19.12330 669.0
19.12530 690.0
19.12730 692.0
19.12930 676.0
19.13130 622.0
19.13330 689.0
19.13530 684.0
19.13730 716.0
19.13930 695.0
19.14130 700.0
19.14330 668.0
19.14530 666.0
19.14730 733.0
19.14930 762.0
19.15130 728.0
19.15330 733.0
19.15530 764.0
19.15730 723.0
19.15930 725.0
19.16130 734.0
19.16330 761.0
19.16530 795.0
19.16730 780.0
19.16930 804.0
19.17130 830.0
19.17330 775.0
19.17530 778.0
19.17730 802.0
19.17930 832.0
19.18130 868.0
19.18330 868.0
19.18530 837.0
19.18730 871.0
19.18930 832.0
19.19130 870.0
19.19330 891.0
19.19530 888.0
19.19730 926.0
19.19930 955.0
19.20130 921.0
19.20330 943.0
19.20530 895.0
19.20730 903.0
19.20930 983.0
19.21130 1010.0
19.21330 1001.0
19.21530 1011.0
19.21730 1086.0
19.21930 1064.0
19.22130 1051.0
19.22330 1079.0
19.22530 1037.0
19.22730 1178.0
19.22930 1107.0
19.23130 1059.0
19.23330 1060.0
19.23530 1136.0
19.23730 1200.0
19.23930 1204.0
19.24130 1107.0
19.24330 1171.0
19.24530 1163.0
19.24730 1199.0
19.24930 1232.0
19.25130 1223.0
19.25330 1242.0
19.25530 1194.0
19.25730 1295.0
19.25930 1281.0
19.26130 1341.0
19.26330 1268.0
19.26530 1373.0
19.26730 1333.0
19.26930 1398.0
19.27130 1413.0
19.27330 1368.0
19.27530 1406.0
19.27730 1452.0
19.27930 1410.0
19.28130 1502.0
19.28330 1461.0
19.28530 1543.0
19.28730 1514.0
19.28930 1559.0
19.29130 1595.0
19.29330 1638.0
19.29530 1653.0
19.29730 1654.0
19.29930 1673.0
19.30130 1635.0
19.30330 1618.0
19.30530 1683.0
19.30730 1789.0
19.30930 1710.0
19.31130 1865.0
19.31330 1805.0
19.31530 1821.0
19.31730 1824.0
19.31930 1881.0
19.32130 1891.0
19.32330 1908.0
19.32530 1894.0
19.32730 1843.0
19.32930 1997.0
19.33130 1955.0
19.33330 2049.0
19.33530 1982.0
19.33730 2033.0
19.33930 2078.0
19.34130 2038.0
19.34330 2118.0
19.34530 2067.0
19.34730 2103.0
19.34930 2198.0
19.35130 2062.0
19.35330 2080.0
19.35530 2173.0
19.35730 2147.0
19.35930 2149.0
19.36130 2132.0
19.36330 2101.0
19.36530 2213.0
19.36730 2158.0
19.36930 2072.0
19.37130 2082.0
19.37330 2124.0
19.37530 2148.0
19.37730 2139.0
19.37930 2125.0
19.38130 2061.0
19.38330 2031.0
19.38530 2053.0
19.38730 1979.0
19.38930 2018.0
19.39130 1890.0
19.39330 1937.0
19.39530 1935.0
19.39730 1968.0
19.39930 1921.0
19.40130 1926.0
19.40330 1893.0
19.40530 1861.0
19.40730 1888.0
19.40930 1814.0
19.41130 1826.0
19.41330 1831.0
19.41530 1836.0
19.41730 1786.0
19.41930 1748.0
19.42130 1724.0
19.42330 1698.0
19.42530 1695.0
19.42730 1561.0
19.42930 1634.0
19.43130 1582.0
19.43330 1591.0
19.43530 1515.0
19.43730 1535.0
19.43930 1470.0
19.44130 1529.0
19.44330 1452.0
19.44530 1420.0
19.44730 1407.0
19.44930 1363.0
19.45130 1348.0
19.45330 1323.0
19.45530 1339.0
19.45730 1309.0
19.45930 1251.0
19.46130 1298.0
19.46330 1188.0
19.46530 1209.0
19.46730 1189.0
19.46930 1168.0
19.47130 1149.0
19.47330 1149.0
19.47530 1169.0
19.47730 1167.0
19.47930 1114.0
19.48130 1143.0
19.48330 1119.0
19.48530 1110.0
19.48730 1045.0
19.48930 1081.0
19.49130 981.0
19.49330 948.0
19.49530 1010.0
19.49730 974.0
19.49930 961.0
19.50130 960.0
19.50330 891.0
19.50530 932.0
19.50730 877.0
19.50930 890.0
19.51130 925.0
19.51330 841.0
19.51530 855.0
19.51730 910.0
19.51930 824.0
19.52130 821.0
19.52330 787.0
19.52530 827.0
19.52730 742.0
19.52930 773.0
19.53130 767.0
19.53330 695.0
19.53530 741.0
19.53730 740.0
19.53930 694.0
19.54130 708.0
19.54330 695.0
19.54530 673.0
19.54730 671.0
19.54930 708.0
19.55130 722.0
19.55330 654.0
19.55530 663.0
19.55730 671.0
19.55930 646.0
19.56130 627.0
19.56330 648.0
19.56530 614.0
19.56730 553.0
19.56930 596.0
19.57130 567.0
19.57330 566.0
19.57530 604.0
19.57730 564.0
19.57930 549.0
19.58130 539.0
19.58330 612.0
19.58530 565.0
19.58730 532.0
19.58930 516.0
19.59130 544.0
19.59330 516.0
19.59530 529.0
19.59730 511.0
19.59930 490.0
19.60130 479.0
19.60330 470.0
19.60530 533.0
19.60730 523.0
19.60930 499.0
19.61130 519.0
19.61330 511.0
19.61530 429.0
19.61730 476.0
19.61930 449.0
19.62130 463.0
19.62330 490.0
19.62530 446.0
19.62730 451.0
19.62930 455.0
19.63130 485.0
19.63330 441.0
19.63530 477.0
19.63730 421.0
19.63930 425.0
19.64130 440.0
19.64330 439.0
19.64530 413.0
19.64730 416.0
19.64930 425.0
19.65130 442.0
19.65330 410.0
19.65530 486.0
19.65730 425.0
19.65930 373.0
19.66130 402.0
19.66330 360.0
19.66530 392.0
19.66730 362.0
19.66930 402.0
19.67130 373.0
19.67330 396.0
19.67530 351.0
19.67730 359.0
19.67930 379.0
19.68130 400.0
19.68330 370.0
19.68530 359.0
19.68730 348.0
19.68930 411.0
19.69130 366.0
19.69330 385.0
19.69530 367.0
19.69730 378.0
19.69930 385.0
19.70130 355.0
19.70330 342.0
19.70530 379.0
19.70730 345.0
19.70930 343.0
19.71130 397.0
19.71330 390.0
19.71530 399.0
19.71730 380.0
19.71930 395.0
19.72130 413.0
19.72330 413.0
19.72530 448.0
19.72730 479.0
19.72930 460.0
19.73130 545.0
19.73330 513.0
19.73530 548.0
19.73730 531.0
19.73930 577.0
19.74130 642.0
19.74330 600.0
19.74530 614.0
19.74730 612.0
19.74930 668.0
19.75130 624.0
19.75330 609.0
19.75530 605.0
19.75730 574.0
19.75930 561.0
19.76130 534.0
19.76330 518.0
19.76530 490.0
19.76730 506.0
19.76930 511.0
19.77130 488.0
19.77330 446.0
19.77530 484.0
19.77730 400.0
19.77930 399.0
19.78130 392.0
19.78330 403.0
19.78530 391.0
19.78730 375.0
19.78930 349.0
19.79130 417.0
19.79330 369.0
19.79530 349.0
19.79730 387.0
19.79930 376.0
19.80130 380.0
19.80330 374.0
19.80530 407.0
19.80730 387.0
19.80930 354.0
19.81130 347.0
19.81330 399.0
19.81530 410.0
19.81730 422.0
19.81930 425.0
19.82130 381.0
19.82330 363.0
19.82530 385.0
19.82730 372.0
19.82930 360.0
19.83130 328.0
19.83330 375.0
19.83530 340.0
19.83730 329.0
19.83930 351.0
19.84130 313.0
19.84330 351.0
19.84530 331.0
19.84730 297.0
19.84930 289.0
19.85130 312.0
19.85330 268.0
19.85530 349.0
19.85730 293.0
19.85930 313.0
19.86130 320.0
19.86330 305.0
19.86530 344.0
19.86730 308.0
19.86930 307.0
19.87130 309.0
19.87330 298.0
19.87530 328.0
19.87730 311.0
19.87930 313.0
19.88130 324.0
19.88330 321.0
19.88530 323.0
19.88730 316.0
19.88930 311.0
19.89130 328.0
19.89330 337.0
19.89530 345.0
19.89730 334.0
19.89930 325.0
19.90130 349.0
19.90330 325.0
19.90530 295.0
19.90730 310.0
19.90930 315.0
19.91130 320.0
19.91330 302.0
19.91530 294.0
19.91730 300.0
19.91930 263.0
19.92130 291.0
19.92330 282.0
19.92530 263.0
19.92730 286.0
19.92930 279.0
19.93130 299.0
19.93330 272.0
19.93530 254.0
19.93730 284.0
19.93930 275.0
19.94130 249.0
19.94330 220.0
19.94530 243.0
19.94730 248.0
19.94930 267.0
19.95130 267.0
19.95330 248.0
19.95530 251.0
19.95730 229.0
19.95930 233.0
19.96130 217.0
19.96330 215.0
19.96530 220.0
19.96730 201.0
19.96930 194.0
19.97130 221.0
19.97330 233.0
19.97530 201.0
19.97730 211.0
19.97930 231.0
19.98130 192.0
19.98330 221.0
19.98530 207.0
19.98730 206.0
19.98930 224.0
19.99130 241.0
19.99330 208.0
19.99530 199.0
19.99730 188.0
19.99930 204.0
20.00130 217.0
20.00330 202.0
20.00530 204.0
20.00730 211.0
20.00930 196.0
20.01130 185.0
20.01330 214.0
20.01530 206.0
20.01730 218.0
20.01930 219.0
20.02130 198.0
20.02330 231.0
20.02530 209.0
20.02730 216.0
20.02930 183.0
20.03130 182.0
20.03330 194.0
20.03530 229.0
20.03730 209.0
20.03930 221.0
20.04130 186.0
20.04330 213.0
20.04530 198.0
20.04730 204.0
20.04930 170.0
20.05130 185.0
20.05330 187.0
20.05530 177.0
20.05730 206.0
20.05930 189.0
20.06130 186.0
20.06330 228.0
20.06530 200.0
20.06730 219.0
20.06930 203.0
20.07130 211.0
20.07330 189.0
20.07530 182.0
20.07730 189.0
20.07930 178.0
20.08130 165.0
20.08330 200.0
20.08530 180.0
20.08730 201.0
20.08930 180.0
20.09130 188.0
20.09330 209.0
20.09530 164.0
20.09730 181.0
20.09930 198.0
20.10130 182.0
20.10330 195.0
20.10530 164.0
20.10730 167.0
20.10930 209.0
20.11130 194.0
20.11330 212.0
20.11530 198.0
20.11730 187.0
20.11930 194.0
20.12130 187.0
20.12330 187.0
20.12530 207.0
20.12730 191.0
20.12930 168.0
20.13130 204.0
20.13330 176.0
20.13530 180.0
20.13730 183.0
20.13930 198.0
20.14130 189.0
20.14330 183.0
20.14530 163.0
20.14730 179.0
20.14930 184.0
20.15130 179.0
20.15330 198.0
20.15530 209.0
20.15730 172.0
20.15930 186.0
20.16130 207.0
20.16330 216.0
20.16530 191.0
20.16730 197.0
20.16930 166.0
20.17130 176.0
20.17330 175.0
20.17530 180.0
20.17730 179.0
20.17930 198.0
20.18130 193.0
20.18330 189.0
20.18530 181.0
20.18730 203.0
20.18930 193.0
20.19130 158.0
20.19330 181.0
20.19530 174.0
20.19730 154.0
20.19930 181.0
20.20130 174.0
20.20330 190.0
20.20530 167.0
20.20730 178.0
20.20930 192.0
20.21130 183.0
20.21330 168.0
20.21530 188.0
20.21730 180.0
20.21930 188.0
20.22130 146.0
20.22330 194.0
20.22530 190.0
20.22730 157.0
20.22930 196.0
20.23130 177.0
20.23330 193.0
20.23530 179.0
20.23730 204.0
20.23930 168.0
20.24130 176.0
20.24330 178.0
20.24530 187.0
20.24730 164.0
20.24930 161.0
20.25130 193.0
20.25330 168.0
20.25530 176.0
20.25730 191.0
20.25930 187.0
20.26130 191.0
20.26330 168.0
20.26530 159.0
20.26730 188.0
20.26930 200.0
20.27130 189.0
20.27330 171.0
20.27530 194.0
20.27730 179.0
20.27930 159.0
20.28130 187.0
20.28330 195.0
20.28530 181.0
20.28730 166.0
20.28930 171.0
20.29130 179.0
20.29330 158.0
20.29530 198.0
20.29730 183.0
20.29930 191.0
20.30130 174.0
20.30330 171.0
20.30530 183.0
20.30730 182.0
20.30930 155.0
20.31130 170.0
20.31330 182.0
20.31530 192.0
20.31730 194.0
20.31930 168.0
20.32130 165.0
20.32330 166.0
20.32530 182.0
20.32730 177.0
20.32930 179.0
20.33130 162.0
20.33330 168.0
20.33530 207.0
20.33730 183.0
20.33930 187.0
20.34130 174.0
20.34330 178.0