File: data/W6902a/XRD_Omega/scan_omega_4deg_step_0.005deg0_C3_1.xy
15.92640 290.0
15.93140 288.0
15.93640 296.0
15.94140 288.0
15.94640 279.0
15.95140 297.0
15.95640 281.0
15.96140 277.0
15.96640 302.0
15.97140 299.0
15.97640 317.0
15.98140 304.0
15.98640 357.0
15.99140 331.0
15.99640 292.0
16.00140 302.0
16.00640 304.0
16.01140 308.0
16.01640 343.0
16.02140 328.0
16.02640 318.0
16.03140 335.0
16.03640 288.0
16.04140 318.0
16.04640 338.0
16.05140 314.0
16.05640 346.0
16.06140 382.0
16.06640 333.0
16.07140 350.0
16.07640 311.0
16.08140 327.0
16.08640 334.0
16.09140 314.0
16.09640 319.0
16.10140 367.0
16.10640 330.0
16.11140 359.0
16.11640 369.0
16.12140 374.0
16.12640 353.0
16.13140 336.0
16.13640 339.0
16.14140 306.0
16.14640 344.0
16.15140 390.0
16.15640 355.0
16.16140 359.0
16.16640 390.0
16.17140 358.0
16.17640 370.0
16.18140 380.0
16.18640 390.0
16.19140 383.0
16.19640 387.0
16.20140 341.0
16.20640 375.0
16.21140 393.0
16.21640 365.0
16.22140 351.0
16.22640 386.0
16.23140 388.0
16.23640 377.0
16.24140 397.0
16.24640 417.0
16.25140 403.0
16.25640 402.0
16.26140 390.0
16.26640 423.0
16.27140 409.0
16.27640 410.0
16.28140 386.0
16.28640 409.0
16.29140 426.0
16.29640 412.0
16.30140 458.0
16.30640 413.0
16.31140 446.0
16.31640 401.0
16.32140 431.0
16.32640 473.0
16.33140 429.0
16.33640 493.0
16.34140 400.0
16.34640 434.0
16.35140 481.0
16.35640 452.0
16.36140 426.0
16.36640 443.0
16.37140 493.0
16.37640 463.0
16.38140 460.0
16.38640 451.0
16.39140 533.0
16.39640 453.0
16.40140 502.0
16.40640 463.0
16.41140 474.0
16.41640 424.0
16.42140 480.0
16.42640 502.0
16.43140 484.0
16.43640 502.0
16.44140 517.0
16.44640 470.0
16.45140 495.0
16.45640 534.0
16.46140 478.0
16.46640 542.0
16.47140 500.0
16.47640 512.0
16.48140 511.0
16.48640 545.0
16.49140 548.0
16.49640 527.0
16.50140 544.0
16.50640 563.0
16.51140 550.0
16.51640 562.0
16.52140 543.0
16.52640 558.0
16.53140 589.0
16.53640 536.0
16.54140 528.0
16.54640 563.0
16.55140 540.0
16.55640 545.0
16.56140 559.0
16.56640 574.0
16.57140 562.0
16.57640 581.0
16.58140 571.0
16.58640 581.0
16.59140 539.0
16.59640 588.0
16.60140 628.0
16.60640 672.0
16.61140 608.0
16.61640 605.0
16.62140 559.0
16.62640 653.0
16.63140 575.0
16.63640 616.0
16.64140 625.0
16.64640 619.0
16.65140 646.0
16.65640 585.0
16.66140 622.0
16.66640 635.0
16.67140 580.0
16.67640 661.0
16.68140 613.0
16.68640 600.0
16.69140 622.0
16.69640 622.0
16.70140 690.0
16.70640 632.0
16.71140 688.0
16.71640 664.0
16.72140 689.0
16.72640 645.0
16.73140 659.0
16.73640 602.0
16.74140 668.0
16.74640 641.0
16.75140 648.0
16.75640 701.0
16.76140 739.0
16.76640 735.0
16.77140 681.0
16.77640 732.0
16.78140 677.0
16.78640 716.0
16.79140 695.0
16.79640 730.0
16.80140 742.0
16.80640 775.0
16.81140 763.0
16.81640 776.0
16.82140 811.0
16.82640 727.0
16.83140 773.0
16.83640 777.0
16.84140 744.0
16.84640 795.0
16.85140 768.0
16.85640 734.0
16.86140 799.0
16.86640 789.0
16.87140 868.0
16.87640 783.0
16.88140 800.0
16.88640 834.0
16.89140 828.0
16.89640 843.0
16.90140 866.0
16.90640 802.0
16.91140 786.0
16.91640 882.0
16.92140 832.0
16.92640 844.0
16.93140 836.0
16.93640 891.0
16.94140 827.0
16.94640 879.0
16.95140 900.0
16.95640 920.0
16.96140 896.0
16.96640 853.0
16.97140 909.0
16.97640 932.0
16.98140 937.0
16.98640 937.0
16.99140 937.0
16.99640 966.0
17.00140 960.0
17.00640 989.0
17.01140 982.0
17.01640 916.0
17.02140 974.0
17.02640 996.0
17.03140 991.0
17.03640 945.0
17.04140 977.0
17.04640 980.0
17.05140 976.0
17.05640 1001.0
17.06140 981.0
17.06640 981.0
17.07140 1036.0
17.07640 1030.0
17.08140 1127.0
17.08640 1061.0
17.09140 1072.0
17.09640 1054.0
17.10140 1047.0
17.10640 1084.0
17.11140 1075.0
17.11640 1138.0
17.12140 1103.0
17.12640 1135.0
17.13140 1027.0
17.13640 1136.0
17.14140 1075.0
17.14640 1132.0
17.15140 1123.0
17.15640 1123.0
17.16140 1113.0
17.16640 1143.0
17.17140 1139.0
17.17640 1168.0
17.18140 1161.0
17.18640 1159.0
17.19140 1204.0
17.19640 1216.0
17.20140 1193.0
17.20640 1217.0
17.21140 1175.0
17.21640 1172.0
17.22140 1264.0
17.22640 1206.0
17.23140 1229.0
17.23640 1290.0
17.24140 1236.0
17.24640 1268.0
17.25140 1316.0
17.25640 1308.0
17.26140 1261.0
17.26640 1241.0
17.27140 1353.0
17.27640 1354.0
17.28140 1378.0
17.28640 1348.0
17.29140 1402.0
17.29640 1408.0
17.30140 1375.0
17.30640 1364.0
17.31140 1384.0
17.31640 1391.0
17.32140 1486.0
17.32640 1445.0
17.33140 1415.0
17.33640 1399.0
17.34140 1498.0
17.34640 1508.0
17.35140 1444.0
17.35640 1474.0
17.36140 1483.0
17.36640 1477.0
17.37140 1535.0
17.37640 1500.0
17.38140 1511.0
17.38640 1625.0
17.39140 1513.0
17.39640 1523.0
17.40140 1650.0
17.40640 1566.0
17.41140 1658.0
17.41640 1597.0
17.42140 1666.0
17.42640 1549.0
17.43140 1634.0
17.43640 1623.0
17.44140 1676.0
17.44640 1667.0
17.45140 1638.0
17.45640 1670.0
17.46140 1759.0
17.46640 1697.0
17.47140 1751.0
17.47640 1686.0
17.48140 1663.0
17.48640 1638.0
17.49140 1785.0
17.49640 1728.0
17.50140 1782.0
17.50640 1755.0
17.51140 1823.0
17.51640 1823.0
17.52140 1794.0
17.52640 1874.0
17.53140 1845.0
17.53640 1839.0
17.54140 1789.0
17.54640 1861.0
17.55140 1982.0
17.55640 1901.0
17.56140 1913.0
17.56640 1945.0
17.57140 1925.0
17.57640 1962.0
17.58140 2073.0
17.58640 1996.0
17.59140 1905.0
17.59640 1902.0
17.60140 1928.0
17.60640 1907.0
17.61140 2073.0
17.61640 2115.0
17.62140 2015.0
17.62640 2045.0
17.63140 2094.0
17.63640 2028.0
17.64140 2046.0
17.64640 2085.0
17.65140 2104.0
17.65640 2075.0
17.66140 2046.0
17.66640 2143.0
17.67140 2152.0
17.67640 2154.0
17.68140 2191.0
17.68640 2205.0
17.69140 2195.0
17.69640 2278.0
17.70140 2323.0
17.70640 2234.0
17.71140 2266.0
17.71640 2220.0
17.72140 2394.0
17.72640 2283.0
17.73140 2482.0
17.73640 2400.0
17.74140 2352.0
17.74640 2310.0
17.75140 2504.0
17.75640 2349.0
17.76140 2454.0
17.76640 2504.0
17.77140 2622.0
17.77640 2617.0
17.78140 2635.0
17.78640 2779.0
17.79140 2787.0
17.79640 2820.0
17.80140 2837.0
17.80640 2918.0
17.81140 2907.0
17.81640 2806.0
17.82140 3060.0
17.82640 2941.0
17.83140 2954.0
17.83640 3053.0
17.84140 3133.0
17.84640 3113.0
17.85140 3413.0
17.85640 3487.0
17.86140 3798.0
17.86640 3897.0
17.87140 4263.0
17.87640 4310.0
17.88140 4757.0
17.88640 4737.0
17.89140 4919.0
17.89640 5068.0
17.90140 4959.0
17.90640 4911.0
17.91140 4795.0
17.91640 4596.0
17.92140 4582.0
17.92640 4372.0
17.93140 4353.0
17.93640 4093.0
17.94140 4103.0
17.94640 4032.0
17.95140 3850.0
17.95640 3907.0
17.96140 3765.0
17.96640 3638.0
17.97140 3569.0
17.97640 3222.0
17.98140 3258.0
17.98640 3173.0
17.99140 3172.0
17.99640 3007.0
18.00140 2944.0
18.00640 2989.0
18.01140 2815.0
18.01640 2971.0
18.02140 2864.0
18.02640 2871.0
18.03140 2705.0
18.03640 2618.0
18.04140 2618.0
18.04640 2518.0
18.05140 2527.0
18.05640 2488.0
18.06140 2501.0
18.06640 2397.0
18.07140 2454.0
18.07640 2465.0
18.08140 2378.0
18.08640 2399.0
18.09140 2291.0
18.09640 2369.0
18.10140 2452.0
18.10640 2359.0
18.11140 2316.0
18.11640 2329.0
18.12140 2236.0
18.12640 2315.0
18.13140 2239.0
18.13640 2279.0
18.14140 2205.0
18.14640 2222.0
18.15140 2160.0
18.15640 2224.0
18.16140 2076.0
18.16640 2186.0
18.17140 2131.0
18.17640 2134.0
18.18140 2183.0
18.18640 2036.0
18.19140 2087.0
18.19640 2018.0
18.20140 2068.0
18.20640 2027.0
18.21140 2027.0
18.21640 2065.0
18.22140 1991.0
18.22640 1927.0
18.23140 1985.0
18.23640 1976.0
18.24140 1987.0
18.24640 1957.0
18.25140 1911.0
18.25640 1846.0
18.26140 1904.0
18.26640 1845.0
18.27140 1877.0
18.27640 1843.0
18.28140 1822.0
18.28640 1789.0
18.29140 1789.0
18.29640 1825.0
18.30140 1765.0
18.30640 1845.0
18.31140 1775.0
18.31640 1706.0
18.32140 1768.0
18.32640 1766.0
18.33140 1701.0
18.33640 1673.0
18.34140 1635.0
18.34640 1753.0
18.35140 1714.0
18.35640 1693.0
18.36140 1614.0
18.36640 1679.0
18.37140 1733.0
18.37640 1628.0
18.38140 1634.0
18.38640 1632.0
18.39140 1608.0
18.39640 1625.0
18.40140 1573.0
18.40640 1620.0
18.41140 1582.0
18.41640 1528.0
18.42140 1539.0
18.42640 1494.0
18.43140 1569.0
18.43640 1546.0
18.44140 1523.0
18.44640 1576.0
18.45140 1470.0
18.45640 1494.0
18.46140 1487.0
18.46640 1555.0
18.47140 1503.0
18.47640 1416.0
18.48140 1449.0
18.48640 1398.0
18.49140 1393.0
18.49640 1505.0
18.50140 1434.0
18.50640 1310.0
18.51140 1465.0
18.51640 1400.0
18.52140 1425.0
18.52640 1361.0
18.53140 1389.0
18.53640 1369.0
18.54140 1340.0
18.54640 1270.0
18.55140 1322.0
18.55640 1292.0
18.56140 1309.0
18.56640 1229.0
18.57140 1285.0
18.57640 1265.0
18.58140 1240.0
18.58640 1248.0
18.59140 1232.0
18.59640 1217.0
18.60140 1242.0
18.60640 1236.0
18.61140 1198.0
18.61640 1236.0
18.62140 1153.0
18.62640 1200.0
18.63140 1210.0
18.63640 1143.0
18.64140 1089.0
18.64640 1184.0
18.65140 1145.0
18.65640 1168.0
18.66140 1072.0
18.66640 1097.0
18.67140 1115.0
18.67640 1075.0
18.68140 1093.0
18.68640 1009.0
18.69140 1076.0
18.69640 1070.0
18.70140 1045.0
18.70640 1033.0
18.71140 1047.0
18.71640 1085.0
18.72140 953.0
18.72640 1008.0
18.73140 1049.0
18.73640 999.0
18.74140 1020.0
18.74640 989.0
18.75140 1046.0
18.75640 983.0
18.76140 972.0
18.76640 1017.0
18.77140 979.0
18.77640 968.0
18.78140 915.0
18.78640 898.0
18.79140 936.0
18.79640 948.0
18.80140 979.0
18.80640 927.0
18.81140 939.0
18.81640 969.0
18.82140 929.0
18.82640 956.0
18.83140 903.0
18.83640 934.0
18.84140 871.0
18.84640 958.0
18.85140 883.0
18.85640 869.0
18.86140 914.0
18.86640 924.0
18.87140 900.0
18.87640 884.0
18.88140 887.0
18.88640 856.0
18.89140 842.0
18.89640 872.0
18.90140 776.0
18.90640 834.0
18.91140 875.0
18.91640 812.0
18.92140 787.0
18.92640 780.0
18.93140 821.0
18.93640 740.0
18.94140 796.0
18.94640 766.0
18.95140 800.0
18.95640 760.0
18.96140 736.0
18.96640 746.0
18.97140 739.0
18.97640 774.0
18.98140 727.0
18.98640 734.0
18.99140 804.0
18.99640 744.0
19.00140 721.0
19.00640 705.0
19.01140 709.0
19.01640 696.0
19.02140 679.0
19.02640 733.0
19.03140 671.0
19.03640 692.0
19.04140 681.0
19.04640 629.0
19.05140 662.0
19.05640 697.0
19.06140 639.0
19.06640 646.0
19.07140 680.0
19.07640 688.0
19.08140 638.0
19.08640 663.0
19.09140 692.0
19.09640 611.0
19.10140 659.0
19.10640 648.0
19.11140 647.0
19.11640 636.0
19.12140 583.0
19.12640 622.0
19.13140 618.0
19.13640 589.0
19.14140 587.0
19.14640 610.0
19.15140 622.0
19.15640 579.0
19.16140 558.0
19.16640 572.0
19.17140 583.0
19.17640 563.0
19.18140 592.0
19.18640 605.0
19.19140 574.0
19.19640 599.0
19.20140 537.0
19.20640 588.0
19.21140 578.0
19.21640 572.0
19.22140 538.0
19.22640 567.0
19.23140 616.0
19.23640 558.0
19.24140 529.0
19.24640 520.0
19.25140 505.0
19.25640 517.0
19.26140 555.0
19.26640 501.0
19.27140 498.0
19.27640 525.0
19.28140 524.0
19.28640 499.0
19.29140 503.0
19.29640 526.0
19.30140 498.0
19.30640 488.0
19.31140 477.0
19.31640 497.0
19.32140 474.0
19.32640 459.0
19.33140 496.0
19.33640 470.0
19.34140 494.0
19.34640 442.0
19.35140 469.0
19.35640 474.0
19.36140 526.0
19.36640 479.0
19.37140 427.0
19.37640 454.0
19.38140 428.0
19.38640 461.0
19.39140 455.0
19.39640 405.0
19.40140 438.0
19.40640 474.0
19.41140 446.0
19.41640 447.0
19.42140 410.0
19.42640 425.0
19.43140 442.0
19.43640 448.0
19.44140 395.0
19.44640 394.0
19.45140 432.0
19.45640 434.0
19.46140 409.0
19.46640 429.0
19.47140 425.0
19.47640 396.0
19.48140 400.0
19.48640 443.0
19.49140 408.0
19.49640 394.0
19.50140 382.0
19.50640 392.0
19.51140 394.0
19.51640 375.0
19.52140 365.0
19.52640 356.0
19.53140 360.0
19.53640 390.0
19.54140 360.0
19.54640 365.0
19.55140 385.0
19.55640 387.0
19.56140 378.0
19.56640 351.0
19.57140 367.0
19.57640 359.0
19.58140 308.0
19.58640 388.0
19.59140 375.0
19.59640 370.0
19.60140 390.0
19.60640 362.0
19.61140 373.0
19.61640 322.0
19.62140 373.0
19.62640 345.0
19.63140 349.0
19.63640 357.0
19.64140 347.0
19.64640 340.0
19.65140 314.0
19.65640 330.0
19.66140 354.0
19.66640 305.0
19.67140 329.0
19.67640 350.0
19.68140 345.0
19.68640 304.0
19.69140 333.0
19.69640 349.0
19.70140 303.0
19.70640 324.0
19.71140 315.0
19.71640 300.0
19.72140 303.0
19.72640 279.0
19.73140 294.0
19.73640 306.0
19.74140 302.0
19.74640 292.0
19.75140 306.0
19.75640 302.0
19.76140 317.0
19.76640 311.0
19.77140 271.0
19.77640 319.0
19.78140 296.0
19.78640 261.0
19.79140 310.0
19.79640 298.0
19.80140 307.0
19.80640 294.0
19.81140 279.0
19.81640 267.0
19.82140 296.0
19.82640 306.0
19.83140 255.0
19.83640 276.0
19.84140 294.0
19.84640 302.0
19.85140 279.0
19.85640 263.0
19.86140 267.0
19.86640 281.0
19.87140 264.0
19.87640 266.0
19.88140 247.0
19.88640 236.0