File: data/W6788r/XRD_Omega/W6788r_Cr2O3_scan_omega_2deg_step_0.002deg0_W6788r.xy
10.64740 2835.0
10.64940 2877.0
10.65140 2873.0
10.65340 2954.0
10.65540 2974.0
10.65740 2953.0
10.65940 2936.0
10.66140 2843.0
10.66340 3068.0
10.66540 3005.0
10.66740 2888.0
10.66940 2981.0
10.67140 2910.0
10.67340 2946.0
10.67540 2925.0
10.67740 2978.0
10.67940 3069.0
10.68140 2997.0
10.68340 2962.0
10.68540 3010.0
10.68740 3078.0
10.68940 3074.0
10.69140 2976.0
10.69340 3111.0
10.69540 3068.0
10.69740 3254.0
10.69940 3067.0
10.70140 3064.0
10.70340 3104.0
10.70540 3183.0
10.70740 3114.0
10.70940 3139.0
10.71140 3148.0
10.71340 3214.0
10.71540 3134.0
10.71740 3212.0
10.71940 3236.0
10.72140 3281.0
10.72340 3221.0
10.72540 3205.0
10.72740 3354.0
10.72940 3224.0
10.73140 3289.0
10.73340 3365.0
10.73540 3258.0
10.73740 3326.0
10.73940 3351.0
10.74140 3391.0
10.74340 3389.0
10.74540 3402.0
10.74740 3446.0
10.74940 3484.0
10.75140 3541.0
10.75340 3542.0
10.75540 3473.0
10.75740 3457.0
10.75940 3534.0
10.76140 3514.0
10.76340 3633.0
10.76540 3619.0
10.76740 3633.0
10.76940 3518.0
10.77140 3638.0
10.77340 3638.0
10.77540 3643.0
10.77740 3541.0
10.77940 3636.0
10.78140 3614.0
10.78340 3567.0
10.78540 3713.0
10.78740 3644.0
10.78940 3745.0
10.79140 3608.0
10.79340 3641.0
10.79540 3798.0
10.79740 3752.0
10.79940 3702.0
10.80140 3805.0
10.80340 3976.0
10.80540 3848.0
10.80740 3903.0
10.80940 3939.0
10.81140 3869.0
10.81340 3854.0
10.81540 3831.0
10.81740 3930.0
10.81940 3984.0
10.82140 3914.0
10.82340 3889.0
10.82540 4035.0
10.82740 4022.0
10.82940 3994.0
10.83140 4110.0
10.83340 4075.0
10.83540 3983.0
10.83740 4028.0
10.83940 4117.0
10.84140 4139.0
10.84340 4224.0
10.84540 4125.0
10.84740 4211.0
10.84940 4146.0
10.85140 4178.0
10.85340 4322.0
10.85540 4232.0
10.85740 4354.0
10.85940 4329.0
10.86140 4399.0
10.86340 4328.0
10.86540 4392.0
10.86740 4490.0
10.86940 4392.0
10.87140 4408.0
10.87340 4437.0
10.87540 4357.0
10.87740 4530.0
10.87940 4610.0
10.88140 4400.0
10.88340 4401.0
10.88540 4441.0
10.88740 4552.0
10.88940 4550.0
10.89140 4405.0
10.89340 4454.0
10.89540 4579.0
10.89740 4585.0
10.89940 4534.0
10.90140 4520.0
10.90340 4748.0
10.90540 4823.0
10.90740 4857.0
10.90940 4743.0
10.91140 4815.0
10.91340 4751.0
10.91540 4730.0
10.91740 4846.0
10.91940 4788.0
10.92140 4988.0
10.92340 4789.0
10.92540 4905.0
10.92740 4817.0
10.92940 5009.0
10.93140 4767.0
10.93340 4879.0
10.93540 4911.0
10.93740 4968.0
10.93940 4937.0
10.94140 5148.0
10.94340 5172.0
10.94540 5297.0
10.94740 5153.0
10.94940 5283.0
10.95140 5196.0
10.95340 5124.0
10.95540 5142.0
10.95740 5292.0
10.95940 5123.0
10.96140 5273.0
10.96340 5479.0
10.96540 5377.0
10.96740 5331.0
10.96940 5359.0
10.97140 5407.0
10.97340 5442.0
10.97540 5284.0
10.97740 5477.0
10.97940 5560.0
10.98140 5509.0
10.98340 5616.0
10.98540 5511.0
10.98740 5634.0
10.98940 5674.0
10.99140 5740.0
10.99340 5648.0
10.99540 5669.0
10.99740 5684.0
10.99940 5668.0
11.00140 5937.0
11.00340 5722.0
11.00540 5943.0
11.00740 5964.0
11.00940 5827.0
11.01140 5857.0
11.01340 5889.0
11.01540 5891.0
11.01740 5833.0
11.01940 5871.0
11.02140 6009.0
11.02340 5961.0
11.02540 5928.0
11.02740 6126.0
11.02940 6265.0
11.03140 6063.0
11.03340 6204.0
11.03540 6329.0
11.03740 6172.0
11.03940 6243.0
11.04140 6446.0
11.04340 6291.0
11.04540 6486.0
11.04740 6364.0
11.04940 6542.0
11.05140 6446.0
11.05340 6403.0
11.05540 6491.0
11.05740 6358.0
11.05940 6482.0
11.06140 6546.0
11.06340 6578.0
11.06540 6564.0
11.06740 6540.0
11.06940 6885.0
11.07140 6696.0
11.07340 6859.0
11.07540 6762.0
11.07740 6868.0
11.07940 6751.0
11.08140 6748.0
11.08340 6955.0
11.08540 6873.0
11.08740 6968.0
11.08940 6954.0
11.09140 6999.0
11.09340 6975.0
11.09540 6904.0
11.09740 7303.0
11.09940 7115.0
11.10140 7266.0
11.10340 7230.0
11.10540 7233.0
11.10740 7203.0
11.10940 7254.0
11.11140 7227.0
11.11340 7487.0
11.11540 7414.0
11.11740 7586.0
11.11940 7362.0
11.12140 7362.0
11.12340 7695.0
11.12540 7424.0
11.12740 7510.0
11.12940 7463.0
11.13140 7662.0
11.13340 7500.0
11.13540 7701.0
11.13740 7740.0
11.13940 7769.0
11.14140 7746.0
11.14340 7813.0
11.14540 7915.0
11.14740 7792.0
11.14940 7807.0
11.15140 8160.0
11.15340 7849.0
11.15540 8045.0
11.15740 7982.0
11.15940 8220.0
11.16140 8073.0
11.16340 8088.0
11.16540 8316.0
11.16740 8256.0
11.16940 8152.0
11.17140 8260.0
11.17340 8576.0
11.17540 8525.0
11.17740 8363.0
11.17940 8496.0
11.18140 8345.0
11.18340 8477.0
11.18540 8520.0
11.18740 8561.0
11.18940 8637.0
11.19140 8731.0
11.19340 8567.0
11.19540 8565.0
11.19740 8681.0
11.19940 9026.0
11.20140 8909.0
11.20340 8978.0
11.20540 8959.0
11.20740 9142.0
11.20940 9204.0
11.21140 8992.0
11.21340 9026.0
11.21540 8952.0
11.21740 9126.0
11.21940 9255.0
11.22140 9142.0
11.22340 9133.0
11.22540 9317.0
11.22740 9308.0
11.22940 9212.0
11.23140 9344.0
11.23340 9594.0
11.23540 9521.0
11.23740 9536.0
11.23940 9400.0
11.24140 9703.0
11.24340 9541.0
11.24540 9578.0
11.24740 9597.0
11.24940 9692.0
11.25140 9995.0
11.25340 9527.0
11.25540 9846.0
11.25740 10065.0
11.25940 10099.0
11.26140 10092.0
11.26340 9885.0
11.26540 10031.0
11.26740 9877.0
11.26940 10003.0
11.27140 9961.0
11.27340 10083.0
11.27540 10232.0
11.27740 10376.0
11.27940 10290.0
11.28140 10499.0
11.28340 10384.0
11.28540 10523.0
11.28740 10394.0
11.28940 10428.0
11.29140 10568.0
11.29340 10552.0
11.29540 10435.0
11.29740 10628.0
11.29940 10698.0
11.30140 10481.0
11.30340 10775.0
11.30540 10949.0
11.30740 10841.0
11.30940 10903.0
11.31140 11072.0
11.31340 10912.0
11.31540 11076.0
11.31740 11318.0
11.31940 11065.0
11.32140 11261.0
11.32340 11327.0
11.32540 11405.0
11.32740 11365.0
11.32940 11266.0
11.33140 11427.0
11.33340 11338.0
11.33540 11339.0
11.33740 11322.0
11.33940 11383.0
11.34140 11664.0
11.34340 11573.0
11.34540 11886.0
11.34740 11749.0
11.34940 11716.0
11.35140 11883.0
11.35340 11770.0
11.35540 11689.0
11.35740 11915.0
11.35940 11919.0
11.36140 11977.0
11.36340 12017.0
11.36540 12075.0
11.36740 12159.0
11.36940 12144.0
11.37140 12090.0
11.37340 12197.0
11.37540 12324.0
11.37740 12297.0
11.37940 12198.0
11.38140 12386.0
11.38340 12168.0
11.38540 12462.0
11.38740 12366.0
11.38940 12654.0
11.39140 12540.0
11.39340 12607.0
11.39540 12345.0
11.39740 12559.0
11.39940 12782.0
11.40140 12878.0
11.40340 12894.0
11.40540 12867.0
11.40740 12832.0
11.40940 13031.0
11.41140 12880.0
11.41340 12972.0
11.41540 12869.0
11.41740 13094.0
11.41940 12880.0
11.42140 12765.0
11.42340 12966.0
11.42540 13192.0
11.42740 13156.0
11.42940 13092.0
11.43140 13125.0
11.43340 13117.0
11.43540 13258.0
11.43740 13399.0
11.43940 13206.0
11.44140 13341.0
11.44340 13217.0
11.44540 13468.0
11.44740 13547.0
11.44940 13546.0
11.45140 13488.0
11.45340 13408.0
11.45540 13419.0
11.45740 13607.0
11.45940 13640.0
11.46140 13628.0
11.46340 13684.0
11.46540 13509.0
11.46740 13651.0
11.46940 13915.0
11.47140 13564.0
11.47340 13897.0
11.47540 13954.0
11.47740 13664.0
11.47940 13936.0
11.48140 13969.0
11.48340 14221.0
11.48540 14088.0
11.48740 14217.0
11.48940 14486.0
11.49140 14205.0
11.49340 13969.0
11.49540 14396.0
11.49740 14295.0
11.49940 14315.0
11.50140 14377.0
11.50340 14364.0
11.50540 14359.0
11.50740 14234.0
11.50940 14285.0
11.51140 14364.0
11.51340 14654.0
11.51540 14532.0
11.51740 14515.0
11.51940 14521.0
11.52140 14733.0
11.52340 14704.0
11.52540 14577.0
11.52740 14776.0
11.52940 14948.0
11.53140 15284.0
11.53340 15608.0
11.53540 16018.0
11.53740 16684.0
11.53940 17287.0
11.54140 17845.0
11.54340 18697.0
11.54540 19238.0
11.54740 19591.0
11.54940 19345.0
11.55140 18980.0
11.55340 18778.0
11.55540 18146.0
11.55740 17675.0
11.55940 17196.0
11.56140 16493.0
11.56340 16226.0
11.56540 15936.0
11.56740 15990.0
11.56940 16060.0
11.57140 15654.0
11.57340 15640.0
11.57540 15563.0
11.57740 15332.0
11.57940 15381.0
11.58140 15443.0
11.58340 15584.0
11.58540 15430.0
11.58740 15340.0
11.58940 15535.0
11.59140 15381.0
11.59340 15578.0
11.59540 15270.0
11.59740 15564.0
11.59940 15182.0
11.60140 15439.0
11.60340 15435.0
11.60540 15437.0
11.60740 15365.0
11.60940 15540.0
11.61140 15437.0
11.61340 15301.0
11.61540 15513.0
11.61740 15512.0
11.61940 15534.0
11.62140 15477.0
11.62340 15711.0
11.62540 15352.0
11.62740 15452.0
11.62940 15582.0
11.63140 15654.0
11.63340 15637.0
11.63540 15623.0
11.63740 15356.0
11.63940 15636.0
11.64140 15469.0
11.64340 15681.0
11.64540 15850.0
11.64740 15570.0
11.64940 15512.0
11.65140 15923.0
11.65340 15635.0
11.65540 15786.0
11.65740 15818.0
11.65940 15547.0
11.66140 15456.0
11.66340 15675.0
11.66540 15471.0
11.66740 15633.0
11.66940 15696.0
11.67140 15756.0
11.67340 15553.0
11.67540 15645.0
11.67740 15650.0
11.67940 15493.0
11.68140 15578.0
11.68340 15095.0
11.68540 15206.0
11.68740 15512.0
11.68940 15686.0
11.69140 15156.0
11.69340 15385.0
11.69540 15260.0
11.69740 15468.0
11.69940 15271.0
11.70140 15310.0
11.70340 15328.0
11.70540 15303.0
11.70740 14953.0
11.70940 15196.0
11.71140 15410.0
11.71340 15275.0
11.71540 15277.0
11.71740 15324.0
11.71940 15316.0
11.72140 15279.0
11.72340 15243.0
11.72540 15278.0
11.72740 14967.0
11.72940 15079.0
11.73140 14837.0
11.73340 14900.0
11.73540 15186.0
11.73740 15087.0
11.73940 15060.0
11.74140 15008.0
11.74340 14883.0
11.74540 14724.0
11.74740 14869.0
11.74940 14980.0
11.75140 14856.0
11.75340 15047.0
11.75540 14851.0
11.75740 14777.0
11.75940 15000.0
11.76140 14795.0
11.76340 15065.0
11.76540 14691.0
11.76740 14740.0
11.76940 14618.0
11.77140 14664.0
11.77340 14572.0
11.77540 14481.0
11.77740 14609.0
11.77940 14605.0
11.78140 14482.0
11.78340 14582.0
11.78540 14698.0
11.78740 14557.0
11.78940 14273.0
11.79140 14455.0
11.79340 14457.0
11.79540 14344.0
11.79740 14194.0
11.79940 14337.0
11.80140 14652.0
11.80340 14344.0
11.80540 14423.0
11.80740 14345.0
11.80940 14321.0
11.81140 13944.0
11.81340 14165.0
11.81540 14054.0
11.81740 14172.0
11.81940 14156.0
11.82140 14141.0
11.82340 13843.0
11.82540 13833.0
11.82740 13829.0
11.82940 13841.0
11.83140 13752.0
11.83340 14063.0
11.83540 13930.0
11.83740 13884.0
11.83940 13732.0
11.84140 13637.0
11.84340 13988.0
11.84540 13497.0
11.84740 13610.0
11.84940 13589.0
11.85140 13190.0
11.85340 13260.0
11.85540 13319.0
11.85740 13302.0
11.85940 13191.0
11.86140 13249.0
11.86340 13211.0
11.86540 13130.0
11.86740 13065.0
11.86940 13442.0
11.87140 12925.0
11.87340 13012.0
11.87540 12770.0
11.87740 13115.0
11.87940 12606.0
11.88140 12610.0
11.88340 12626.0
11.88540 12729.0
11.88740 12901.0
11.88940 12853.0
11.89140 12586.0
11.89340 12577.0
11.89540 12388.0
11.89740 12568.0
11.89940 12533.0
11.90140 12537.0
11.90340 12334.0
11.90540 12378.0
11.90740 12441.0
11.90940 12221.0
11.91140 12388.0
11.91340 12534.0
11.91540 12304.0
11.91740 12426.0
11.91940 12243.0
11.92140 11924.0
11.92340 12120.0
11.92540 12184.0
11.92740 12171.0
11.92940 11976.0
11.93140 11869.0
11.93340 11925.0
11.93540 11858.0
11.93740 11974.0
11.93940 11737.0
11.94140 11801.0
11.94340 11725.0
11.94540 11780.0
11.94740 11717.0
11.94940 11533.0
11.95140 11536.0
11.95340 11614.0
11.95540 11534.0
11.95740 11360.0
11.95940 11316.0
11.96140 11144.0
11.96340 11369.0
11.96540 11089.0
11.96740 11249.0
11.96940 11350.0
11.97140 10924.0
11.97340 10843.0
11.97540 10888.0
11.97740 10997.0
11.97940 11170.0
11.98140 10762.0
11.98340 10880.0
11.98540 10924.0
11.98740 10525.0
11.98940 10914.0
11.99140 10667.0
11.99340 10662.0
11.99540 10552.0
11.99740 10496.0
11.99940 10454.0
12.00140 10560.0
12.00340 10580.0
12.00540 10557.0
12.00740 10597.0
12.00940 10447.0
12.01140 10404.0
12.01340 10349.0
12.01540 10250.0
12.01740 10150.0
12.01940 10178.0
12.02140 10037.0
12.02340 10015.0
12.02540 9842.0
12.02740 10001.0
12.02940 9703.0
12.03140 9666.0
12.03340 9687.0
12.03540 9840.0
12.03740 9717.0
12.03940 9427.0
12.04140 9330.0
12.04340 9530.0
12.04540 9760.0
12.04740 9561.0
12.04940 9490.0
12.05140 9420.0
12.05340 9367.0
12.05540 9324.0
12.05740 9126.0
12.05940 9126.0
12.06140 9233.0
12.06340 9085.0
12.06540 9207.0
12.06740 8943.0
12.06940 9092.0
12.07140 8913.0
12.07340 9087.0
12.07540 8923.0
12.07740 9026.0
12.07940 8874.0
12.08140 8795.0
12.08340 8759.0
12.08540 8782.0
12.08740 8669.0
12.08940 8522.0
12.09140 8593.0
12.09340 8262.0
12.09540 8412.0
12.09740 8334.0
12.09940 8344.0
12.10140 8439.0
12.10340 8344.0
12.10540 8428.0
12.10740 8388.0
12.10940 8182.0
12.11140 8256.0
12.11340 8257.0
12.11540 8190.0
12.11740 7985.0
12.11940 8061.0
12.12140 7934.0
12.12340 8071.0
12.12540 7974.0
12.12740 7948.0
12.12940 7976.0
12.13140 7976.0
12.13340 7891.0
12.13540 7892.0
12.13740 7780.0
12.13940 7689.0
12.14140 7651.0
12.14340 7650.0
12.14540 7690.0
12.14740 7734.0
12.14940 7658.0
12.15140 7546.0
12.15340 7613.0
12.15540 7532.0
12.15740 7533.0
12.15940 7273.0
12.16140 7378.0
12.16340 7252.0
12.16540 7434.0
12.16740 7286.0
12.16940 7200.0
12.17140 7276.0
12.17340 7125.0
12.17540 7124.0
12.17740 7154.0
12.17940 7160.0
12.18140 6976.0
12.18340 6870.0
12.18540 6884.0
12.18740 7066.0
12.18940 6857.0
12.19140 6692.0
12.19340 6821.0
12.19540 6905.0
12.19740 6958.0
12.19940 6749.0
12.20140 6613.0
12.20340 6697.0
12.20540 6680.0
12.20740 6652.0
12.20940 6723.0
12.21140 6689.0
12.21340 6541.0
12.21540 6598.0
12.21740 6544.0
12.21940 6490.0
12.22140 6369.0
12.22340 6233.0
12.22540 6262.0
12.22740 6373.0
12.22940 6547.0
12.23140 6482.0
12.23340 6251.0
12.23540 6406.0
12.23740 6315.0
12.23940 6321.0
12.24140 6216.0
12.24340 6085.0
12.24540 6172.0
12.24740 5987.0
12.24940 6264.0
12.25140 6115.0
12.25340 6053.0
12.25540 5910.0
12.25740 5912.0
12.25940 5964.0
12.26140 6035.0
12.26340 5916.0
12.26540 5682.0
12.26740 5961.0
12.26940 5751.0
12.27140 5852.0
12.27340 5766.0
12.27540 5819.0
12.27740 5651.0
12.27940 5609.0
12.28140 5740.0
12.28340 5665.0
12.28540 5577.0
12.28740 5615.0
12.28940 5423.0
12.29140 5590.0
12.29340 5458.0
12.29540 5481.0
12.29740 5510.0
12.29940 5427.0
12.30140 5506.0
12.30340 5540.0
12.30540 5437.0
12.30740 5241.0
12.30940 5370.0
12.31140 5313.0
12.31340 5288.0
12.31540 5240.0
12.31740 5342.0
12.31940 5107.0
12.32140 5216.0
12.32340 5154.0
12.32540 5146.0
12.32740 5265.0
12.32940 5298.0
12.33140 5160.0
12.33340 5225.0
12.33540 5248.0
12.33740 5171.0
12.33940 5025.0
12.34140 5004.0
12.34340 5073.0
12.34540 4978.0
12.34740 5082.0
12.34940 5004.0
12.35140 5029.0
12.35340 4981.0
12.35540 4911.0
12.35740 4957.0
12.35940 4931.0
12.36140 4830.0
12.36340 4913.0
12.36540 4910.0
12.36740 4901.0
12.36940 4774.0
12.37140 4803.0
12.37340 4772.0
12.37540 4773.0
12.37740 4864.0
12.37940 4780.0
12.38140 4642.0
12.38340 4877.0
12.38540 4781.0
12.38740 4745.0
12.38940 4774.0
12.39140 4738.0
12.39340 4636.0
12.39540 4626.0
12.39740 4755.0
12.39940 4674.0
12.40140 4664.0
12.40340 4602.0
12.40540 4688.0
12.40740 4551.0
12.40940 4569.0
12.41140 4786.0
12.41340 4611.0
12.41540 4657.0
12.41740 4565.0
12.41940 4615.0
12.42140 4583.0
12.42340 4578.0
12.42540 4601.0
12.42740 4611.0
12.42940 4611.0
12.43140 4666.0
12.43340 4545.0
12.43540 4661.0
12.43740 4594.0
12.43940 4617.0
12.44140 4656.0
12.44340 4710.0
12.44540 4529.0
12.44740 4581.0
12.44940 4575.0
12.45140 4730.0
12.45340 4628.0
12.45540 4603.0
12.45740 4634.0
12.45940 4668.0
12.46140 4617.0
12.46340 4593.0
12.46540 4575.0
12.46740 4812.0
12.46940 4704.0
12.47140 4734.0
12.47340 4619.0
12.47540 4675.0
12.47740 4819.0
12.47940 4654.0
12.48140 4697.0
12.48340 4736.0
12.48540 4668.0
12.48740 4643.0
12.48940 4737.0
12.49140 4755.0
12.49340 4979.0
12.49540 4767.0
12.49740 4724.0
12.49940 4879.0
12.50140 4753.0
12.50340 4695.0
12.50540 4736.0
12.50740 4891.0
12.50940 4800.0
12.51140 4877.0
12.51340 4818.0
12.51540 4909.0
12.51740 4857.0
12.51940 4878.0
12.52140 5009.0
12.52340 4936.0
12.52540 4911.0
12.52740 4977.0
12.52940 4946.0
12.53140 5022.0
12.53340 5036.0
12.53540 4957.0
12.53740 5010.0
12.53940 5023.0
12.54140 5103.0
12.54340 5019.0
12.54540 5070.0
12.54740 5132.0
12.54940 5172.0
12.55140 5159.0
12.55340 5171.0
12.55540 5225.0
12.55740 5080.0
12.55940 5208.0
12.56140 5193.0
12.56340 5174.0
12.56540 5344.0
12.56740 5324.0
12.56940 5308.0
12.57140 5193.0
12.57340 5280.0
12.57540 5478.0
12.57740 5387.0
12.57940 5333.0
12.58140 5319.0
12.58340 5345.0
12.58540 5417.0
12.58740 5528.0
12.58940 5540.0
12.59140 5589.0
12.59340 5586.0
12.59540 5497.0
12.59740 5629.0
12.59940 5733.0
12.60140 5704.0
12.60340 5629.0
12.60540 5614.0
12.60740 5758.0
12.60940 5815.0
12.61140 5925.0
12.61340 6059.0
12.61540 5881.0
12.61740 6009.0
12.61940 6008.0
12.62140 6153.0
12.62340 5860.0
12.62540 6146.0
12.62740 6125.0
12.62940 6252.0
12.63140 6367.0