File: data/w6928a/XRD_Omega/film_a_scan_omega_4deg_step_0.005deg0_C1.xy
16.20680 61.0
16.21180 72.0
16.21680 65.0
16.22180 65.0
16.22680 65.0
16.23180 50.0
16.23680 40.0
16.24180 73.0
16.24680 63.0
16.25180 70.0
16.25680 60.0
16.26180 63.0
16.26680 60.0
16.27180 58.0
16.27680 46.0
16.28180 73.0
16.28680 64.0
16.29180 71.0
16.29680 72.0
16.30180 69.0
16.30680 61.0
16.31180 65.0
16.31680 56.0
16.32180 74.0
16.32680 64.0
16.33180 67.0
16.33680 72.0
16.34180 64.0
16.34680 82.0
16.35180 80.0
16.35680 73.0
16.36180 61.0
16.36680 88.0
16.37180 66.0
16.37680 85.0
16.38180 63.0
16.38680 69.0
16.39180 59.0
16.39680 78.0
16.40180 78.0
16.40680 89.0
16.41180 82.0
16.41680 92.0
16.42180 81.0
16.42680 99.0
16.43180 85.0
16.43680 70.0
16.44180 83.0
16.44680 102.0
16.45180 85.0
16.45680 87.0
16.46180 81.0
16.46680 88.0
16.47180 86.0
16.47680 85.0
16.48180 76.0
16.48680 100.0
16.49180 84.0
16.49680 72.0
16.50180 76.0
16.50680 101.0
16.51180 105.0
16.51680 68.0
16.52180 95.0
16.52680 89.0
16.53180 99.0
16.53680 85.0
16.54180 82.0
16.54680 108.0
16.55180 110.0
16.55680 105.0
16.56180 98.0
16.56680 76.0
16.57180 109.0
16.57680 117.0
16.58180 110.0
16.58680 104.0
16.59180 94.0
16.59680 105.0
16.60180 107.0
16.60680 93.0
16.61180 101.0
16.61680 119.0
16.62180 114.0
16.62680 126.0
16.63180 121.0
16.63680 93.0
16.64180 103.0
16.64680 100.0
16.65180 102.0
16.65680 143.0
16.66180 131.0
16.66680 118.0
16.67180 118.0
16.67680 112.0
16.68180 130.0
16.68680 106.0
16.69180 107.0
16.69680 137.0
16.70180 126.0
16.70680 140.0
16.71180 148.0
16.71680 126.0
16.72180 139.0
16.72680 145.0
16.73180 136.0
16.73680 137.0
16.74180 148.0
16.74680 167.0
16.75180 153.0
16.75680 150.0
16.76180 131.0
16.76680 156.0
16.77180 167.0
16.77680 150.0
16.78180 163.0
16.78680 148.0
16.79180 123.0
16.79680 156.0
16.80180 162.0
16.80680 159.0
16.81180 164.0
16.81680 170.0
16.82180 182.0
16.82680 174.0
16.83180 167.0
16.83680 162.0
16.84180 185.0
16.84680 194.0
16.85180 179.0
16.85680 172.0
16.86180 207.0
16.86680 188.0
16.87180 193.0
16.87680 214.0
16.88180 192.0
16.88680 217.0
16.89180 203.0
16.89680 195.0
16.90180 202.0
16.90680 200.0
16.91180 228.0
16.91680 188.0
16.92180 239.0
16.92680 229.0
16.93180 218.0
16.93680 233.0
16.94180 216.0
16.94680 233.0
16.95180 228.0
16.95680 228.0
16.96180 251.0
16.96680 247.0
16.97180 225.0
16.97680 252.0
16.98180 219.0
16.98680 249.0
16.99180 253.0
16.99680 263.0
17.00180 264.0
17.00680 272.0
17.01180 270.0
17.01680 280.0
17.02180 238.0
17.02680 270.0
17.03180 250.0
17.03680 265.0
17.04180 288.0
17.04680 275.0
17.05180 288.0
17.05680 271.0
17.06180 308.0
17.06680 303.0
17.07180 305.0
17.07680 304.0
17.08180 294.0
17.08680 301.0
17.09180 329.0
17.09680 333.0
17.10180 327.0
17.10680 356.0
17.11180 316.0
17.11680 308.0
17.12180 346.0
17.12680 327.0
17.13180 384.0
17.13680 395.0
17.14180 347.0
17.14680 357.0
17.15180 383.0
17.15680 380.0
17.16180 336.0
17.16680 407.0
17.17180 420.0
17.17680 385.0
17.18180 403.0
17.18680 424.0
17.19180 397.0
17.19680 420.0
17.20180 429.0
17.20680 432.0
17.21180 428.0
17.21680 435.0
17.22180 430.0
17.22680 429.0
17.23180 480.0
17.23680 450.0
17.24180 476.0
17.24680 457.0
17.25180 492.0
17.25680 469.0
17.26180 484.0
17.26680 487.0
17.27180 509.0
17.27680 561.0
17.28180 546.0
17.28680 535.0
17.29180 541.0
17.29680 541.0
17.30180 571.0
17.30680 612.0
17.31180 565.0
17.31680 577.0
17.32180 602.0
17.32680 588.0
17.33180 624.0
17.33680 615.0
17.34180 626.0
17.34680 665.0
17.35180 618.0
17.35680 696.0
17.36180 696.0
17.36680 678.0
17.37180 748.0
17.37680 725.0
17.38180 760.0
17.38680 749.0
17.39180 723.0
17.39680 716.0
17.40180 763.0
17.40680 790.0
17.41180 773.0
17.41680 832.0
17.42180 789.0
17.42680 808.0
17.43180 782.0
17.43680 864.0
17.44180 821.0
17.44680 908.0
17.45180 898.0
17.45680 874.0
17.46180 869.0
17.46680 901.0
17.47180 925.0
17.47680 917.0
17.48180 927.0
17.48680 911.0
17.49180 1014.0
17.49680 973.0
17.50180 994.0
17.50680 993.0
17.51180 1087.0
17.51680 1029.0
17.52180 1107.0
17.52680 1088.0
17.53180 1097.0
17.53680 1118.0
17.54180 1137.0
17.54680 1222.0
17.55180 1159.0
17.55680 1189.0
17.56180 1181.0
17.56680 1269.0
17.57180 1304.0
17.57680 1279.0
17.58180 1330.0
17.58680 1334.0
17.59180 1397.0
17.59680 1286.0
17.60180 1349.0
17.60680 1446.0
17.61180 1449.0
17.61680 1491.0
17.62180 1489.0
17.62680 1570.0
17.63180 1544.0
17.63680 1548.0
17.64180 1615.0
17.64680 1610.0
17.65180 1748.0
17.65680 1631.0
17.66180 1777.0
17.66680 1805.0
17.67180 1785.0
17.67680 1802.0
17.68180 1903.0
17.68680 1864.0
17.69180 1921.0
17.69680 1962.0
17.70180 2076.0
17.70680 2060.0
17.71180 2060.0
17.71680 2096.0
17.72180 2134.0
17.72680 2168.0
17.73180 2214.0
17.73680 2303.0
17.74180 2410.0
17.74680 2283.0
17.75180 2334.0
17.75680 2393.0
17.76180 2484.0
17.76680 2453.0
17.77180 2543.0
17.77680 2504.0
17.78180 2525.0
17.78680 2744.0
17.79180 2771.0
17.79680 2756.0
17.80180 2819.0
17.80680 2894.0
17.81180 2890.0
17.81680 2947.0
17.82180 3017.0
17.82680 3046.0
17.83180 3172.0
17.83680 3274.0
17.84180 3281.0
17.84680 3318.0
17.85180 3363.0
17.85680 3503.0
17.86180 3563.0
17.86680 3614.0
17.87180 3694.0
17.87680 3610.0
17.88180 3874.0
17.88680 3878.0
17.89180 3920.0
17.89680 3974.0
17.90180 4073.0
17.90680 4080.0
17.91180 4238.0
17.91680 4357.0
17.92180 4362.0
17.92680 4462.0
17.93180 4487.0
17.93680 4677.0
17.94180 4788.0
17.94680 4671.0
17.95180 5022.0
17.95680 4966.0
17.96180 4967.0
17.96680 5217.0
17.97180 5220.0
17.97680 5314.0
17.98180 5458.0
17.98680 5514.0
17.99180 5582.0
17.99680 5609.0
18.00180 5591.0
18.00680 5849.0
18.01180 5804.0
18.01680 6112.0
18.02180 5938.0
18.02680 6115.0
18.03180 6261.0
18.03680 6521.0
18.04180 6503.0
18.04680 6610.0
18.05180 6786.0
18.05680 6936.0
18.06180 6868.0
18.06680 7133.0
18.07180 7104.0
18.07680 7292.0
18.08180 7521.0
18.08680 7702.0
18.09180 7567.0
18.09680 7716.0
18.10180 7736.0
18.10680 7865.0
18.11180 8115.0
18.11680 8305.0
18.12180 8313.0
18.12680 8428.0
18.13180 8666.0
18.13680 8796.0
18.14180 9271.0
18.14680 9413.0
18.15180 9894.0
18.15680 10148.0
18.16180 10442.0
18.16680 10655.0
18.17180 10635.0
18.17680 10694.0
18.18180 10718.0
18.18680 10346.0
18.19180 10372.0
18.19680 10435.0
18.20180 10498.0
18.20680 10408.0
18.21180 10147.0
18.21680 9844.0
18.22180 9797.0
18.22680 9764.0
18.23180 9396.0
18.23680 9208.0
18.24180 8790.0
18.24680 8675.0
18.25180 8551.0
18.25680 8197.0
18.26180 8229.0
18.26680 8161.0
18.27180 8121.0
18.27680 7851.0
18.28180 7645.0
18.28680 7530.0
18.29180 7255.0
18.29680 7036.0
18.30180 7010.0
18.30680 7082.0
18.31180 6886.0
18.31680 6858.0
18.32180 6433.0
18.32680 6380.0
18.33180 6233.0
18.33680 6307.0
18.34180 6133.0
18.34680 6163.0
18.35180 5985.0
18.35680 5942.0
18.36180 5745.0
18.36680 5674.0
18.37180 5708.0
18.37680 5417.0
18.38180 5346.0
18.38680 5328.0
18.39180 5145.0
18.39680 5018.0
18.40180 5145.0
18.40680 4880.0
18.41180 4766.0
18.41680 4737.0
18.42180 4878.0
18.42680 4621.0
18.43180 4541.0
18.43680 4575.0
18.44180 4264.0
18.44680 4217.0
18.45180 4175.0
18.45680 4153.0
18.46180 4083.0
18.46680 3933.0
18.47180 3964.0
18.47680 3969.0
18.48180 3769.0
18.48680 3688.0
18.49180 3635.0
18.49680 3556.0
18.50180 3439.0
18.50680 3603.0
18.51180 3383.0
18.51680 3390.0
18.52180 3228.0
18.52680 3164.0
18.53180 3073.0
18.53680 3044.0
18.54180 3112.0
18.54680 2959.0
18.55180 2925.0
18.55680 2781.0
18.56180 2845.0
18.56680 2718.0
18.57180 2673.0
18.57680 2614.0
18.58180 2661.0
18.58680 2502.0
18.59180 2488.0
18.59680 2409.0
18.60180 2370.0
18.60680 2401.0
18.61180 2373.0
18.61680 2276.0
18.62180 2223.0
18.62680 2214.0
18.63180 2201.0
18.63680 2182.0
18.64180 2128.0
18.64680 2099.0
18.65180 2016.0
18.65680 1969.0
18.66180 2004.0
18.66680 1926.0
18.67180 1839.0
18.67680 1862.0
18.68180 1749.0
18.68680 1786.0
18.69180 1707.0
18.69680 1678.0
18.70180 1595.0
18.70680 1640.0
18.71180 1560.0
18.71680 1534.0
18.72180 1564.0
18.72680 1500.0
18.73180 1490.0
18.73680 1452.0
18.74180 1407.0
18.74680 1455.0
18.75180 1446.0
18.75680 1353.0
18.76180 1261.0
18.76680 1282.0
18.77180 1358.0
18.77680 1277.0
18.78180 1254.0
18.78680 1267.0
18.79180 1250.0
18.79680 1219.0
18.80180 1186.0
18.80680 1114.0
18.81180 1102.0
18.81680 1112.0
18.82180 1094.0
18.82680 1038.0
18.83180 1041.0
18.83680 1103.0
18.84180 1018.0
18.84680 1087.0
18.85180 941.0
18.85680 960.0
18.86180 968.0
18.86680 904.0
18.87180 923.0
18.87680 906.0
18.88180 849.0
18.88680 921.0
18.89180 870.0
18.89680 851.0
18.90180 840.0
18.90680 856.0
18.91180 809.0
18.91680 808.0
18.92180 827.0
18.92680 778.0
18.93180 757.0
18.93680 760.0
18.94180 727.0
18.94680 731.0
18.95180 704.0
18.95680 661.0
18.96180 699.0
18.96680 681.0
18.97180 687.0
18.97680 640.0
18.98180 650.0
18.98680 671.0
18.99180 613.0
18.99680 623.0
19.00180 632.0
19.00680 597.0
19.01180 601.0
19.01680 573.0
19.02180 585.0
19.02680 606.0
19.03180 592.0
19.03680 563.0
19.04180 583.0
19.04680 574.0
19.05180 574.0
19.05680 572.0
19.06180 497.0
19.06680 502.0
19.07180 488.0
19.07680 507.0
19.08180 552.0
19.08680 493.0
19.09180 482.0
19.09680 489.0
19.10180 481.0
19.10680 482.0
19.11180 436.0
19.11680 434.0
19.12180 438.0
19.12680 490.0
19.13180 394.0
19.13680 412.0
19.14180 428.0
19.14680 402.0
19.15180 423.0
19.15680 418.0
19.16180 398.0
19.16680 367.0
19.17180 398.0
19.17680 362.0
19.18180 394.0
19.18680 358.0
19.19180 367.0
19.19680 356.0
19.20180 338.0
19.20680 374.0
19.21180 344.0
19.21680 342.0
19.22180 337.0
19.22680 309.0
19.23180 326.0
19.23680 348.0
19.24180 311.0
19.24680 287.0
19.25180 297.0
19.25680 305.0
19.26180 296.0
19.26680 310.0
19.27180 302.0
19.27680 280.0
19.28180 313.0
19.28680 262.0
19.29180 294.0
19.29680 258.0
19.30180 270.0
19.30680 289.0
19.31180 277.0
19.31680 257.0
19.32180 252.0
19.32680 197.0
19.33180 278.0
19.33680 270.0
19.34180 237.0
19.34680 267.0
19.35180 224.0
19.35680 261.0
19.36180 242.0
19.36680 242.0
19.37180 223.0
19.37680 222.0
19.38180 213.0
19.38680 227.0
19.39180 206.0
19.39680 196.0
19.40180 208.0
19.40680 247.0
19.41180 204.0
19.41680 203.0
19.42180 197.0
19.42680 183.0
19.43180 174.0
19.43680 193.0
19.44180 194.0
19.44680 194.0
19.45180 182.0
19.45680 179.0
19.46180 196.0
19.46680 173.0
19.47180 177.0
19.47680 165.0
19.48180 181.0
19.48680 154.0
19.49180 156.0
19.49680 174.0
19.50180 169.0
19.50680 164.0
19.51180 161.0
19.51680 176.0
19.52180 142.0
19.52680 161.0
19.53180 164.0
19.53680 164.0
19.54180 170.0
19.54680 139.0
19.55180 156.0
19.55680 159.0
19.56180 133.0
19.56680 148.0
19.57180 151.0
19.57680 138.0
19.58180 134.0
19.58680 129.0
19.59180 141.0
19.59680 126.0
19.60180 150.0
19.60680 131.0
19.61180 119.0
19.61680 136.0
19.62180 139.0
19.62680 126.0
19.63180 117.0
19.63680 111.0
19.64180 112.0
19.64680 120.0
19.65180 117.0
19.65680 126.0
19.66180 112.0
19.66680 118.0
19.67180 123.0
19.67680 108.0
19.68180 107.0
19.68680 127.0
19.69180 93.0
19.69680 92.0
19.70180 108.0
19.70680 124.0
19.71180 105.0
19.71680 105.0
19.72180 101.0
19.72680 85.0
19.73180 99.0
19.73680 101.0
19.74180 82.0
19.74680 93.0
19.75180 90.0
19.75680 107.0
19.76180 108.0
19.76680 103.0
19.77180 101.0
19.77680 99.0
19.78180 90.0
19.78680 89.0
19.79180 79.0
19.79680 79.0
19.80180 84.0
19.80680 88.0
19.81180 90.0
19.81680 80.0
19.82180 83.0
19.82680 85.0
19.83180 66.0
19.83680 91.0
19.84180 77.0
19.84680 94.0
19.85180 66.0
19.85680 70.0
19.86180 79.0
19.86680 77.0
19.87180 66.0
19.87680 64.0
19.88180 61.0
19.88680 61.0
19.89180 81.0
19.89680 78.0
19.90180 71.0
19.90680 70.0
19.91180 78.0
19.91680 85.0
19.92180 77.0
19.92680 74.0
19.93180 66.0
19.93680 61.0
19.94180 66.0
19.94680 80.0
19.95180 66.0
19.95680 64.0
19.96180 61.0
19.96680 56.0
19.97180 54.0
19.97680 62.0
19.98180 77.0
19.98680 58.0
19.99180 68.0
19.99680 64.0
20.00180 70.0
20.00680 58.0
20.01180 71.0
20.01680 58.0
20.02180 58.0
20.02680 65.0
20.03180 59.0
20.03680 69.0
20.04180 45.0
20.04680 57.0
20.05180 51.0
20.05680 46.0
20.06180 64.0
20.06680 63.0
20.07180 42.0
20.07680 57.0
20.08180 55.0
20.08680 66.0
20.09180 39.0
20.09680 58.0
20.10180 44.0
20.10680 56.0
20.11180 59.0
20.11680 52.0
20.12180 45.0
20.12680 39.0
20.13180 55.0
20.13680 50.0
20.14180 49.0
20.14680 45.0
20.15180 61.0
20.15680 38.0
20.16180 60.0
20.16680 63.0