File: data/W6901r/XRD_2ThetaOmega/scan_2th-om_r2_Cr2O3_45-55deg_PIXscan_5min_C2.xy
45.0025 111.0
45.0123 99.0
45.0222 124.0
45.032 101.0
45.0419 95.0
45.0517 99.0
45.0615 100.0
45.0714 102.0
45.0812 104.0
45.0911 124.0
45.1009 94.0
45.1108 96.0
45.1206 99.0
45.1305 98.0
45.1403 116.0
45.1502 89.0
45.16 118.0
45.1699 115.0
45.1797 103.0
45.1896 108.0
45.1994 111.0
45.2093 133.0
45.2191 115.0
45.229 118.0
45.2388 102.0
45.2487 113.0
45.2585 114.0
45.2684 86.0
45.2782 127.0
45.288 109.0
45.2979 92.0
45.3077 99.0
45.3176 105.0
45.3274 113.0
45.3373 113.0
45.3471 110.0
45.357 121.0
45.3668 98.0
45.3767 102.0
45.3865 92.0
45.3964 111.0
45.4062 106.0
45.4161 125.0
45.4259 107.0
45.4358 98.0
45.4456 99.0
45.4555 106.0
45.4653 117.0
45.4752 115.0
45.485 97.0
45.4948 102.0
45.5047 105.0
45.5145 105.0
45.5244 84.0
45.5342 102.0
45.5441 104.0
45.5539 104.0
45.5638 85.0
45.5736 99.0
45.5835 110.0
45.5933 85.0
45.6032 92.0
45.613 115.0
45.6229 84.0
45.6327 102.0
45.6426 100.0
45.6524 109.0
45.6623 109.0
45.6721 105.0
45.682 100.0
45.6918 105.0
45.7016 128.0
45.7115 118.0
45.7213 111.0
45.7312 97.0
45.741 94.0
45.7509 88.0
45.7607 96.0
45.7706 120.0
45.7804 104.0
45.7903 99.0
45.8001 110.0
45.81 96.0
45.8198 121.0
45.8297 108.0
45.8395 89.0
45.8494 99.0
45.8592 105.0
45.8691 116.0
45.8789 133.0
45.8888 107.0
45.8986 98.0
45.9085 91.0
45.9183 100.0
45.9281 98.0
45.938 90.0
45.9478 108.0
45.9577 105.0
45.9675 106.0
45.9774 100.0
45.9872 109.0
45.9971 95.0
46.0069 110.0
46.0168 94.0
46.0266 96.0
46.0365 99.0
46.0463 110.0
46.0562 93.0
46.066 109.0
46.0759 106.0
46.0857 101.0
46.0956 111.0
46.1054 102.0
46.1153 101.0
46.1251 109.0
46.1349 116.0
46.1448 112.0
46.1546 109.0
46.1645 89.0
46.1743 84.0
46.1842 94.0
46.194 117.0
46.2039 112.0
46.2137 113.0
46.2236 90.0
46.2334 107.0
46.2433 97.0
46.2531 103.0
46.263 116.0
46.2728 92.0
46.2827 85.0
46.2925 107.0
46.3024 120.0
46.3122 119.0
46.3221 99.0
46.3319 93.0
46.3418 98.0
46.3516 80.0
46.3614 100.0
46.3713 111.0
46.3811 111.0
46.391 108.0
46.4008 105.0
46.4107 104.0
46.4205 111.0
46.4304 96.0
46.4402 108.0
46.4501 112.0
46.4599 107.0
46.4698 114.0
46.4796 116.0
46.4895 105.0
46.4993 90.0
46.5092 106.0
46.519 108.0
46.5289 129.0
46.5387 103.0
46.5486 84.0
46.5584 88.0
46.5682 110.0
46.5781 104.0
46.5879 93.0
46.5978 109.0
46.6076 111.0
46.6175 114.0
46.6273 119.0
46.6372 99.0
46.647 132.0
46.6569 96.0
46.6667 100.0
46.6766 122.0
46.6864 110.0
46.6963 113.0
46.7061 111.0
46.716 119.0
46.7258 115.0
46.7357 151.0
46.7455 115.0
46.7554 109.0
46.7652 112.0
46.7751 105.0
46.7849 103.0
46.7947 96.0
46.8046 114.0
46.8144 118.0
46.8243 120.0
46.8341 134.0
46.844 120.0
46.8538 129.0
46.8637 134.0
46.8735 129.0
46.8834 134.0
46.8932 129.0
46.9031 121.0
46.9129 123.0
46.9228 133.0
46.9326 105.0
46.9425 109.0
46.9523 127.0
46.9622 120.0
46.972 130.0
46.9819 109.0
46.9917 121.0
47.0015 151.0
47.0114 188.0
47.0212 166.0
47.0311 185.0
47.0409 200.0
47.0508 326.0
47.0606 415.0
47.0705 577.0
47.0803 880.0
47.0902 1196.0
47.1 1400.0
47.1099 1510.0
47.1197 1441.0
47.1296 1397.0
47.1394 1053.0
47.1493 752.0
47.1591 573.0
47.169 422.0
47.1788 362.0
47.1887 319.0
47.1985 258.0
47.2083 212.0
47.2182 201.0
47.228 159.0
47.2379 179.0
47.2477 135.0
47.2576 164.0
47.2674 152.0
47.2773 160.0
47.2871 155.0
47.297 163.0
47.3068 153.0
47.3167 138.0
47.3265 141.0
47.3364 137.0
47.3462 139.0
47.3561 125.0
47.3659 136.0
47.3758 136.0
47.3856 119.0
47.3955 132.0
47.4053 128.0
47.4152 128.0
47.425 126.0
47.4348 112.0
47.4447 130.0
47.4545 123.0
47.4644 100.0
47.4742 110.0
47.4841 133.0
47.4939 126.0
47.5038 119.0
47.5136 119.0
47.5235 118.0
47.5333 99.0
47.5432 124.0
47.553 134.0
47.5629 125.0
47.5727 117.0
47.5826 127.0
47.5924 137.0
47.6023 106.0
47.6121 124.0
47.622 129.0
47.6318 156.0
47.6416 112.0
47.6515 124.0
47.6613 120.0
47.6712 114.0
47.681 121.0
47.6909 119.0
47.7007 110.0
47.7106 119.0
47.7204 129.0
47.7303 115.0
47.7401 117.0
47.75 110.0
47.7598 139.0
47.7697 124.0
47.7795 103.0
47.7894 123.0
47.7992 126.0
47.8091 122.0
47.8189 120.0
47.8288 127.0
47.8386 113.0
47.8485 110.0
47.8583 125.0
47.8681 128.0
47.878 128.0
47.8878 118.0
47.8977 122.0
47.9075 135.0
47.9174 141.0
47.9272 101.0
47.9371 107.0
47.9469 121.0
47.9568 129.0
47.9666 125.0
47.9765 119.0
47.9863 136.0
47.9962 133.0
48.006 121.0
48.0159 132.0
48.0257 120.0
48.0356 127.0
48.0454 123.0
48.0553 141.0
48.0651 113.0
48.0749 120.0
48.0848 116.0
48.0946 116.0
48.1045 128.0
48.1143 142.0
48.1242 130.0
48.134 134.0
48.1439 121.0
48.1537 131.0
48.1636 116.0
48.1734 116.0
48.1833 106.0
48.1931 110.0
48.203 118.0
48.2128 113.0
48.2227 139.0
48.2325 130.0
48.2424 118.0
48.2522 126.0
48.2621 137.0
48.2719 120.0
48.2818 120.0
48.2916 155.0
48.3014 137.0
48.3113 132.0
48.3211 137.0
48.331 144.0
48.3408 120.0
48.3507 119.0
48.3605 134.0
48.3704 130.0
48.3802 136.0
48.3901 122.0
48.3999 128.0
48.4098 133.0
48.4196 122.0
48.4295 149.0
48.4393 128.0
48.4492 119.0
48.459 153.0
48.4689 119.0
48.4787 116.0
48.4886 133.0
48.4984 128.0
48.5082 117.0
48.5181 120.0
48.5279 130.0
48.5378 126.0
48.5476 109.0
48.5575 138.0
48.5673 154.0
48.5772 127.0
48.587 138.0
48.5969 129.0
48.6067 152.0
48.6166 135.0
48.6264 132.0
48.6363 149.0
48.6461 148.0
48.656 130.0
48.6658 129.0
48.6757 136.0
48.6855 128.0
48.6954 143.0
48.7052 134.0
48.715 155.0
48.7249 155.0
48.7347 143.0
48.7446 131.0
48.7544 135.0
48.7643 167.0
48.7741 162.0
48.784 156.0
48.7938 151.0
48.8037 147.0
48.8135 157.0
48.8234 155.0
48.8332 147.0
48.8431 153.0
48.8529 144.0
48.8628 149.0
48.8726 161.0
48.8825 156.0
48.8923 125.0
48.9022 146.0
48.912 124.0
48.9219 152.0
48.9317 155.0
48.9415 169.0
48.9514 160.0
48.9612 143.0
48.9711 164.0
48.9809 172.0
48.9908 178.0
49.0006 162.0
49.0105 148.0
49.0203 149.0
49.0302 174.0
49.04 150.0
49.0499 145.0
49.0597 178.0
49.0696 151.0
49.0794 190.0
49.0893 153.0
49.0991 170.0
49.109 168.0
49.1188 187.0
49.1287 210.0
49.1385 179.0
49.1483 168.0
49.1582 179.0
49.168 198.0
49.1779 151.0
49.1877 204.0
49.1976 199.0
49.2074 188.0
49.2173 166.0
49.2271 188.0
49.237 209.0
49.2468 197.0
49.2567 217.0
49.2665 186.0
49.2764 194.0
49.2862 228.0
49.2961 230.0
49.3059 220.0
49.3158 258.0
49.3256 280.0
49.3355 239.0
49.3453 216.0
49.3552 230.0
49.365 258.0
49.3748 290.0
49.3847 263.0
49.3945 245.0
49.4044 275.0
49.4142 283.0
49.4241 274.0
49.4339 307.0
49.4438 306.0
49.4536 324.0
49.4635 327.0
49.4733 344.0
49.4832 361.0
49.493 331.0
49.5029 384.0
49.5127 372.0
49.5226 350.0
49.5324 357.0
49.5423 368.0
49.5521 366.0
49.562 382.0
49.5718 403.0
49.5816 432.0
49.5915 388.0
49.6013 380.0
49.6112 398.0
49.621 389.0
49.6309 411.0
49.6407 421.0
49.6506 411.0
49.6604 415.0
49.6703 423.0
49.6801 430.0
49.69 432.0
49.6998 426.0
49.7097 442.0
49.7195 438.0
49.7294 438.0
49.7392 454.0
49.7491 458.0
49.7589 471.0
49.7688 423.0
49.7786 417.0
49.7884 462.0
49.7983 407.0
49.8081 437.0
49.818 453.0
49.8278 441.0
49.8377 450.0
49.8475 417.0
49.8574 423.0
49.8672 424.0
49.8771 363.0
49.8869 433.0
49.8968 389.0
49.9066 422.0
49.9165 425.0
49.9263 372.0
49.9362 429.0
49.946 404.0
49.9559 345.0
49.9657 394.0
49.9756 397.0
49.9854 364.0
49.9953 382.0
50.0051 381.0
50.0149 352.0
50.0248 367.0
50.0346 333.0
50.0445 322.0
50.0543 375.0
50.0642 353.0
50.074 317.0
50.0839 350.0
50.0937 356.0
50.1036 337.0
50.1134 308.0
50.1233 327.0
50.1331 345.0
50.143 336.0
50.1528 326.0
50.1627 337.0
50.1725 329.0
50.1824 318.0
50.1922 324.0
50.2021 273.0
50.2119 298.0
50.2217 280.0
50.2316 228.0
50.2414 234.0
50.2513 244.0
50.2611 282.0
50.271 235.0
50.2808 268.0
50.2907 243.0
50.3005 277.0
50.3104 214.0
50.3202 238.0
50.3301 233.0
50.3399 209.0
50.3498 255.0
50.3596 221.0
50.3695 207.0
50.3793 218.0
50.3892 232.0
50.399 185.0
50.4089 212.0
50.4187 224.0
50.4286 206.0
50.4384 192.0
50.4482 186.0
50.4581 195.0
50.4679 216.0
50.4778 189.0
50.4876 204.0
50.4975 206.0
50.5073 172.0
50.5172 208.0
50.527 188.0
50.5369 172.0
50.5467 186.0
50.5566 207.0
50.5664 181.0
50.5763 195.0
50.5861 192.0
50.596 196.0
50.6058 193.0
50.6157 188.0
50.6255 197.0
50.6354 195.0
50.6452 182.0
50.655 177.0
50.6649 194.0
50.6747 194.0
50.6846 205.0
50.6944 193.0
50.7043 205.0
50.7141 198.0
50.724 193.0
50.7338 184.0
50.7437 182.0
50.7535 180.0
50.7634 180.0
50.7732 192.0
50.7831 185.0
50.7929 197.0
50.8028 224.0
50.8126 208.0
50.8225 221.0
50.8323 202.0
50.8422 225.0
50.852 193.0
50.8619 225.0
50.8717 222.0
50.8815 209.0
50.8914 202.0
50.9012 204.0
50.9111 223.0
50.9209 212.0
50.9308 266.0
50.9406 227.0
50.9505 220.0
50.9603 282.0
50.9702 211.0
50.98 255.0
50.9899 229.0
50.9997 272.0
51.0096 229.0
51.0194 297.0
51.0293 296.0
51.0391 287.0
51.049 316.0
51.0588 289.0
51.0687 259.0
51.0785 264.0
51.0883 272.0
51.0982 292.0
51.108 303.0
51.1179 306.0
51.1277 287.0
51.1376 304.0
51.1474 268.0
51.1573 306.0
51.1671 260.0
51.177 325.0
51.1868 306.0
51.1967 311.0
51.2065 349.0
51.2164 332.0
51.2262 309.0
51.2361 338.0
51.2459 355.0
51.2558 317.0
51.2656 355.0
51.2755 347.0
51.2853 333.0
51.2951 385.0
51.305 406.0
51.3148 360.0
51.3247 385.0
51.3345 371.0
51.3444 380.0
51.3542 373.0
51.3641 372.0
51.3739 392.0
51.3838 388.0
51.3936 371.0
51.4035 405.0
51.4133 416.0
51.4232 381.0
51.433 383.0
51.4429 418.0
51.4527 428.0
51.4626 429.0
51.4724 464.0
51.4823 473.0
51.4921 469.0
51.502 440.0
51.5118 465.0
51.5216 476.0
51.5315 453.0
51.5413 457.0
51.5512 428.0
51.561 488.0
51.5709 482.0
51.5807 454.0
51.5906 516.0
51.6004 504.0
51.6103 510.0
51.6201 519.0
51.63 551.0
51.6398 521.0
51.6497 521.0
51.6595 544.0
51.6694 568.0
51.6792 592.0
51.6891 616.0
51.6989 568.0
51.7088 603.0
51.7186 581.0
51.7284 589.0
51.7383 612.0
51.7481 633.0
51.758 581.0
51.7678 632.0
51.7777 593.0
51.7875 685.0
51.7974 655.0
51.8072 649.0
51.8171 677.0
51.8269 674.0
51.8368 699.0
51.8466 696.0
51.8565 712.0
51.8663 685.0
51.8762 706.0
51.886 779.0
51.8959 755.0
51.9057 761.0
51.9156 773.0
51.9254 808.0
51.9353 806.0
51.9451 754.0
51.9549 876.0
51.9648 815.0
51.9746 859.0
51.9845 828.0
51.9943 948.0
52.0042 884.0
52.014 1006.0
52.0239 972.0
52.0337 1002.0
52.0436 1066.0
52.0534 1083.0
52.0633 1047.0
52.0731 1109.0
52.083 1181.0
52.0928 1209.0
52.1027 1261.0
52.1125 1286.0
52.1224 1377.0
52.1322 1445.0
52.1421 1541.0
52.1519 1590.0
52.1617 1684.0
52.1716 1786.0
52.1814 1898.0
52.1913 2268.0
52.2011 2448.0
52.211 2813.0
52.2208 3201.0
52.2307 3679.0
52.2405 3884.0
52.2504 4406.0
52.2602 4612.0
52.2701 4763.0
52.2799 4772.0
52.2898 4789.0
52.2996 4716.0
52.3095 4611.0
52.3193 4603.0
52.3292 4687.0
52.339 4695.0
52.3489 5200.0
52.3587 5540.0
52.3686 6175.0
52.3784 6972.0
52.3882 8021.0
52.3981 9605.0
52.4079 11737.0
52.4178 14783.0
52.4276 19506.0
52.4375 26599.0
52.4473 40318.0
52.4572 69388.0
52.467 146378.0
52.4769 272906.0
52.4867 351981.0
52.4966 386598.0
52.5064 393830.0
52.5163 368664.0
52.5261 277863.0
52.536 150084.0
52.5458 80810.0
52.5557 49185.0
52.5655 34823.0
52.5754 30041.0
52.5852 31414.0
52.595 42163.0
52.6049 70616.0
52.6147 123772.0
52.6246 170208.0
52.6344 193427.0
52.6443 198334.0
52.6541 188144.0
52.664 152112.0
52.6738 95785.0
52.6837 52484.0
52.6935 29801.0
52.7034 18901.0
52.7132 13552.0
52.7231 10357.0
52.7329 8447.0
52.7428 6990.0
52.7526 6375.0
52.7625 5621.0
52.7723 4860.0
52.7822 4416.0
52.792 3949.0
52.8018 3677.0
52.8117 3460.0
52.8215 3116.0
52.8314 2969.0
52.8412 2805.0
52.8511 2566.0
52.8609 2532.0
52.8708 2330.0
52.8806 2228.0
52.8905 2063.0
52.9003 1944.0
52.9102 1858.0
52.92 1769.0
52.9299 1699.0
52.9397 1571.0
52.9496 1518.0
52.9594 1540.0
52.9693 1380.0
52.9791 1335.0
52.989 1346.0
52.9988 1229.0
53.0087 1225.0
53.0185 1118.0
53.0283 1165.0
53.0382 1090.0
53.048 1048.0
53.0579 974.0
53.0677 972.0
53.0776 955.0
53.0874 947.0
53.0973 913.0
53.1071 866.0
53.117 861.0
53.1268 823.0
53.1367 830.0
53.1465 807.0
53.1564 772.0
53.1662 775.0
53.1761 685.0
53.1859 740.0
53.1958 663.0
53.2056 664.0
53.2155 749.0
53.2253 639.0
53.2351 650.0
53.245 608.0
53.2548 606.0
53.2647 617.0
53.2745 586.0
53.2844 592.0
53.2942 554.0
53.3041 544.0
53.3139 528.0
53.3238 497.0
53.3336 492.0
53.3435 537.0
53.3533 486.0
53.3632 462.0
53.373 473.0
53.3829 433.0
53.3927 429.0
53.4026 448.0
53.4124 490.0
53.4223 458.0
53.4321 455.0
53.442 458.0
53.4518 414.0
53.4616 402.0
53.4715 392.0
53.4813 417.0
53.4912 402.0
53.501 376.0
53.5109 378.0
53.5207 333.0
53.5306 325.0
53.5404 338.0
53.5503 339.0
53.5601 310.0
53.57 309.0
53.5798 365.0
53.5897 327.0
53.5995 307.0
53.6094 310.0
53.6192 291.0
53.6291 298.0
53.6389 318.0
53.6488 269.0
53.6586 302.0
53.6684 271.0
53.6783 308.0
53.6881 302.0
53.698 267.0
53.7078 229.0
53.7177 277.0
53.7275 260.0
53.7374 256.0
53.7472 278.0
53.7571 221.0
53.7669 219.0
53.7768 191.0
53.7866 214.0
53.7965 269.0
53.8063 223.0
53.8162 231.0
53.826 213.0
53.8359 209.0
53.8457 191.0
53.8556 209.0
53.8654 222.0
53.8753 209.0
53.8851 186.0
53.8949 208.0
53.9048 191.0
53.9146 217.0
53.9245 205.0
53.9343 190.0
53.9442 210.0
53.954 197.0
53.9639 217.0
53.9737 208.0
53.9836 184.0
53.9934 188.0
54.0033 182.0
54.0131 201.0
54.023 221.0
54.0328 195.0
54.0427 189.0
54.0525 175.0
54.0624 147.0
54.0722 175.0
54.0821 191.0
54.0919 151.0
54.1017 170.0
54.1116 161.0
54.1214 189.0
54.1313 155.0
54.1411 187.0
54.151 161.0
54.1608 157.0
54.1707 180.0
54.1805 174.0
54.1904 184.0
54.2002 183.0
54.2101 165.0
54.2199 150.0
54.2298 171.0
54.2396 170.0
54.2495 171.0
54.2593 178.0
54.2692 167.0
54.279 145.0
54.2889 156.0
54.2987 161.0
54.3085 167.0
54.3184 166.0
54.3282 168.0
54.3381 163.0
54.3479 164.0
54.3578 166.0
54.3676 193.0
54.3775 161.0
54.3873 167.0
54.3972 131.0
54.407 159.0
54.4169 173.0
54.4267 138.0
54.4366 163.0
54.4464 135.0
54.4563 176.0
54.4661 143.0
54.476 158.0
54.4858 148.0
54.4957 151.0
54.5055 173.0
54.5154 137.0
54.5252 143.0
54.535 147.0
54.5449 142.0
54.5547 146.0
54.5646 169.0
54.5744 157.0
54.5843 159.0
54.5941 158.0
54.604 150.0
54.6138 151.0
54.6237 137.0
54.6335 158.0
54.6434 153.0
54.6532 163.0
54.6631 138.0
54.6729 145.0
54.6828 143.0
54.6926 132.0
54.7025 154.0
54.7123 148.0
54.7222 139.0
54.732 129.0
54.7418 146.0
54.7517 129.0
54.7615 134.0
54.7714 145.0
54.7812 116.0
54.7911 155.0
54.8009 141.0
54.8108 134.0
54.8206 138.0
54.8305 147.0
54.8403 127.0
54.8502 124.0
54.86 135.0
54.8699 130.0
54.8797 135.0
54.8896 162.0
54.8994 132.0
54.9093 146.0
54.9191 149.0
54.929 136.0
54.9388 135.0
54.9487 141.0
54.9585 171.0
54.9683 141.0
54.9782 150.0
54.988 123.0
54.9979 147.0