File: data/w6930c/XRD_Omega/film_c_scan_omega_4deg_step_0.005deg0_C3.xy
17.46080 27.0
17.46580 24.0
17.47080 25.0
17.47580 37.0
17.48080 21.0
17.48580 30.0
17.49080 30.0
17.49580 32.0
17.50080 40.0
17.50580 40.0
17.51080 47.0
17.51580 38.0
17.52080 41.0
17.52580 33.0
17.53080 33.0
17.53580 27.0
17.54080 30.0
17.54580 32.0
17.55080 24.0
17.55580 33.0
17.56080 32.0
17.56580 28.0
17.57080 31.0
17.57580 29.0
17.58080 37.0
17.58580 33.0
17.59080 28.0
17.59580 23.0
17.60080 33.0
17.60580 25.0
17.61080 32.0
17.61580 38.0
17.62080 35.0
17.62580 30.0
17.63080 28.0
17.63580 34.0
17.64080 40.0
17.64580 39.0
17.65080 30.0
17.65580 45.0
17.66080 33.0
17.66580 30.0
17.67080 29.0
17.67580 31.0
17.68080 35.0
17.68580 33.0
17.69080 36.0
17.69580 37.0
17.70080 36.0
17.70580 33.0
17.71080 40.0
17.71580 33.0
17.72080 31.0
17.72580 25.0
17.73080 35.0
17.73580 35.0
17.74080 54.0
17.74580 37.0
17.75080 42.0
17.75580 29.0
17.76080 41.0
17.76580 36.0
17.77080 41.0
17.77580 37.0
17.78080 35.0
17.78580 43.0
17.79080 30.0
17.79580 30.0
17.80080 37.0
17.80580 25.0
17.81080 35.0
17.81580 27.0
17.82080 41.0
17.82580 36.0
17.83080 51.0
17.83580 30.0
17.84080 43.0
17.84580 29.0
17.85080 37.0
17.85580 29.0
17.86080 29.0
17.86580 35.0
17.87080 33.0
17.87580 35.0
17.88080 37.0
17.88580 41.0
17.89080 47.0
17.89580 36.0
17.90080 45.0
17.90580 48.0
17.91080 37.0
17.91580 35.0
17.92080 36.0
17.92580 34.0
17.93080 27.0
17.93580 45.0
17.94080 38.0
17.94580 36.0
17.95080 29.0
17.95580 38.0
17.96080 30.0
17.96580 51.0
17.97080 40.0
17.97580 46.0
17.98080 39.0
17.98580 48.0
17.99080 34.0
17.99580 40.0
18.00080 49.0
18.00580 41.0
18.01080 42.0
18.01580 51.0
18.02080 54.0
18.02580 48.0
18.03080 38.0
18.03580 43.0
18.04080 45.0
18.04580 43.0
18.05080 44.0
18.05580 31.0
18.06080 58.0
18.06580 46.0
18.07080 48.0
18.07580 35.0
18.08080 31.0
18.08580 35.0
18.09080 47.0
18.09580 45.0
18.10080 41.0
18.10580 43.0
18.11080 35.0
18.11580 50.0
18.12080 35.0
18.12580 58.0
18.13080 35.0
18.13580 36.0
18.14080 44.0
18.14580 39.0
18.15080 45.0
18.15580 47.0
18.16080 45.0
18.16580 56.0
18.17080 48.0
18.17580 44.0
18.18080 46.0
18.18580 38.0
18.19080 61.0
18.19580 41.0
18.20080 42.0
18.20580 48.0
18.21080 55.0
18.21580 65.0
18.22080 49.0
18.22580 57.0
18.23080 39.0
18.23580 68.0
18.24080 54.0
18.24580 43.0
18.25080 49.0
18.25580 48.0
18.26080 55.0
18.26580 50.0
18.27080 61.0
18.27580 59.0
18.28080 64.0
18.28580 49.0
18.29080 51.0
18.29580 50.0
18.30080 64.0
18.30580 59.0
18.31080 48.0
18.31580 57.0
18.32080 64.0
18.32580 60.0
18.33080 57.0
18.33580 45.0
18.34080 48.0
18.34580 53.0
18.35080 59.0
18.35580 56.0
18.36080 60.0
18.36580 66.0
18.37080 64.0
18.37580 57.0
18.38080 51.0
18.38580 71.0
18.39080 70.0
18.39580 53.0
18.40080 78.0
18.40580 75.0
18.41080 45.0
18.41580 72.0
18.42080 60.0
18.42580 81.0
18.43080 77.0
18.43580 57.0
18.44080 71.0
18.44580 74.0
18.45080 75.0
18.45580 68.0
18.46080 83.0
18.46580 81.0
18.47080 64.0
18.47580 76.0
18.48080 76.0
18.48580 89.0
18.49080 90.0
18.49580 82.0
18.50080 90.0
18.50580 89.0
18.51080 90.0
18.51580 107.0
18.52080 80.0
18.52580 99.0
18.53080 102.0
18.53580 96.0
18.54080 99.0
18.54580 93.0
18.55080 106.0
18.55580 90.0
18.56080 91.0
18.56580 100.0
18.57080 92.0
18.57580 101.0
18.58080 102.0
18.58580 118.0
18.59080 116.0
18.59580 114.0
18.60080 91.0
18.60580 115.0
18.61080 121.0
18.61580 123.0
18.62080 120.0
18.62580 113.0
18.63080 109.0
18.63580 126.0
18.64080 131.0
18.64580 126.0
18.65080 133.0
18.65580 130.0
18.66080 155.0
18.66580 133.0
18.67080 133.0
18.67580 140.0
18.68080 144.0
18.68580 154.0
18.69080 161.0
18.69580 134.0
18.70080 141.0
18.70580 161.0
18.71080 153.0
18.71580 157.0
18.72080 165.0
18.72580 172.0
18.73080 166.0
18.73580 159.0
18.74080 175.0
18.74580 190.0
18.75080 182.0
18.75580 179.0
18.76080 183.0
18.76580 187.0
18.77080 212.0
18.77580 185.0
18.78080 216.0
18.78580 195.0
18.79080 200.0
18.79580 215.0
18.80080 196.0
18.80580 209.0
18.81080 214.0
18.81580 214.0
18.82080 234.0
18.82580 261.0
18.83080 221.0
18.83580 255.0
18.84080 265.0
18.84580 254.0
18.85080 271.0
18.85580 255.0
18.86080 262.0
18.86580 255.0
18.87080 269.0
18.87580 235.0
18.88080 253.0
18.88580 291.0
18.89080 289.0
18.89580 282.0
18.90080 280.0
18.90580 347.0
18.91080 352.0
18.91580 317.0
18.92080 324.0
18.92580 317.0
18.93080 336.0
18.93580 330.0
18.94080 324.0
18.94580 370.0
18.95080 360.0
18.95580 349.0
18.96080 385.0
18.96580 386.0
18.97080 408.0
18.97580 377.0
18.98080 419.0
18.98580 395.0
18.99080 402.0
18.99580 438.0
19.00080 445.0
19.00580 459.0
19.01080 439.0
19.01580 434.0
19.02080 434.0
19.02580 452.0
19.03080 454.0
19.03580 483.0
19.04080 513.0
19.04580 517.0
19.05080 528.0
19.05580 518.0
19.06080 525.0
19.06580 522.0
19.07080 537.0
19.07580 560.0
19.08080 556.0
19.08580 566.0
19.09080 572.0
19.09580 592.0
19.10080 553.0
19.10580 607.0
19.11080 575.0
19.11580 637.0
19.12080 566.0
19.12580 642.0
19.13080 647.0
19.13580 658.0
19.14080 630.0
19.14580 665.0
19.15080 699.0
19.15580 670.0
19.16080 684.0
19.16580 696.0
19.17080 708.0
19.17580 699.0
19.18080 713.0
19.18580 782.0
19.19080 796.0
19.19580 762.0
19.20080 792.0
19.20580 740.0
19.21080 832.0
19.21580 825.0
19.22080 834.0
19.22580 830.0
19.23080 794.0
19.23580 881.0
19.24080 792.0
19.24580 824.0
19.25080 823.0
19.25580 840.0
19.26080 907.0
19.26580 894.0
19.27080 892.0
19.27580 953.0
19.28080 930.0
19.28580 895.0
19.29080 909.0
19.29580 912.0
19.30080 954.0
19.30580 978.0
19.31080 972.0
19.31580 936.0
19.32080 985.0
19.32580 914.0
19.33080 969.0
19.33580 982.0
19.34080 1019.0
19.34580 1009.0
19.35080 946.0
19.35580 940.0
19.36080 1066.0
19.36580 995.0
19.37080 1028.0
19.37580 1034.0
19.38080 990.0
19.38580 1027.0
19.39080 1051.0
19.39580 1051.0
19.40080 1053.0
19.40580 1053.0
19.41080 1090.0
19.41580 1153.0
19.42080 983.0
19.42580 1002.0
19.43080 1080.0
19.43580 1054.0
19.44080 994.0
19.44580 1093.0
19.45080 1043.0
19.45580 1038.0
19.46080 1056.0
19.46580 1084.0
19.47080 1107.0
19.47580 1098.0
19.48080 1049.0
19.48580 1066.0
19.49080 1074.0
19.49580 1122.0
19.50080 1065.0
19.50580 1017.0
19.51080 1045.0
19.51580 1022.0
19.52080 1079.0
19.52580 1103.0
19.53080 1059.0
19.53580 988.0
19.54080 1061.0
19.54580 1043.0
19.55080 1037.0
19.55580 1016.0
19.56080 1045.0
19.56580 1022.0
19.57080 997.0
19.57580 994.0
19.58080 952.0
19.58580 946.0
19.59080 936.0
19.59580 983.0
19.60080 1008.0
19.60580 971.0
19.61080 931.0
19.61580 1001.0
19.62080 970.0
19.62580 889.0
19.63080 927.0
19.63580 879.0
19.64080 952.0
19.64580 932.0
19.65080 914.0
19.65580 875.0
19.66080 894.0
19.66580 893.0
19.67080 904.0
19.67580 822.0
19.68080 887.0
19.68580 883.0
19.69080 847.0
19.69580 795.0
19.70080 788.0
19.70580 815.0
19.71080 790.0
19.71580 760.0
19.72080 789.0
19.72580 723.0
19.73080 731.0
19.73580 752.0
19.74080 753.0
19.74580 778.0
19.75080 734.0
19.75580 718.0
19.76080 703.0
19.76580 704.0
19.77080 742.0
19.77580 686.0
19.78080 654.0
19.78580 681.0
19.79080 686.0
19.79580 647.0
19.80080 633.0
19.80580 596.0
19.81080 646.0
19.81580 641.0
19.82080 644.0
19.82580 563.0
19.83080 582.0
19.83580 503.0
19.84080 574.0
19.84580 591.0
19.85080 546.0
19.85580 522.0
19.86080 545.0
19.86580 518.0
19.87080 542.0
19.87580 501.0
19.88080 485.0
19.88580 529.0
19.89080 502.0
19.89580 471.0
19.90080 476.0
19.90580 471.0
19.91080 460.0
19.91580 456.0
19.92080 448.0
19.92580 424.0
19.93080 391.0
19.93580 400.0
19.94080 395.0
19.94580 424.0
19.95080 381.0
19.95580 418.0
19.96080 388.0
19.96580 363.0
19.97080 368.0
19.97580 374.0
19.98080 377.0
19.98580 366.0
19.99080 353.0
19.99580 355.0
20.00080 332.0
20.00580 349.0
20.01080 332.0
20.01580 313.0
20.02080 305.0
20.02580 301.0
20.03080 293.0
20.03580 342.0
20.04080 298.0
20.04580 307.0
20.05080 305.0
20.05580 269.0
20.06080 272.0
20.06580 262.0
20.07080 257.0
20.07580 252.0
20.08080 271.0
20.08580 245.0
20.09080 231.0
20.09580 252.0
20.10080 240.0
20.10580 223.0
20.11080 219.0
20.11580 220.0
20.12080 235.0
20.12580 209.0
20.13080 211.0
20.13580 236.0
20.14080 213.0
20.14580 197.0
20.15080 231.0
20.15580 195.0
20.16080 190.0
20.16580 183.0
20.17080 191.0
20.17580 192.0
20.18080 201.0
20.18580 164.0
20.19080 157.0
20.19580 164.0
20.20080 161.0
20.20580 160.0
20.21080 156.0
20.21580 184.0
20.22080 160.0
20.22580 169.0
20.23080 142.0
20.23580 156.0
20.24080 142.0
20.24580 123.0
20.25080 140.0
20.25580 145.0
20.26080 139.0
20.26580 120.0
20.27080 125.0
20.27580 108.0
20.28080 118.0
20.28580 134.0
20.29080 123.0
20.29580 113.0
20.30080 124.0
20.30580 123.0
20.31080 125.0
20.31580 127.0
20.32080 109.0
20.32580 97.0
20.33080 122.0
20.33580 89.0
20.34080 104.0
20.34580 124.0
20.35080 100.0
20.35580 114.0
20.36080 110.0
20.36580 96.0
20.37080 101.0
20.37580 84.0
20.38080 87.0
20.38580 79.0
20.39080 87.0
20.39580 74.0
20.40080 88.0
20.40580 85.0
20.41080 83.0
20.41580 94.0
20.42080 77.0
20.42580 80.0
20.43080 86.0
20.43580 94.0
20.44080 82.0
20.44580 87.0
20.45080 85.0
20.45580 75.0
20.46080 76.0
20.46580 76.0
20.47080 75.0
20.47580 63.0
20.48080 70.0
20.48580 69.0
20.49080 76.0
20.49580 61.0
20.50080 67.0
20.50580 64.0
20.51080 71.0
20.51580 64.0
20.52080 61.0
20.52580 65.0
20.53080 52.0
20.53580 62.0
20.54080 71.0
20.54580 68.0
20.55080 55.0
20.55580 65.0
20.56080 53.0
20.56580 62.0
20.57080 73.0
20.57580 64.0
20.58080 57.0
20.58580 59.0
20.59080 56.0
20.59580 52.0
20.60080 65.0
20.60580 61.0
20.61080 60.0
20.61580 56.0
20.62080 43.0
20.62580 58.0
20.63080 50.0
20.63580 47.0
20.64080 32.0
20.64580 43.0
20.65080 49.0
20.65580 48.0
20.66080 50.0
20.66580 42.0
20.67080 45.0
20.67580 49.0
20.68080 33.0
20.68580 61.0
20.69080 41.0
20.69580 53.0
20.70080 38.0
20.70580 38.0
20.71080 38.0
20.71580 51.0
20.72080 44.0
20.72580 42.0
20.73080 44.0
20.73580 42.0
20.74080 54.0
20.74580 48.0
20.75080 35.0
20.75580 48.0
20.76080 52.0
20.76580 43.0
20.77080 38.0
20.77580 40.0
20.78080 37.0
20.78580 42.0
20.79080 51.0
20.79580 43.0
20.80080 47.0
20.80580 39.0
20.81080 47.0
20.81580 41.0
20.82080 34.0
20.82580 41.0
20.83080 30.0
20.83580 32.0
20.84080 22.0
20.84580 34.0
20.85080 36.0
20.85580 36.0
20.86080 38.0
20.86580 31.0
20.87080 30.0
20.87580 30.0
20.88080 24.0
20.88580 44.0
20.89080 30.0
20.89580 32.0
20.90080 36.0
20.90580 28.0
20.91080 39.0
20.91580 38.0
20.92080 36.0
20.92580 37.0
20.93080 36.0
20.93580 28.0
20.94080 34.0
20.94580 35.0
20.95080 45.0
20.95580 39.0
20.96080 27.0
20.96580 36.0
20.97080 37.0
20.97580 28.0
20.98080 29.0
20.98580 36.0
20.99080 29.0
20.99580 28.0
21.00080 41.0
21.00580 46.0
21.01080 24.0
21.01580 37.0
21.02080 37.0
21.02580 42.0
21.03080 41.0
21.03580 29.0
21.04080 31.0
21.04580 29.0
21.05080 44.0
21.05580 25.0
21.06080 32.0
21.06580 32.0
21.07080 31.0
21.07580 38.0
21.08080 32.0
21.08580 21.0
21.09080 44.0
21.09580 33.0
21.10080 31.0
21.10580 33.0
21.11080 39.0
21.11580 37.0
21.12080 29.0
21.12580 39.0
21.13080 38.0
21.13580 38.0
21.14080 41.0
21.14580 23.0
21.15080 27.0
21.15580 28.0
21.16080 29.0
21.16580 43.0
21.17080 40.0
21.17580 28.0
21.18080 35.0
21.18580 28.0
21.19080 28.0
21.19580 27.0
21.20080 24.0
21.20580 37.0
21.21080 27.0
21.21580 36.0
21.22080 36.0
21.22580 26.0
21.23080 26.0
21.23580 35.0
21.24080 36.0
21.24580 31.0
21.25080 21.0
21.25580 27.0
21.26080 32.0
21.26580 32.0
21.27080 32.0
21.27580 31.0
21.28080 29.0
21.28580 33.0
21.29080 35.0
21.29580 25.0
21.30080 22.0
21.30580 28.0
21.31080 29.0
21.31580 36.0
21.32080 34.0
21.32580 27.0
21.33080 28.0
21.33580 30.0
21.34080 23.0
21.34580 19.0
21.35080 33.0
21.35580 36.0
21.36080 36.0
21.36580 27.0
21.37080 30.0
21.37580 39.0
21.38080 20.0
21.38580 28.0
21.39080 29.0
21.39580 21.0
21.40080 30.0
21.40580 27.0
21.41080 34.0
21.41580 24.0
21.42080 23.0