File: data/W6906m/XRD_2ThetaOmega/scan_2th-om_m_Cr2O3_55-75deg_PIXscan_4min_C7.xy
55.0019 121.0
55.0166 151.0
55.0314 109.0
55.0462 147.0
55.0609 121.0
55.0757 123.0
55.0905 105.0
55.1053 136.0
55.12 119.0
55.1348 102.0
55.1496 107.0
55.1643 145.0
55.1791 130.0
55.1939 114.0
55.2087 135.0
55.2234 125.0
55.2382 137.0
55.253 118.0
55.2678 129.0
55.2825 122.0
55.2973 141.0
55.3121 134.0
55.3268 118.0
55.3416 145.0
55.3564 137.0
55.3712 148.0
55.3859 140.0
55.4007 128.0
55.4155 127.0
55.4302 104.0
55.445 115.0
55.4598 123.0
55.4746 112.0
55.4893 109.0
55.5041 94.0
55.5189 121.0
55.5336 145.0
55.5484 124.0
55.5632 141.0
55.578 134.0
55.5927 123.0
55.6075 141.0
55.6223 144.0
55.637 114.0
55.6518 123.0
55.6666 122.0
55.6814 119.0
55.6961 138.0
55.7109 117.0
55.7257 120.0
55.7404 116.0
55.7552 136.0
55.77 117.0
55.7848 120.0
55.7995 136.0
55.8143 130.0
55.8291 126.0
55.8438 132.0
55.8586 132.0
55.8734 112.0
55.8882 138.0
55.9029 162.0
55.9177 123.0
55.9325 119.0
55.9472 122.0
55.962 128.0
55.9768 136.0
55.9916 108.0
56.0063 121.0
56.0211 137.0
56.0359 127.0
56.0506 111.0
56.0654 134.0
56.0802 131.0
56.095 139.0
56.1097 129.0
56.1245 133.0
56.1393 121.0
56.154 133.0
56.1688 126.0
56.1836 125.0
56.1984 149.0
56.2131 110.0
56.2279 131.0
56.2427 125.0
56.2574 116.0
56.2722 136.0
56.287 128.0
56.3018 129.0
56.3165 134.0
56.3313 111.0
56.3461 123.0
56.3608 133.0
56.3756 142.0
56.3904 110.0
56.4052 131.0
56.4199 130.0
56.4347 123.0
56.4495 133.0
56.4642 127.0
56.479 134.0
56.4938 131.0
56.5086 119.0
56.5233 130.0
56.5381 144.0
56.5529 137.0
56.5676 125.0
56.5824 131.0
56.5972 117.0
56.612 123.0
56.6267 139.0
56.6415 121.0
56.6563 136.0
56.671 106.0
56.6858 126.0
56.7006 113.0
56.7154 119.0
56.7301 136.0
56.7449 111.0
56.7597 131.0
56.7745 123.0
56.7892 133.0
56.804 130.0
56.8188 142.0
56.8335 129.0
56.8483 115.0
56.8631 150.0
56.8779 114.0
56.8926 158.0
56.9074 151.0
56.9222 150.0
56.9369 143.0
56.9517 139.0
56.9665 131.0
56.9813 132.0
56.996 150.0
57.0108 130.0
57.0256 121.0
57.0403 142.0
57.0551 125.0
57.0699 144.0
57.0847 114.0
57.0994 122.0
57.1142 132.0
57.129 129.0
57.1437 121.0
57.1585 120.0
57.1733 119.0
57.1881 141.0
57.2028 135.0
57.2176 120.0
57.2324 135.0
57.2471 126.0
57.2619 141.0
57.2767 134.0
57.2915 137.0
57.3062 130.0
57.321 125.0
57.3358 121.0
57.3505 137.0
57.3653 132.0
57.3801 139.0
57.3949 132.0
57.4096 144.0
57.4244 138.0
57.4392 151.0
57.4539 137.0
57.4687 142.0
57.4835 129.0
57.4983 155.0
57.513 114.0
57.5278 125.0
57.5426 123.0
57.5573 168.0
57.5721 120.0
57.5869 143.0
57.6017 139.0
57.6164 146.0
57.6312 137.0
57.646 123.0
57.6607 112.0
57.6755 140.0
57.6903 134.0
57.7051 133.0
57.7198 144.0
57.7346 151.0
57.7494 163.0
57.7641 149.0
57.7789 130.0
57.7937 135.0
57.8085 137.0
57.8232 147.0
57.838 130.0
57.8528 136.0
57.8675 125.0
57.8823 139.0
57.8971 137.0
57.9119 129.0
57.9266 139.0
57.9414 128.0
57.9562 133.0
57.9709 128.0
57.9857 140.0
58.0005 142.0
58.0153 149.0
58.03 132.0
58.0448 135.0
58.0596 128.0
58.0743 127.0
58.0891 148.0
58.1039 132.0
58.1187 125.0
58.1334 148.0
58.1482 137.0
58.163 117.0
58.1777 124.0
58.1925 149.0
58.2073 126.0
58.2221 135.0
58.2368 143.0
58.2516 159.0
58.2664 136.0
58.2812 122.0
58.2959 151.0
58.3107 136.0
58.3255 117.0
58.3402 131.0
58.355 122.0
58.3698 131.0
58.3846 128.0
58.3993 125.0
58.4141 134.0
58.4289 132.0
58.4436 134.0
58.4584 143.0
58.4732 127.0
58.488 120.0
58.5027 130.0
58.5175 121.0
58.5323 132.0
58.547 131.0
58.5618 157.0
58.5766 152.0
58.5914 140.0
58.6061 139.0
58.6209 137.0
58.6357 127.0
58.6504 132.0
58.6652 135.0
58.68 117.0
58.6948 126.0
58.7095 142.0
58.7243 126.0
58.7391 141.0
58.7538 140.0
58.7686 153.0
58.7834 160.0
58.7982 147.0
58.8129 121.0
58.8277 134.0
58.8425 124.0
58.8572 124.0
58.872 152.0
58.8868 111.0
58.9016 134.0
58.9163 129.0
58.9311 143.0
58.9459 142.0
58.9606 131.0
58.9754 135.0
58.9902 127.0
59.005 129.0
59.0197 131.0
59.0345 129.0
59.0493 127.0
59.064 129.0
59.0788 136.0
59.0936 141.0
59.1084 139.0
59.1231 132.0
59.1379 129.0
59.1527 134.0
59.1674 115.0
59.1822 156.0
59.197 139.0
59.2118 148.0
59.2265 145.0
59.2413 120.0
59.2561 163.0
59.2708 146.0
59.2856 142.0
59.3004 140.0
59.3152 115.0
59.3299 133.0
59.3447 147.0
59.3595 140.0
59.3742 143.0
59.389 133.0
59.4038 120.0
59.4186 129.0
59.4333 118.0
59.4481 152.0
59.4629 138.0
59.4776 139.0
59.4924 143.0
59.5072 120.0
59.522 139.0
59.5367 141.0
59.5515 146.0
59.5663 135.0
59.581 140.0
59.5958 114.0
59.6106 125.0
59.6254 143.0
59.6401 154.0
59.6549 147.0
59.6697 140.0
59.6844 132.0
59.6992 132.0
59.714 136.0
59.7288 124.0
59.7435 139.0
59.7583 136.0
59.7731 135.0
59.7878 135.0
59.8026 150.0
59.8174 127.0
59.8322 145.0
59.8469 117.0
59.8617 134.0
59.8765 121.0
59.8913 113.0
59.906 146.0
59.9208 125.0
59.9356 127.0
59.9503 137.0
59.9651 120.0
59.9799 129.0
59.9947 131.0
60.0094 131.0
60.0242 133.0
60.039 129.0
60.0537 152.0
60.0685 144.0
60.0833 116.0
60.0981 138.0
60.1128 143.0
60.1276 142.0
60.1424 131.0
60.1571 154.0
60.1719 140.0
60.1867 118.0
60.2015 138.0
60.2162 146.0
60.231 157.0
60.2458 143.0
60.2605 140.0
60.2753 150.0
60.2901 145.0
60.3049 159.0
60.3196 160.0
60.3344 156.0
60.3492 164.0
60.3639 135.0
60.3787 159.0
60.3935 137.0
60.4083 177.0
60.423 154.0
60.4378 149.0
60.4526 126.0
60.4673 186.0
60.4821 159.0
60.4969 145.0
60.5117 135.0
60.5264 146.0
60.5412 143.0
60.556 144.0
60.5707 133.0
60.5855 148.0
60.6003 130.0
60.6151 134.0
60.6298 145.0
60.6446 142.0
60.6594 140.0
60.6741 152.0
60.6889 162.0
60.7037 150.0
60.7185 175.0
60.7332 198.0
60.748 190.0
60.7628 226.0
60.7775 366.0
60.7923 439.0
60.8071 675.0
60.8219 948.0
60.8366 1210.0
60.8514 1294.0
60.8662 1186.0
60.8809 1009.0
60.8957 945.0
60.9105 857.0
60.9253 685.0
60.94 609.0
60.9548 461.0
60.9696 332.0
60.9843 307.0
60.9991 221.0
61.0139 182.0
61.0287 219.0
61.0434 198.0
61.0582 159.0
61.073 173.0
61.0877 179.0
61.1025 171.0
61.1173 170.0
61.1321 161.0
61.1468 176.0
61.1616 142.0
61.1764 170.0
61.1911 165.0
61.2059 152.0
61.2207 149.0
61.2355 146.0
61.2502 154.0
61.265 149.0
61.2798 125.0
61.2945 134.0
61.3093 165.0
61.3241 146.0
61.3389 141.0
61.3536 157.0
61.3684 155.0
61.3832 142.0
61.398 124.0
61.4127 128.0
61.4275 137.0
61.4423 152.0
61.457 140.0
61.4718 163.0
61.4866 158.0
61.5014 141.0
61.5161 136.0
61.5309 146.0
61.5457 150.0
61.5604 146.0
61.5752 140.0
61.59 148.0
61.6048 153.0
61.6195 144.0
61.6343 146.0
61.6491 145.0
61.6638 142.0
61.6786 123.0
61.6934 144.0
61.7082 141.0
61.7229 131.0
61.7377 158.0
61.7525 121.0
61.7672 140.0
61.782 150.0
61.7968 146.0
61.8116 154.0
61.8263 142.0
61.8411 156.0
61.8559 149.0
61.8706 132.0
61.8854 127.0
61.9002 145.0
61.915 169.0
61.9297 131.0
61.9445 144.0
61.9593 123.0
61.974 156.0
61.9888 129.0
62.0036 134.0
62.0184 132.0
62.0331 135.0
62.0479 155.0
62.0627 141.0
62.0774 148.0
62.0922 138.0
62.107 147.0
62.1218 134.0
62.1365 123.0
62.1513 133.0
62.1661 147.0
62.1808 130.0
62.1956 132.0
62.2104 147.0
62.2252 126.0
62.2399 157.0
62.2547 150.0
62.2695 156.0
62.2842 136.0
62.299 127.0
62.3138 131.0
62.3286 133.0
62.3433 143.0
62.3581 119.0
62.3729 155.0
62.3876 160.0
62.4024 150.0
62.4172 139.0
62.432 166.0
62.4467 141.0
62.4615 141.0
62.4763 165.0
62.491 143.0
62.5058 138.0
62.5206 144.0
62.5354 138.0
62.5501 172.0
62.5649 152.0
62.5797 138.0
62.5944 160.0
62.6092 131.0
62.624 156.0
62.6388 163.0
62.6535 147.0
62.6683 159.0
62.6831 136.0
62.6978 156.0
62.7126 150.0
62.7274 118.0
62.7422 131.0
62.7569 127.0
62.7717 159.0
62.7865 134.0
62.8012 151.0
62.816 145.0
62.8308 132.0
62.8456 138.0
62.8603 142.0
62.8751 150.0
62.8899 136.0
62.9047 136.0
62.9194 146.0
62.9342 145.0
62.949 144.0
62.9637 134.0
62.9785 140.0
62.9933 147.0
63.0081 132.0
63.0228 124.0
63.0376 113.0
63.0524 163.0
63.0671 135.0
63.0819 148.0
63.0967 146.0
63.1115 142.0
63.1262 136.0
63.141 148.0
63.1558 148.0
63.1705 148.0
63.1853 138.0
63.2001 170.0
63.2149 143.0
63.2296 122.0
63.2444 141.0
63.2592 128.0
63.2739 176.0
63.2887 134.0
63.3035 124.0
63.3183 155.0
63.333 156.0
63.3478 155.0
63.3626 132.0
63.3773 159.0
63.3921 167.0
63.4069 143.0
63.4217 147.0
63.4364 161.0
63.4512 160.0
63.466 139.0
63.4807 151.0
63.4955 129.0
63.5103 166.0
63.5251 161.0
63.5398 152.0
63.5546 140.0
63.5694 135.0
63.5841 165.0
63.5989 138.0
63.6137 144.0
63.6285 151.0
63.6432 141.0
63.658 127.0
63.6728 138.0
63.6875 169.0
63.7023 173.0
63.7171 171.0
63.7319 172.0
63.7466 138.0
63.7614 135.0
63.7762 162.0
63.7909 176.0
63.8057 171.0
63.8205 160.0
63.8353 164.0
63.85 160.0
63.8648 151.0
63.8796 165.0
63.8943 154.0
63.9091 158.0
63.9239 151.0
63.9387 161.0
63.9534 179.0
63.9682 175.0
63.983 157.0
63.9977 167.0
64.0125 183.0
64.0273 171.0
64.0421 169.0
64.0568 166.0
64.0716 169.0
64.0864 177.0
64.1011 183.0
64.1159 148.0
64.1307 164.0
64.1455 192.0
64.1602 184.0
64.175 166.0
64.1898 174.0
64.2045 185.0
64.2193 188.0
64.2341 193.0
64.2489 182.0
64.2636 169.0
64.2784 217.0
64.2932 214.0
64.3079 206.0
64.3227 211.0
64.3375 220.0
64.3523 207.0
64.367 187.0
64.3818 214.0
64.3966 261.0
64.4114 235.0
64.4261 229.0
64.4409 213.0
64.4557 232.0
64.4704 233.0
64.4852 213.0
64.5 233.0
64.5148 258.0
64.5295 242.0
64.5443 285.0
64.5591 268.0
64.5738 309.0
64.5886 294.0
64.6034 294.0
64.6182 329.0
64.6329 325.0
64.6477 348.0
64.6625 385.0
64.6772 386.0
64.692 396.0
64.7068 381.0
64.7216 374.0
64.7363 454.0
64.7511 483.0
64.7659 484.0
64.7806 490.0
64.7954 483.0
64.8102 585.0
64.825 518.0
64.8397 553.0
64.8545 574.0
64.8693 607.0
64.884 642.0
64.8988 591.0
64.9136 664.0
64.9284 667.0
64.9431 675.0
64.9579 731.0
64.9727 681.0
64.9874 714.0
65.0022 710.0
65.017 741.0
65.0318 729.0
65.0465 739.0
65.0613 793.0
65.0761 791.0
65.0908 739.0
65.1056 729.0
65.1204 737.0
65.1352 736.0
65.1499 685.0
65.1647 724.0
65.1795 675.0
65.1942 624.0
65.209 642.0
65.2238 608.0
65.2386 608.0
65.2533 633.0
65.2681 580.0
65.2829 550.0
65.2976 569.0
65.3124 479.0
65.3272 450.0
65.342 460.0
65.3567 447.0
65.3715 423.0
65.3863 432.0
65.401 414.0
65.4158 378.0
65.4306 403.0
65.4454 350.0
65.4601 355.0
65.4749 352.0
65.4897 344.0
65.5044 342.0
65.5192 331.0
65.534 300.0
65.5488 322.0
65.5635 267.0
65.5783 299.0
65.5931 276.0
65.6078 264.0
65.6226 280.0
65.6374 268.0
65.6522 279.0
65.6669 255.0
65.6817 264.0
65.6965 262.0
65.7112 264.0
65.726 222.0
65.7408 241.0
65.7556 261.0
65.7703 216.0
65.7851 235.0
65.7999 270.0
65.8146 243.0
65.8294 232.0
65.8442 233.0
65.859 257.0
65.8737 223.0
65.8885 227.0
65.9033 221.0
65.9181 235.0
65.9328 223.0
65.9476 198.0
65.9624 225.0
65.9771 201.0
65.9919 230.0
66.0067 237.0
66.0215 232.0
66.0362 219.0
66.051 226.0
66.0658 263.0
66.0805 228.0
66.0953 258.0
66.1101 256.0
66.1249 260.0
66.1396 270.0
66.1544 227.0
66.1692 232.0
66.1839 210.0
66.1987 261.0
66.2135 259.0
66.2283 255.0
66.243 237.0
66.2578 279.0
66.2726 279.0
66.2873 270.0
66.3021 228.0
66.3169 255.0
66.3317 233.0
66.3464 279.0
66.3612 282.0
66.376 225.0
66.3907 298.0
66.4055 273.0
66.4203 292.0
66.4351 306.0
66.4498 286.0
66.4646 310.0
66.4794 321.0
66.4941 304.0
66.5089 310.0
66.5237 335.0
66.5385 315.0
66.5532 324.0
66.568 342.0
66.5828 320.0
66.5975 347.0
66.6123 337.0
66.6271 331.0
66.6419 363.0
66.6566 351.0
66.6714 356.0
66.6862 354.0
66.7009 358.0
66.7157 350.0
66.7305 359.0
66.7453 361.0
66.76 350.0
66.7748 350.0
66.7896 356.0
66.8043 335.0
66.8191 399.0
66.8339 377.0
66.8487 416.0
66.8634 393.0
66.8782 406.0
66.893 376.0
66.9077 405.0
66.9225 496.0
66.9373 430.0
66.9521 403.0
66.9668 440.0
66.9816 445.0
66.9964 425.0
67.0111 427.0
67.0259 439.0
67.0407 432.0
67.0555 480.0
67.0702 428.0
67.085 443.0
67.0998 505.0
67.1145 435.0
67.1293 507.0
67.1441 473.0
67.1589 484.0
67.1736 514.0
67.1884 497.0
67.2032 550.0
67.2179 516.0
67.2327 574.0
67.2475 545.0
67.2623 545.0
67.277 537.0
67.2918 555.0
67.3066 575.0
67.3213 591.0
67.3361 578.0
67.3509 636.0
67.3657 614.0
67.3804 647.0
67.3952 625.0
67.41 665.0
67.4248 671.0
67.4395 693.0
67.4543 706.0
67.4691 714.0
67.4838 745.0
67.4986 753.0
67.5134 763.0
67.5282 813.0
67.5429 804.0
67.5577 843.0
67.5725 901.0
67.5872 826.0
67.602 856.0
67.6168 922.0
67.6316 991.0
67.6463 925.0
67.6611 1070.0
67.6759 1039.0
67.6906 1143.0
67.7054 1309.0
67.7202 1284.0
67.735 1504.0
67.7497 1740.0
67.7645 1948.0
67.7793 2240.0
67.794 2534.0
67.8088 2845.0
67.8236 3145.0
67.8384 3334.0
67.8531 3445.0
67.8679 3369.0
67.8827 3307.0
67.8974 3314.0
67.9122 3113.0
67.927 3283.0
67.9418 3416.0
67.9565 3642.0
67.9713 3845.0
67.9861 4277.0
68.0008 4933.0
68.0156 5778.0
68.0304 6900.0
68.0452 8180.0
68.0599 11048.0
68.0747 13787.0
68.0895 20897.0
68.1042 30642.0
68.119 62009.0
68.1338 134481.0
68.1486 272392.0
68.1633 310258.0
68.1781 306814.0
68.1929 231091.0
68.2076 98029.0
68.2224 57095.0
68.2372 29605.0
68.252 22030.0
68.2667 17583.0
68.2815 17506.0
68.2963 22805.0
68.311 36244.0
68.3258 74483.0
68.3406 127182.0
68.3554 153801.0
68.3701 151240.0
68.3849 113012.0
68.3997 60345.0
68.4144 30582.0
68.4292 17882.0
68.444 11547.0
68.4588 8602.0
68.4735 6580.0
68.4883 5521.0
68.5031 4648.0
68.5178 4182.0
68.5326 3656.0
68.5474 3273.0
68.5622 3018.0
68.5769 2728.0
68.5917 2532.0
68.6065 2356.0
68.6212 2163.0
68.636 1948.0
68.6508 1851.0
68.6656 1811.0
68.6803 1680.0
68.6951 1555.0
68.7099 1437.0
68.7246 1457.0
68.7394 1380.0
68.7542 1265.0
68.769 1261.0
68.7837 1185.0
68.7985 1121.0
68.8133 1044.0
68.828 1051.0
68.8428 1015.0
68.8576 930.0
68.8724 919.0
68.8871 871.0
68.9019 843.0
68.9167 804.0
68.9315 765.0
68.9462 767.0
68.961 762.0
68.9758 713.0
68.9905 744.0
69.0053 772.0
69.0201 700.0
69.0349 646.0
69.0496 632.0
69.0644 633.0
69.0792 618.0
69.0939 565.0
69.1087 600.0
69.1235 600.0
69.1383 623.0
69.153 568.0
69.1678 535.0
69.1826 539.0
69.1973 542.0
69.2121 505.0
69.2269 505.0
69.2417 486.0
69.2564 509.0
69.2712 463.0
69.286 484.0
69.3007 477.0
69.3155 434.0
69.3303 416.0
69.3451 433.0
69.3598 383.0
69.3746 425.0
69.3894 420.0
69.4041 389.0
69.4189 369.0
69.4337 372.0
69.4485 392.0
69.4632 399.0
69.478 320.0
69.4928 310.0
69.5075 346.0
69.5223 320.0
69.5371 349.0
69.5519 341.0
69.5666 337.0
69.5814 285.0
69.5962 268.0
69.6109 330.0
69.6257 311.0
69.6405 300.0
69.6553 258.0
69.67 297.0
69.6848 292.0
69.6996 276.0
69.7143 268.0
69.7291 290.0
69.7439 268.0
69.7587 231.0
69.7734 280.0
69.7882 271.0
69.803 276.0
69.8177 222.0
69.8325 260.0
69.8473 234.0
69.8621 233.0
69.8768 228.0
69.8916 230.0
69.9064 262.0
69.9211 216.0
69.9359 232.0
69.9507 261.0
69.9655 222.0
69.9802 233.0
69.995 233.0
70.0098 210.0
70.0245 202.0
70.0393 213.0
70.0541 228.0
70.0689 235.0
70.0836 214.0
70.0984 187.0
70.1132 191.0
70.1279 214.0
70.1427 200.0
70.1575 188.0
70.1723 222.0
70.187 193.0
70.2018 211.0
70.2166 224.0
70.2313 202.0
70.2461 219.0
70.2609 204.0
70.2757 187.0
70.2904 200.0
70.3052 216.0
70.32 193.0
70.3347 219.0
70.3495 200.0
70.3643 212.0
70.3791 178.0
70.3938 185.0
70.4086 174.0
70.4234 192.0
70.4382 167.0
70.4529 177.0
70.4677 186.0
70.4825 183.0
70.4972 215.0
70.512 174.0
70.5268 174.0
70.5416 189.0
70.5563 192.0
70.5711 188.0
70.5859 150.0
70.6006 197.0
70.6154 170.0
70.6302 193.0
70.645 173.0
70.6597 196.0
70.6745 180.0
70.6893 209.0
70.704 184.0
70.7188 216.0
70.7336 162.0
70.7484 183.0
70.7631 188.0
70.7779 165.0
70.7927 190.0
70.8074 191.0
70.8222 181.0
70.837 180.0
70.8518 167.0
70.8665 175.0
70.8813 180.0
70.8961 168.0
70.9108 155.0
70.9256 183.0
70.9404 173.0
70.9552 165.0
70.9699 166.0
70.9847 155.0
70.9995 182.0
71.0142 169.0
71.029 156.0
71.0438 152.0
71.0586 187.0
71.0733 167.0
71.0881 160.0
71.1029 170.0
71.1176 184.0
71.1324 176.0
71.1472 177.0
71.162 160.0
71.1767 186.0
71.1915 164.0
71.2063 154.0
71.221 195.0
71.2358 141.0
71.2506 172.0
71.2654 179.0
71.2801 185.0
71.2949 180.0
71.3097 165.0
71.3244 157.0
71.3392 184.0
71.354 164.0
71.3688 178.0
71.3835 196.0
71.3983 143.0
71.4131 175.0
71.4278 157.0
71.4426 160.0
71.4574 184.0
71.4722 146.0
71.4869 172.0
71.5017 154.0
71.5165 168.0
71.5312 173.0
71.546 167.0
71.5608 181.0
71.5756 157.0
71.5903 143.0
71.6051 167.0
71.6199 162.0
71.6346 170.0
71.6494 149.0
71.6642 160.0
71.679 153.0
71.6937 171.0
71.7085 160.0
71.7233 159.0
71.738 147.0
71.7528 172.0
71.7676 153.0
71.7824 148.0
71.7971 151.0
71.8119 139.0
71.8267 164.0
71.8414 142.0
71.8562 189.0
71.871 169.0
71.8858 161.0
71.9005 185.0
71.9153 139.0
71.9301 152.0
71.9449 153.0
71.9596 151.0
71.9744 178.0
71.9892 141.0
72.0039 172.0
72.0187 165.0
72.0335 155.0
72.0483 152.0
72.063 159.0
72.0778 151.0
72.0926 159.0
72.1073 145.0
72.1221 161.0
72.1369 164.0
72.1517 174.0
72.1664 153.0
72.1812 144.0
72.196 154.0
72.2107 141.0
72.2255 152.0
72.2403 155.0
72.2551 162.0
72.2698 146.0
72.2846 124.0
72.2994 168.0
72.3141 154.0
72.3289 179.0
72.3437 144.0
72.3585 148.0
72.3732 133.0
72.388 152.0
72.4028 165.0
72.4175 152.0
72.4323 152.0
72.4471 160.0
72.4619 152.0
72.4766 162.0
72.4914 154.0
72.5062 170.0
72.5209 143.0
72.5357 134.0
72.5505 156.0
72.5653 165.0
72.58 143.0
72.5948 171.0
72.6096 178.0
72.6243 150.0
72.6391 149.0
72.6539 150.0
72.6687 187.0
72.6834 172.0
72.6982 153.0
72.713 147.0
72.7277 124.0
72.7425 144.0
72.7573 173.0
72.7721 128.0
72.7868 151.0
72.8016 130.0
72.8164 164.0
72.8311 170.0
72.8459 170.0
72.8607 149.0
72.8755 150.0
72.8902 169.0
72.905 140.0
72.9198 137.0
72.9345 148.0
72.9493 178.0
72.9641 121.0
72.9789 157.0
72.9936 169.0
73.0084 142.0
73.0232 158.0
73.0379 151.0
73.0527 141.0
73.0675 147.0
73.0823 131.0
73.097 147.0
73.1118 157.0
73.1266 138.0
73.1413 144.0
73.1561 135.0
73.1709 130.0
73.1857 150.0
73.2004 122.0
73.2152 164.0
73.23 130.0
73.2447 154.0
73.2595 158.0
73.2743 153.0
73.2891 146.0
73.3038 126.0
73.3186 121.0
73.3334 143.0
73.3481 158.0
73.3629 171.0
73.3777 148.0
73.3925 169.0
73.4072 157.0
73.422 145.0
73.4368 130.0
73.4516 132.0
73.4663 139.0
73.4811 121.0
73.4959 168.0
73.5106 138.0
73.5254 141.0
73.5402 158.0
73.555 142.0
73.5697 160.0
73.5845 140.0
73.5993 135.0
73.614 157.0
73.6288 117.0
73.6436 139.0
73.6584 133.0
73.6731 139.0
73.6879 154.0
73.7027 131.0
73.7174 142.0
73.7322 149.0
73.747 140.0
73.7618 158.0
73.7765 149.0
73.7913 154.0
73.8061 152.0
73.8208 152.0
73.8356 149.0
73.8504 153.0
73.8652 156.0
73.8799 152.0
73.8947 146.0
73.9095 147.0
73.9242 134.0
73.939 153.0
73.9538 147.0
73.9686 138.0
73.9833 163.0
73.9981 158.0
74.0129 160.0
74.0276 153.0
74.0424 139.0
74.0572 132.0
74.072 151.0
74.0867 173.0
74.1015 153.0
74.1163 144.0
74.131 143.0
74.1458 144.0
74.1606 148.0
74.1754 148.0
74.1901 135.0
74.2049 144.0
74.2197 141.0
74.2344 132.0
74.2492 158.0
74.264 178.0
74.2788 128.0
74.2935 152.0
74.3083 147.0
74.3231 165.0
74.3378 135.0
74.3526 116.0
74.3674 148.0
74.3822 148.0
74.3969 133.0
74.4117 149.0
74.4265 170.0
74.4412 139.0
74.456 164.0
74.4708 137.0
74.4856 149.0
74.5003 151.0
74.5151 147.0
74.5299 135.0
74.5446 172.0
74.5594 134.0
74.5742 159.0
74.589 148.0
74.6037 124.0
74.6185 147.0
74.6333 137.0
74.648 152.0
74.6628 145.0
74.6776 154.0
74.6924 147.0
74.7071 152.0
74.7219 155.0
74.7367 157.0
74.7514 150.0
74.7662 149.0
74.781 140.0
74.7958 143.0
74.8105 159.0
74.8253 159.0
74.8401 152.0
74.8548 168.0
74.8696 159.0
74.8844 172.0
74.8992 141.0
74.9139 128.0
74.9287 143.0
74.9435 160.0
74.9583 142.0
74.973 154.0
74.9878 149.0
74.9976 148.0