File: data/W6902a/XRD_2ThetaOmega/scan_2th-om_a_Cr2O3_30-40deg_PIXscan_4min_4.xy
30.0025 101.0
30.0123 117.0
30.0222 113.0
30.032 115.0
30.0419 100.0
30.0517 122.0
30.0615 121.0
30.0714 113.0
30.0812 104.0
30.0911 127.0
30.1009 100.0
30.1108 111.0
30.1206 112.0
30.1305 119.0
30.1403 113.0
30.1502 112.0
30.16 119.0
30.1699 114.0
30.1797 97.0
30.1896 107.0
30.1994 112.0
30.2093 98.0
30.2191 102.0
30.229 105.0
30.2388 110.0
30.2487 94.0
30.2585 116.0
30.2684 101.0
30.2782 116.0
30.288 112.0
30.2979 114.0
30.3077 102.0
30.3176 103.0
30.3274 122.0
30.3373 113.0
30.3471 116.0
30.357 93.0
30.3668 107.0
30.3767 113.0
30.3865 100.0
30.3964 100.0
30.4062 105.0
30.4161 115.0
30.4259 111.0
30.4358 94.0
30.4456 104.0
30.4555 119.0
30.4653 116.0
30.4752 106.0
30.485 104.0
30.4948 112.0
30.5047 109.0
30.5145 114.0
30.5244 116.0
30.5342 107.0
30.5441 107.0
30.5539 88.0
30.5638 115.0
30.5736 106.0
30.5835 115.0
30.5933 108.0
30.6032 118.0
30.613 108.0
30.6229 135.0
30.6327 127.0
30.6426 115.0
30.6524 123.0
30.6623 112.0
30.6721 112.0
30.682 124.0
30.6918 100.0
30.7016 124.0
30.7115 113.0
30.7213 104.0
30.7312 99.0
30.741 105.0
30.7509 107.0
30.7607 103.0
30.7706 110.0
30.7804 108.0
30.7903 100.0
30.8001 97.0
30.81 111.0
30.8198 114.0
30.8297 118.0
30.8395 104.0
30.8494 110.0
30.8592 98.0
30.8691 112.0
30.8789 107.0
30.8888 108.0
30.8986 99.0
30.9085 102.0
30.9183 110.0
30.9281 108.0
30.938 111.0
30.9478 108.0
30.9577 108.0
30.9675 115.0
30.9774 96.0
30.9872 108.0
30.9971 121.0
31.0069 92.0
31.0168 94.0
31.0266 107.0
31.0365 101.0
31.0463 112.0
31.0562 119.0
31.066 107.0
31.0759 104.0
31.0857 90.0
31.0956 122.0
31.1054 114.0
31.1153 110.0
31.1251 101.0
31.1349 110.0
31.1448 105.0
31.1546 111.0
31.1645 97.0
31.1743 127.0
31.1842 102.0
31.194 106.0
31.2039 103.0
31.2137 98.0
31.2236 103.0
31.2334 97.0
31.2433 107.0
31.2531 112.0
31.263 110.0
31.2728 109.0
31.2827 108.0
31.2925 131.0
31.3024 105.0
31.3122 108.0
31.3221 98.0
31.3319 105.0
31.3418 97.0
31.3516 123.0
31.3614 114.0
31.3713 113.0
31.3811 106.0
31.391 115.0
31.4008 96.0
31.4107 109.0
31.4205 124.0
31.4304 102.0
31.4402 109.0
31.4501 109.0
31.4599 97.0
31.4698 96.0
31.4796 102.0
31.4895 120.0
31.4993 109.0
31.5092 115.0
31.519 140.0
31.5289 103.0
31.5387 103.0
31.5486 103.0
31.5584 119.0
31.5682 118.0
31.5781 107.0
31.5879 107.0
31.5978 128.0
31.6076 114.0
31.6175 111.0
31.6273 104.0
31.6372 118.0
31.647 102.0
31.6569 105.0
31.6667 100.0
31.6766 114.0
31.6864 122.0
31.6963 121.0
31.7061 113.0
31.716 116.0
31.7258 100.0
31.7357 110.0
31.7455 109.0
31.7554 133.0
31.7652 114.0
31.7751 121.0
31.7849 123.0
31.7947 114.0
31.8046 100.0
31.8144 115.0
31.8243 125.0
31.8341 106.0
31.844 121.0
31.8538 115.0
31.8637 101.0
31.8735 119.0
31.8834 126.0
31.8932 120.0
31.9031 99.0
31.9129 98.0
31.9228 97.0
31.9326 135.0
31.9425 110.0
31.9523 103.0
31.9622 111.0
31.972 111.0
31.9819 109.0
31.9917 107.0
32.0015 101.0
32.0114 119.0
32.0212 109.0
32.0311 112.0
32.0409 109.0
32.0508 125.0
32.0606 102.0
32.0705 107.0
32.0803 104.0
32.0902 116.0
32.1 113.0
32.1099 92.0
32.1197 95.0
32.1296 106.0
32.1394 115.0
32.1493 111.0
32.1591 111.0
32.169 109.0
32.1788 114.0
32.1887 120.0
32.1985 134.0
32.2083 126.0
32.2182 105.0
32.228 125.0
32.2379 125.0
32.2477 138.0
32.2576 116.0
32.2674 102.0
32.2773 140.0
32.2871 140.0
32.297 145.0
32.3068 135.0
32.3167 163.0
32.3265 169.0
32.3364 155.0
32.3462 175.0
32.3561 177.0
32.3659 146.0
32.3758 189.0
32.3856 159.0
32.3955 182.0
32.4053 139.0
32.4152 153.0
32.425 147.0
32.4348 140.0
32.4447 139.0
32.4545 129.0
32.4644 147.0
32.4742 144.0
32.4841 125.0
32.4939 123.0
32.5038 106.0
32.5136 112.0
32.5235 116.0
32.5333 119.0
32.5432 122.0
32.553 118.0
32.5629 133.0
32.5727 112.0
32.5826 123.0
32.5924 108.0
32.6023 111.0
32.6121 116.0
32.622 126.0
32.6318 130.0
32.6416 118.0
32.6515 105.0
32.6613 125.0
32.6712 105.0
32.681 112.0
32.6909 119.0
32.7007 113.0
32.7106 91.0
32.7204 118.0
32.7303 104.0
32.7401 127.0
32.75 125.0
32.7598 108.0
32.7697 116.0
32.7795 111.0
32.7894 113.0
32.7992 106.0
32.8091 100.0
32.8189 122.0
32.8288 114.0
32.8386 111.0
32.8485 119.0
32.8583 114.0
32.8681 113.0
32.878 121.0
32.8878 101.0
32.8977 110.0
32.9075 118.0
32.9174 107.0
32.9272 113.0
32.9371 117.0
32.9469 95.0
32.9568 108.0
32.9666 108.0
32.9765 104.0
32.9863 109.0
32.9962 131.0
33.006 135.0
33.0159 101.0
33.0257 102.0
33.0356 113.0
33.0454 131.0
33.0553 128.0
33.0651 103.0
33.0749 112.0
33.0848 115.0
33.0946 106.0
33.1045 116.0
33.1143 102.0
33.1242 103.0
33.134 120.0
33.1439 120.0
33.1537 129.0
33.1636 110.0
33.1734 105.0
33.1833 119.0
33.1931 98.0
33.203 113.0
33.2128 113.0
33.2227 129.0
33.2325 128.0
33.2424 98.0
33.2522 119.0
33.2621 105.0
33.2719 116.0
33.2818 112.0
33.2916 123.0
33.3014 115.0
33.3113 115.0
33.3211 110.0
33.331 118.0
33.3408 127.0
33.3507 118.0
33.3605 113.0
33.3704 118.0
33.3802 112.0
33.3901 120.0
33.3999 123.0
33.4098 107.0
33.4196 129.0
33.4295 91.0
33.4393 115.0
33.4492 103.0
33.459 114.0
33.4689 109.0
33.4787 128.0
33.4886 119.0
33.4984 103.0
33.5082 121.0
33.5181 124.0
33.5279 105.0
33.5378 119.0
33.5476 108.0
33.5575 122.0
33.5673 106.0
33.5772 100.0
33.587 122.0
33.5969 129.0
33.6067 102.0
33.6166 120.0
33.6264 101.0
33.6363 116.0
33.6461 118.0
33.656 105.0
33.6658 140.0
33.6757 145.0
33.6855 135.0
33.6954 120.0
33.7052 132.0
33.715 159.0
33.7249 120.0
33.7347 133.0
33.7446 127.0
33.7544 125.0
33.7643 134.0
33.7741 115.0
33.784 123.0
33.7938 112.0
33.8037 140.0
33.8135 115.0
33.8234 132.0
33.8332 154.0
33.8431 148.0
33.8529 160.0
33.8628 217.0
33.8726 344.0
33.8825 508.0
33.8923 862.0
33.9022 1199.0
33.912 1392.0
33.9219 1369.0
33.9317 1216.0
33.9415 860.0
33.9514 624.0
33.9612 367.0
33.9711 313.0
33.9809 220.0
33.9908 197.0
34.0006 172.0
34.0105 161.0
34.0203 147.0
34.0302 138.0
34.04 134.0
34.0499 153.0
34.0597 136.0
34.0696 155.0
34.0794 137.0
34.0893 159.0
34.0991 133.0
34.109 132.0
34.1188 120.0
34.1287 162.0
34.1385 140.0
34.1483 122.0
34.1582 150.0
34.168 116.0
34.1779 143.0
34.1877 127.0
34.1976 142.0
34.2074 116.0
34.2173 147.0
34.2271 148.0
34.237 139.0
34.2468 123.0
34.2567 152.0
34.2665 137.0
34.2764 127.0
34.2862 132.0
34.2961 144.0
34.3059 129.0
34.3158 133.0
34.3256 134.0
34.3355 135.0
34.3453 150.0
34.3552 142.0
34.365 122.0
34.3748 133.0
34.3847 144.0
34.3945 138.0
34.4044 132.0
34.4142 122.0
34.4241 147.0
34.4339 151.0
34.4438 119.0
34.4536 132.0
34.4635 136.0
34.4733 143.0
34.4832 144.0
34.493 124.0
34.5029 128.0
34.5127 160.0
34.5226 142.0
34.5324 124.0
34.5423 148.0
34.5521 138.0
34.562 132.0
34.5718 124.0
34.5816 152.0
34.5915 140.0
34.6013 162.0
34.6112 128.0
34.621 129.0
34.6309 142.0
34.6407 159.0
34.6506 139.0
34.6604 131.0
34.6703 156.0
34.6801 171.0
34.69 115.0
34.6998 137.0
34.7097 148.0
34.7195 126.0
34.7294 128.0
34.7392 139.0
34.7491 160.0
34.7589 166.0
34.7688 128.0
34.7786 149.0
34.7884 160.0
34.7983 133.0
34.8081 152.0
34.818 139.0
34.8278 138.0
34.8377 150.0
34.8475 156.0
34.8574 158.0
34.8672 166.0
34.8771 154.0
34.8869 151.0
34.8968 163.0
34.9066 158.0
34.9165 156.0
34.9263 157.0
34.9362 169.0
34.946 149.0
34.9559 173.0
34.9657 162.0
34.9756 166.0
34.9854 165.0
34.9953 152.0
35.0051 171.0
35.0149 165.0
35.0248 179.0
35.0346 154.0
35.0445 167.0
35.0543 151.0
35.0642 175.0
35.074 158.0
35.0839 157.0
35.0937 172.0
35.1036 189.0
35.1134 173.0
35.1233 182.0
35.1331 164.0
35.143 166.0
35.1528 177.0
35.1627 204.0
35.1725 173.0
35.1824 176.0
35.1922 190.0
35.2021 203.0
35.2119 191.0
35.2217 183.0
35.2316 206.0
35.2414 200.0
35.2513 183.0
35.2611 191.0
35.271 211.0
35.2808 228.0
35.2907 191.0
35.3005 207.0
35.3104 206.0
35.3202 235.0
35.3301 234.0
35.3399 261.0
35.3498 235.0
35.3596 232.0
35.3695 224.0
35.3793 226.0
35.3892 235.0
35.399 269.0
35.4089 260.0
35.4187 287.0
35.4286 301.0
35.4384 272.0
35.4482 297.0
35.4581 298.0
35.4679 259.0
35.4778 286.0
35.4876 266.0
35.4975 350.0
35.5073 328.0
35.5172 320.0
35.527 292.0
35.5369 355.0
35.5467 369.0
35.5566 412.0
35.5664 403.0
35.5763 384.0
35.5861 418.0
35.596 415.0
35.6058 424.0
35.6157 508.0
35.6255 454.0
35.6354 533.0
35.6452 582.0
35.655 593.0
35.6649 632.0
35.6747 698.0
35.6846 743.0
35.6944 773.0
35.7043 851.0
35.7141 894.0
35.724 902.0
35.7338 1011.0
35.7437 1185.0
35.7535 1316.0
35.7634 1419.0
35.7732 1516.0
35.7831 1759.0
35.7929 1979.0
35.8028 2336.0
35.8126 2543.0
35.8225 3055.0
35.8323 3779.0
35.8422 4279.0
35.852 5304.0
35.8619 6451.0
35.8717 7360.0
35.8815 8999.0
35.8914 10037.0
35.9012 11241.0
35.9111 12490.0
35.9209 13726.0
35.9308 14581.0
35.9406 15028.0
35.9505 15232.0
35.9603 15554.0
35.9702 15389.0
35.98 14985.0
35.9899 14716.0
35.9997 13862.0
36.0096 13306.0
36.0194 12573.0
36.0293 11711.0
36.0391 10855.0
36.049 9999.0
36.0588 9091.0
36.0687 8394.0
36.0785 7485.0
36.0883 6656.0
36.0982 6017.0
36.108 5070.0
36.1179 4507.0
36.1277 3950.0
36.1376 3305.0
36.1474 2903.0
36.1573 2522.0
36.1671 2324.0
36.177 2092.0
36.1868 1954.0
36.1967 1788.0
36.2065 1665.0
36.2164 1530.0
36.2262 1413.0
36.2361 1291.0
36.2459 1156.0
36.2558 1126.0
36.2656 1014.0
36.2755 966.0
36.2853 874.0
36.2951 819.0
36.305 847.0
36.3148 713.0
36.3247 757.0
36.3345 728.0
36.3444 694.0
36.3542 676.0
36.3641 583.0
36.3739 569.0
36.3838 562.0
36.3936 544.0
36.4035 563.0
36.4133 513.0
36.4232 493.0
36.433 493.0
36.4429 478.0
36.4527 474.0
36.4626 426.0
36.4724 402.0
36.4823 431.0
36.4921 412.0
36.502 430.0
36.5118 399.0
36.5216 418.0
36.5315 393.0
36.5413 396.0
36.5512 378.0
36.561 394.0
36.5709 413.0
36.5807 388.0
36.5906 372.0
36.6004 363.0
36.6103 361.0
36.6201 387.0
36.63 406.0
36.6398 350.0
36.6497 378.0
36.6595 361.0
36.6694 360.0
36.6792 364.0
36.6891 357.0
36.6989 343.0
36.7088 347.0
36.7186 355.0
36.7284 365.0
36.7383 353.0
36.7481 433.0
36.758 406.0
36.7678 401.0
36.7777 355.0
36.7875 382.0
36.7974 401.0
36.8072 407.0
36.8171 375.0
36.8269 440.0
36.8368 429.0
36.8466 408.0
36.8565 396.0
36.8663 444.0
36.8762 422.0
36.886 400.0
36.8959 447.0
36.9057 412.0
36.9156 424.0
36.9254 479.0
36.9353 494.0
36.9451 454.0
36.9549 468.0
36.9648 443.0
36.9746 424.0
36.9845 458.0
36.9943 476.0
37.0042 489.0
37.014 530.0
37.0239 511.0
37.0337 489.0
37.0436 508.0
37.0534 524.0
37.0633 502.0
37.0731 518.0
37.083 522.0
37.0928 537.0
37.1027 557.0
37.1125 526.0
37.1224 542.0
37.1322 559.0
37.1421 569.0
37.1519 630.0
37.1617 648.0
37.1716 576.0
37.1814 602.0
37.1913 594.0
37.2011 669.0
37.211 610.0
37.2208 674.0
37.2307 690.0
37.2405 679.0
37.2504 761.0
37.2602 804.0
37.2701 776.0
37.2799 832.0
37.2898 802.0
37.2996 905.0
37.3095 873.0
37.3193 877.0
37.3292 861.0
37.339 922.0
37.3489 973.0
37.3587 998.0
37.3686 1016.0
37.3784 1087.0
37.3882 1119.0
37.3981 1201.0
37.4079 1181.0
37.4178 1333.0
37.4276 1377.0
37.4375 1566.0
37.4473 1731.0
37.4572 1982.0
37.467 2341.0
37.4769 2837.0
37.4867 3376.0
37.4966 3811.0
37.5064 4185.0
37.5163 4282.0
37.5261 4324.0
37.536 4403.0
37.5458 4338.0
37.5557 4403.0
37.5655 4978.0
37.5754 5475.0
37.5852 6484.0
37.595 8015.0
37.6049 10837.0
37.6147 15194.0
37.6246 23958.0
37.6344 46489.0
37.6443 121139.0
37.6541 236871.0
37.664 295360.0
37.6738 309014.0
37.6837 301826.0
37.6935 249401.0
37.7034 128873.0
37.7132 58073.0
37.7231 37118.0
37.7329 41566.0
37.7428 77750.0
37.7526 128078.0
37.7625 153904.0
37.7723 160127.0
37.7822 152360.0
37.792 119894.0
37.8018 63998.0
37.8117 28367.0
37.8215 15459.0
37.8314 9842.0
37.8412 7448.0
37.8511 5767.0
37.8609 4842.0
37.8708 4204.0
37.8806 3606.0
37.8905 3141.0
37.9003 2878.0
37.9102 2581.0
37.92 2427.0
37.9299 2334.0
37.9397 2163.0
37.9496 2009.0
37.9594 1941.0
37.9693 1686.0
37.9791 1687.0
37.989 1564.0
37.9988 1519.0
38.0087 1428.0
38.0185 1413.0
38.0283 1395.0
38.0382 1284.0
38.048 1211.0
38.0579 1108.0
38.0677 1132.0
38.0776 1048.0
38.0874 1030.0
38.0973 994.0
38.1071 1008.0
38.117 1023.0
38.1268 955.0
38.1367 910.0
38.1465 844.0
38.1564 833.0
38.1662 767.0
38.1761 807.0
38.1859 795.0
38.1958 727.0
38.2056 705.0
38.2155 722.0
38.2253 675.0
38.2351 668.0
38.245 667.0
38.2548 603.0
38.2647 622.0
38.2745 533.0
38.2844 581.0
38.2942 564.0
38.3041 557.0
38.3139 494.0
38.3238 499.0
38.3336 495.0
38.3435 496.0
38.3533 467.0
38.3632 475.0
38.373 469.0
38.3829 455.0
38.3927 429.0
38.4026 449.0
38.4124 424.0
38.4223 478.0
38.4321 395.0
38.442 386.0
38.4518 388.0
38.4616 352.0
38.4715 355.0
38.4813 390.0
38.4912 360.0
38.501 316.0
38.5109 348.0
38.5207 301.0
38.5306 311.0
38.5404 300.0
38.5503 320.0
38.5601 289.0
38.57 312.0
38.5798 307.0
38.5897 309.0
38.5995 215.0
38.6094 286.0
38.6192 285.0
38.6291 229.0
38.6389 262.0
38.6488 216.0
38.6586 217.0
38.6684 267.0
38.6783 217.0
38.6881 203.0
38.698 194.0
38.7078 209.0
38.7177 228.0
38.7275 215.0
38.7374 208.0
38.7472 187.0
38.7571 193.0
38.7669 204.0
38.7768 192.0
38.7866 207.0
38.7965 196.0
38.8063 176.0
38.8162 217.0
38.826 183.0
38.8359 175.0
38.8457 178.0
38.8556 186.0
38.8654 189.0
38.8753 192.0
38.8851 160.0
38.8949 163.0
38.9048 174.0
38.9146 177.0
38.9245 163.0
38.9343 182.0
38.9442 168.0
38.954 178.0
38.9639 168.0
38.9737 175.0
38.9836 171.0
38.9934 169.0
39.0033 179.0
39.0131 194.0
39.023 161.0
39.0328 179.0
39.0427 142.0
39.0525 158.0
39.0624 158.0
39.0722 149.0
39.0821 147.0
39.0919 169.0
39.1017 157.0
39.1116 139.0
39.1214 153.0
39.1313 136.0
39.1411 139.0
39.151 147.0
39.1608 152.0
39.1707 132.0
39.1805 122.0
39.1904 144.0
39.2002 169.0
39.2101 140.0
39.2199 149.0
39.2298 142.0
39.2396 123.0
39.2495 135.0
39.2593 133.0
39.2692 144.0
39.279 141.0
39.2889 145.0
39.2987 148.0
39.3085 148.0
39.3184 162.0
39.3282 144.0
39.3381 145.0
39.3479 153.0
39.3578 134.0
39.3676 125.0
39.3775 133.0
39.3873 129.0
39.3972 125.0
39.407 124.0
39.4169 163.0
39.4267 138.0
39.4366 116.0
39.4464 142.0
39.4563 138.0
39.4661 130.0
39.476 134.0
39.4858 143.0
39.4957 130.0
39.5055 116.0
39.5154 130.0
39.5252 142.0
39.535 151.0
39.5449 155.0
39.5547 159.0
39.5646 128.0
39.5744 115.0
39.5843 111.0
39.5941 140.0
39.604 115.0
39.6138 144.0
39.6237 123.0
39.6335 141.0
39.6434 134.0
39.6532 118.0
39.6631 111.0
39.6729 104.0
39.6828 133.0
39.6926 124.0
39.7025 117.0
39.7123 127.0
39.7222 110.0
39.732 123.0
39.7418 145.0
39.7517 132.0
39.7615 121.0
39.7714 142.0
39.7812 117.0
39.7911 116.0
39.8009 141.0
39.8108 143.0
39.8206 119.0
39.8305 129.0
39.8403 122.0
39.8502 109.0
39.86 106.0
39.8699 119.0
39.8797 139.0
39.8896 126.0
39.8994 122.0
39.9093 125.0
39.9191 118.0
39.929 118.0
39.9388 133.0
39.9487 120.0
39.9585 120.0
39.9683 117.0
39.9782 143.0
39.988 115.0
39.9979 129.0