File: data/W6854m/XRD_2ThetaOmega/W6854m_absolute_2th-om_10-130deg_PIXscan_17min_2.xy
10.0035 19.0
10.0872 17.0
10.1709 20.0
10.2546 17.0
10.3383 29.0
10.422 19.0
10.5057 21.0
10.5894 10.0
10.6731 20.0
10.7568 18.0
10.8405 22.0
10.9242 9.0
11.0079 14.0
11.0916 16.0
11.1753 23.0
11.259 14.0
11.3428 27.0
11.4265 21.0
11.5102 16.0
11.5939 23.0
11.6776 22.0
11.7613 26.0
11.845 25.0
11.9287 23.0
12.0124 21.0
12.0961 20.0
12.1798 20.0
12.2635 22.0
12.3472 24.0
12.4309 18.0
12.5146 16.0
12.5983 18.0
12.682 14.0
12.7657 17.0
12.8495 24.0
12.9332 24.0
13.0169 22.0
13.1006 19.0
13.1843 13.0
13.268 16.0
13.3517 17.0
13.4354 19.0
13.5191 13.0
13.6028 10.0
13.6865 13.0
13.7702 21.0
13.8539 9.0
13.9376 14.0
14.0213 16.0
14.105 20.0
14.1887 18.0
14.2724 22.0
14.3562 17.0
14.4399 15.0
14.5236 13.0
14.6073 16.0
14.691 25.0
14.7747 12.0
14.8584 14.0
14.9421 18.0
15.0258 17.0
15.1095 14.0
15.1932 21.0
15.2769 17.0
15.3606 19.0
15.4443 12.0
15.528 15.0
15.6117 13.0
15.6954 13.0
15.7791 12.0
15.8629 16.0
15.9466 17.0
16.0303 13.0
16.114 15.0
16.1977 18.0
16.2814 12.0
16.3651 19.0
16.4488 7.0
16.5325 10.0
16.6162 10.0
16.6999 18.0
16.7836 11.0
16.8673 12.0
16.951 14.0
17.0347 12.0
17.1184 19.0
17.2021 18.0
17.2858 9.0
17.3696 12.0
17.4533 20.0
17.537 7.0
17.6207 19.0
17.7044 19.0
17.7881 10.0
17.8718 8.0
17.9555 11.0
18.0392 16.0
18.1229 16.0
18.2066 9.0
18.2903 15.0
18.374 25.0
18.4577 14.0
18.5414 17.0
18.6251 4.0
18.7088 19.0
18.7925 17.0
18.8763 10.0
18.96 16.0
19.0437 5.0
19.1274 17.0
19.2111 7.0
19.2948 14.0
19.3785 11.0
19.4622 8.0
19.5459 9.0
19.6296 8.0
19.7133 13.0
19.797 23.0
19.8807 10.0
19.9644 7.0
20.0481 6.0
20.1318 13.0
20.2155 10.0
20.2992 9.0
20.383 10.0
20.4667 12.0
20.5504 11.0
20.6341 12.0
20.7178 17.0
20.8015 2.0
20.8852 13.0
20.9689 13.0
21.0526 13.0
21.1363 14.0
21.22 13.0
21.3037 8.0
21.3874 9.0
21.4711 11.0
21.5548 10.0
21.6385 10.0
21.7222 9.0
21.8059 7.0
21.8897 9.0
21.9734 12.0
22.0571 9.0
22.1408 10.0
22.2245 9.0
22.3082 16.0
22.3919 15.0
22.4756 8.0
22.5593 9.0
22.643 12.0
22.7267 10.0
22.8104 9.0
22.8941 7.0
22.9778 12.0
23.0615 5.0
23.1452 17.0
23.2289 10.0
23.3126 12.0
23.3964 11.0
23.4801 10.0
23.5638 11.0
23.6475 9.0
23.7312 16.0
23.8149 8.0
23.8986 7.0
23.9823 13.0
24.066 7.0
24.1497 12.0
24.2334 10.0
24.3171 7.0
24.4008 10.0
24.4845 12.0
24.5682 10.0
24.6519 11.0
24.7356 11.0
24.8193 11.0
24.9031 8.0
24.9868 5.0
25.0705 12.0
25.1542 7.0
25.2379 9.0
25.3216 5.0
25.4053 7.0
25.489 11.0
25.5727 11.0
25.6564 13.0
25.7401 8.0
25.8238 9.0
25.9075 9.0
25.9912 10.0
26.0749 17.0
26.1586 7.0
26.2423 7.0
26.326 10.0
26.4098 6.0
26.4935 13.0
26.5772 3.0
26.6609 10.0
26.7446 12.0
26.8283 11.0
26.912 10.0
26.9957 13.0
27.0794 12.0
27.1631 14.0
27.2468 8.0
27.3305 7.0
27.4142 14.0
27.4979 14.0
27.5816 8.0
27.6653 8.0
27.749 9.0
27.8327 6.0
27.9165 3.0
28.0002 8.0
28.0839 7.0
28.1676 8.0
28.2513 6.0
28.335 10.0
28.4187 4.0
28.5024 13.0
28.5861 5.0
28.6698 11.0
28.7535 11.0
28.8372 10.0
28.9209 10.0
29.0046 13.0
29.0883 10.0
29.172 9.0
29.2557 7.0
29.3394 8.0
29.4232 10.0
29.5069 4.0
29.5906 5.0
29.6743 7.0
29.758 9.0
29.8417 9.0
29.9254 11.0
30.0091 9.0
30.0928 6.0
30.1765 11.0
30.2602 7.0
30.3439 10.0
30.4276 9.0
30.5113 10.0
30.595 7.0
30.6787 10.0
30.7624 12.0
30.8461 6.0
30.9298 8.0
31.0136 5.0
31.0973 5.0
31.181 2.0
31.2647 13.0
31.3484 6.0
31.4321 2.0
31.5158 6.0
31.5995 8.0
31.6832 5.0
31.7669 11.0
31.8506 10.0
31.9343 11.0
32.018 10.0
32.1017 3.0
32.1854 6.0
32.2691 2.0
32.3528 10.0
32.4365 4.0
32.5203 8.0
32.604 13.0
32.6877 6.0
32.7714 4.0
32.8551 9.0
32.9388 7.0
33.0225 8.0
33.1062 11.0
33.1899 8.0
33.2736 6.0
33.3573 7.0
33.441 6.0
33.5247 11.0
33.6084 12.0
33.6921 8.0
33.7758 12.0
33.8595 8.0
33.9432 8.0
34.027 8.0
34.1107 4.0
34.1944 1.0
34.2781 9.0
34.3618 8.0
34.4455 5.0
34.5292 9.0
34.6129 9.0
34.6966 8.0
34.7803 9.0
34.864 7.0
34.9477 12.0
35.0314 10.0
35.1151 4.0
35.1988 10.0
35.2825 6.0
35.3662 11.0
35.4499 4.0
35.5337 6.0
35.6174 4.0
35.7011 7.0
35.7848 12.0
35.8685 8.0
35.9522 8.0
36.0359 6.0
36.1196 8.0
36.2033 10.0
36.287 12.0
36.3707 10.0
36.4544 6.0
36.5381 8.0
36.6218 9.0
36.7055 9.0
36.7892 10.0
36.8729 8.0
36.9566 9.0
37.0404 19.0
37.1241 8.0
37.2078 10.0
37.2915 9.0
37.3752 7.0
37.4589 6.0
37.5426 9.0
37.6263 10.0
37.71 10.0
37.7937 11.0
37.8774 10.0
37.9611 9.0
38.0448 5.0
38.1285 11.0
38.2122 7.0
38.2959 13.0
38.3796 6.0
38.4633 11.0
38.5471 17.0
38.6308 5.0
38.7145 7.0
38.7982 10.0
38.8819 5.0
38.9656 11.0
39.0493 12.0
39.133 9.0
39.2167 6.0
39.3004 7.0
39.3841 5.0
39.4678 13.0
39.5515 5.0
39.6352 10.0
39.7189 8.0
39.8026 11.0
39.8863 14.0
39.97 4.0
40.0538 6.0
40.1375 10.0
40.2212 8.0
40.3049 4.0
40.3886 8.0
40.4723 11.0
40.556 12.0
40.6397 2.0
40.7234 4.0
40.8071 3.0
40.8908 11.0
40.9745 7.0
41.0582 9.0
41.1419 11.0
41.2256 10.0
41.3093 6.0
41.393 3.0
41.4767 7.0
41.5605 13.0
41.6442 7.0
41.7279 11.0
41.8116 9.0
41.8953 9.0
41.979 9.0
42.0627 10.0
42.1464 8.0
42.2301 5.0
42.3138 11.0
42.3975 8.0
42.4812 12.0
42.5649 5.0
42.6486 5.0
42.7323 8.0
42.816 7.0
42.8997 9.0
42.9834 6.0
43.0672 7.0
43.1509 9.0
43.2346 7.0
43.3183 10.0
43.402 14.0
43.4857 10.0
43.5694 6.0
43.6531 8.0
43.7368 9.0
43.8205 17.0
43.9042 7.0
43.9879 10.0
44.0716 14.0
44.1553 9.0
44.239 22.0
44.3227 14.0
44.4064 14.0
44.4901 12.0
44.5739 24.0
44.6576 10.0
44.7413 12.0
44.825 6.0
44.9087 11.0
44.9924 8.0
45.0761 11.0
45.1598 7.0
45.2435 12.0
45.3272 10.0
45.4109 4.0
45.4946 12.0
45.5783 11.0
45.662 7.0
45.7457 9.0
45.8294 11.0
45.9131 2.0
45.9968 6.0
46.0806 4.0
46.1643 7.0
46.248 16.0
46.3317 5.0
46.4154 6.0
46.4991 10.0
46.5828 10.0
46.6665 14.0
46.7502 9.0
46.8339 4.0
46.9176 10.0
47.0013 7.0
47.085 9.0
47.1687 4.0
47.2524 6.0
47.3361 8.0
47.4198 13.0
47.5035 12.0
47.5873 10.0
47.671 8.0
47.7547 6.0
47.8384 10.0
47.9221 5.0
48.0058 11.0
48.0895 7.0
48.1732 9.0
48.2569 4.0
48.3406 8.0
48.4243 7.0
48.508 5.0
48.5917 8.0
48.6754 11.0
48.7591 7.0
48.8428 8.0
48.9265 9.0
49.0102 8.0
49.094 6.0
49.1777 10.0
49.2614 6.0
49.3451 12.0
49.4288 16.0
49.5125 8.0
49.5962 9.0
49.6799 10.0
49.7636 8.0
49.8473 7.0
49.931 9.0
50.0147 8.0
50.0984 7.0
50.1821 6.0
50.2658 12.0
50.3495 3.0
50.4332 10.0
50.5169 6.0
50.6007 12.0
50.6844 18.0
50.7681 19.0
50.8518 12.0
50.9355 13.0
51.0192 11.0
51.1029 12.0
51.1866 13.0
51.2703 12.0
51.354 7.0
51.4377 9.0
51.5214 10.0
51.6051 5.0
51.6888 6.0
51.7725 10.0
51.8562 10.0
51.9399 8.0
52.0236 7.0
52.1074 20.0
52.1911 10.0
52.2748 9.0
52.3585 10.0
52.4422 10.0
52.5259 6.0
52.6096 9.0
52.6933 8.0
52.777 6.0
52.8607 13.0
52.9444 10.0
53.0281 12.0
53.1118 9.0
53.1955 16.0
53.2792 13.0
53.3629 8.0
53.4466 7.0
53.5303 9.0
53.6141 8.0
53.6978 11.0
53.7815 7.0
53.8652 7.0
53.9489 8.0
54.0326 7.0
54.1163 7.0
54.2 13.0
54.2837 10.0
54.3674 14.0
54.4511 9.0
54.5348 4.0
54.6185 8.0
54.7022 15.0
54.7859 16.0
54.8696 7.0
54.9533 12.0
55.037 12.0
55.1208 12.0
55.2045 10.0
55.2882 12.0
55.3719 6.0
55.4556 15.0
55.5393 25.0
55.623 13.0
55.7067 13.0
55.7904 8.0
55.8741 7.0
55.9578 9.0
56.0415 8.0
56.1252 7.0
56.2089 10.0
56.2926 8.0
56.3763 12.0
56.46 7.0
56.5437 13.0
56.6275 13.0
56.7112 5.0
56.7949 9.0
56.8786 13.0
56.9623 8.0
57.046 12.0
57.1297 19.0
57.2134 6.0
57.2971 6.0
57.3808 8.0
57.4645 14.0
57.5482 12.0
57.6319 17.0
57.7156 13.0
57.7993 15.0
57.883 10.0
57.9667 8.0
58.0504 10.0
58.1342 8.0
58.2179 8.0
58.3016 11.0
58.3853 9.0
58.469 15.0
58.5527 12.0
58.6364 14.0
58.7201 5.0
58.8038 9.0
58.8875 20.0
58.9712 13.0
59.0549 13.0
59.1386 2.0
59.2223 13.0
59.306 6.0
59.3897 4.0
59.4734 17.0
59.5571 12.0
59.6409 9.0
59.7246 8.0
59.8083 8.0
59.892 14.0
59.9757 10.0
60.0594 11.0
60.1431 10.0
60.2268 15.0
60.3105 23.0
60.3942 11.0
60.4779 18.0
60.5616 19.0
60.6453 11.0
60.729 23.0
60.8127 65.0
60.8964 74.0
60.9801 27.0
61.0638 18.0
61.1476 19.0
61.2313 23.0
61.315 17.0
61.3987 12.0
61.4824 10.0
61.5661 21.0
61.6498 16.0
61.7335 13.0
61.8172 16.0
61.9009 17.0
61.9846 11.0
62.0683 20.0
62.152 15.0
62.2357 22.0
62.3194 10.0
62.4031 15.0
62.4868 11.0
62.5705 22.0
62.6543 16.0
62.738 17.0
62.8217 20.0
62.9054 21.0
62.9891 22.0
63.0728 16.0
63.1565 18.0
63.2402 20.0
63.3239 35.0
63.4076 40.0
63.4913 69.0
63.575 72.0
63.6587 91.0
63.7424 142.0
63.8261 234.0
63.9098 314.0
63.9935 521.0
64.0772 546.0
64.161 487.0
64.2447 416.0
64.3284 287.0
64.4121 155.0
64.4958 117.0
64.5795 62.0
64.6632 60.0
64.7469 61.0
64.8306 60.0
64.9143 95.0
64.998 131.0
65.0817 49.0
65.1654 38.0
65.2491 28.0
65.3328 27.0
65.4165 34.0
65.5002 27.0
65.5839 23.0
65.6677 16.0
65.7514 20.0
65.8351 27.0
65.9188 22.0
66.0025 16.0
66.0862 13.0
66.1699 15.0
66.2536 18.0
66.3373 22.0
66.421 16.0
66.5047 33.0
66.5884 23.0
66.6721 26.0
66.7558 20.0
66.8395 27.0
66.9232 21.0
67.0069 37.0
67.0906 23.0
67.1744 26.0
67.2581 44.0
67.3418 39.0
67.4255 46.0
67.5092 60.0
67.5929 72.0
67.6766 91.0
67.7603 113.0
67.844 273.0
67.9277 289.0
68.0114 549.0
68.0951 2919.0
68.1788 25649.0
68.2625 1781.0
68.3462 15962.0
68.4299 1523.0
68.5136 449.0
68.5973 269.0
68.6811 174.0
68.7648 114.0
68.8485 97.0
68.9322 92.0
69.0159 103.0
69.0996 91.0
69.1833 93.0
69.267 67.0
69.3507 75.0
69.4344 65.0
69.5181 65.0
69.6018 57.0
69.6855 52.0
69.7692 48.0
69.8529 45.0
69.9366 37.0
70.0203 41.0
70.104 38.0
70.1878 25.0
70.2715 23.0
70.3552 39.0
70.4389 23.0
70.5226 29.0
70.6063 28.0
70.69 26.0
70.7737 15.0
70.8574 27.0
70.9411 16.0
71.0248 29.0
71.1085 14.0
71.1922 21.0
71.2759 24.0
71.3596 19.0
71.4433 25.0
71.527 14.0
71.6107 24.0
71.6945 16.0
71.7782 14.0
71.8619 20.0
71.9456 13.0
72.0293 12.0
72.113 13.0
72.1967 15.0
72.2804 15.0
72.3641 15.0
72.4478 15.0
72.5315 14.0
72.6152 9.0
72.6989 15.0
72.7826 7.0
72.8663 12.0
72.95 13.0
73.0337 17.0
73.1174 16.0
73.2012 17.0
73.2849 11.0
73.3686 15.0
73.4523 17.0
73.536 9.0
73.6197 13.0
73.7034 13.0
73.7871 12.0
73.8708 16.0
73.9545 7.0
74.0382 11.0
74.1219 13.0
74.2056 18.0
74.2893 11.0
74.373 13.0
74.4567 22.0
74.5404 15.0
74.6241 8.0
74.7079 11.0
74.7916 7.0
74.8753 6.0
74.959 10.0
75.0427 18.0
75.1264 8.0
75.2101 17.0
75.2938 16.0
75.3775 11.0
75.4612 9.0
75.5449 12.0
75.6286 17.0
75.7123 4.0
75.796 16.0
75.8797 4.0
75.9634 11.0
76.0471 16.0
76.1308 13.0
76.2146 10.0
76.2983 6.0
76.382 13.0
76.4657 11.0
76.5494 13.0
76.6331 7.0
76.7168 11.0
76.8005 11.0
76.8842 8.0
76.9679 13.0
77.0516 7.0
77.1353 11.0
77.219 5.0
77.3027 9.0
77.3864 12.0
77.4701 11.0
77.5538 18.0
77.6375 14.0
77.7213 8.0
77.805 4.0
77.8887 12.0
77.9724 11.0
78.0561 9.0
78.1398 12.0
78.2235 15.0
78.3072 10.0
78.3909 5.0
78.4746 16.0
78.5583 11.0
78.642 15.0
78.7257 11.0
78.8094 12.0
78.8931 12.0
78.9768 14.0
79.0605 9.0
79.1442 15.0
79.228 11.0
79.3117 9.0
79.3954 12.0
79.4791 11.0
79.5628 6.0
79.6465 7.0
79.7302 10.0
79.8139 6.0
79.8976 11.0
79.9813 6.0
80.065 8.0
80.1487 14.0
80.2324 16.0
80.3161 20.0
80.3998 9.0
80.4835 13.0
80.5672 13.0
80.6509 16.0
80.7347 16.0
80.8184 7.0
80.9021 14.0
80.9858 6.0
81.0695 8.0
81.1532 11.0
81.2369 13.0
81.3206 13.0
81.4043 10.0
81.488 12.0
81.5717 11.0
81.6554 9.0
81.7391 10.0
81.8228 15.0
81.9065 14.0
81.9902 16.0
82.0739 12.0
82.1576 10.0
82.2414 20.0
82.3251 14.0
82.4088 6.0
82.4925 11.0
82.5762 11.0
82.6599 14.0
82.7436 9.0
82.8273 10.0
82.911 3.0
82.9947 22.0
83.0784 16.0
83.1621 15.0
83.2458 14.0
83.3295 7.0
83.4132 14.0
83.4969 8.0
83.5806 15.0
83.6643 18.0
83.7481 11.0
83.8318 12.0
83.9155 14.0
83.9992 10.0
84.0829 13.0
84.1666 8.0
84.2503 10.0
84.334 10.0
84.4177 17.0
84.5014 6.0
84.5851 9.0
84.6688 13.0
84.7525 7.0
84.8362 7.0
84.9199 9.0
85.0036 12.0
85.0873 8.0
85.171 9.0
85.2548 14.0
85.3385 11.0
85.4222 3.0
85.5059 14.0
85.5896 14.0
85.6733 12.0
85.757 10.0
85.8407 10.0
85.9244 3.0
86.0081 16.0
86.0918 16.0
86.1755 9.0
86.2592 14.0
86.3429 10.0
86.4266 12.0
86.5103 11.0
86.594 11.0
86.6777 12.0
86.7615 13.0
86.8452 13.0
86.9289 9.0
87.0126 11.0
87.0963 5.0
87.18 17.0
87.2637 13.0
87.3474 14.0
87.4311 11.0
87.5148 7.0
87.5985 12.0
87.6822 8.0
87.7659 15.0
87.8496 16.0
87.9333 10.0
88.017 11.0
88.1007 14.0
88.1844 18.0
88.2682 16.0
88.3519 10.0
88.4356 13.0
88.5193 18.0
88.603 18.0
88.6867 16.0
88.7704 12.0
88.8541 2.0
88.9378 15.0
89.0215 11.0
89.1052 7.0
89.1889 7.0
89.2726 13.0
89.3563 12.0
89.44 10.0
89.5237 8.0
89.6074 4.0
89.6911 6.0
89.7749 8.0
89.8586 15.0
89.9423 6.0
90.026 17.0
90.1097 10.0
90.1934 10.0
90.2771 10.0
90.3608 7.0
90.4445 11.0
90.5282 8.0
90.6119 7.0
90.6956 7.0
90.7793 5.0
90.863 10.0
90.9467 10.0
91.0304 10.0
91.1141 10.0
91.1978 15.0
91.2816 9.0
91.3653 14.0
91.449 10.0
91.5327 6.0
91.6164 9.0
91.7001 12.0
91.7838 15.0
91.8675 9.0
91.9512 10.0
92.0349 6.0
92.1186 10.0
92.2023 7.0
92.286 14.0
92.3697 7.0
92.4534 14.0
92.5371 9.0
92.6208 9.0
92.7045 4.0
92.7883 12.0
92.872 8.0
92.9557 12.0
93.0394 10.0
93.1231 12.0
93.2068 8.0
93.2905 9.0
93.3742 16.0
93.4579 11.0
93.5416 10.0
93.6253 11.0
93.709 7.0
93.7927 11.0
93.8764 15.0
93.9601 12.0
94.0438 5.0
94.1275 4.0
94.2112 10.0
94.295 14.0
94.3787 6.0
94.4624 17.0
94.5461 15.0
94.6298 11.0
94.7135 10.0
94.7972 9.0
94.8809 16.0
94.9646 18.0
95.0483 12.0
95.132 15.0
95.2157 6.0
95.2994 10.0
95.3831 10.0
95.4668 17.0
95.5505 7.0
95.6342 6.0
95.7179 14.0
95.8017 12.0
95.8854 9.0
95.9691 7.0
96.0528 14.0
96.1365 9.0
96.2202 11.0
96.3039 8.0
96.3876 12.0
96.4713 8.0
96.555 12.0
96.6387 9.0
96.7224 10.0
96.8061 8.0
96.8898 11.0
96.9735 10.0
97.0572 11.0
97.1409 11.0
97.2246 12.0
97.3084 8.0
97.3921 16.0
97.4758 8.0
97.5595 16.0
97.6432 16.0
97.7269 11.0
97.8106 7.0
97.8943 13.0
97.978 10.0
98.0617 15.0
98.1454 10.0
98.2291 9.0
98.3128 17.0
98.3965 7.0
98.4802 15.0
98.5639 13.0
98.6476 12.0
98.7313 14.0
98.8151 11.0
98.8988 10.0
98.9825 11.0
99.0662 10.0
99.1499 7.0
99.2336 13.0
99.3173 16.0
99.401 10.0
99.4847 12.0
99.5684 10.0
99.6521 11.0
99.7358 15.0
99.8195 14.0
99.9032 10.0
99.9869 16.0
100.071 9.0
100.154 10.0
100.238 9.0
100.322 10.0
100.405 13.0
100.489 12.0
100.573 11.0
100.657 12.0
100.74 12.0
100.824 7.0
100.908 9.0
100.991 15.0
101.075 17.0
101.159 10.0
101.243 12.0
101.326 16.0
101.41 11.0
101.494 14.0
101.577 11.0
101.661 16.0
101.745 14.0
101.828 13.0
101.912 12.0
101.996 13.0
102.08 9.0
102.163 11.0
102.247 10.0
102.331 9.0
102.414 11.0
102.498 6.0
102.582 10.0
102.666 13.0
102.749 6.0
102.833 8.0
102.917 14.0
103 9.0
103.084 10.0
103.168 12.0
103.251 8.0
103.335 12.0
103.419 9.0
103.503 15.0
103.586 10.0
103.67 13.0
103.754 15.0
103.837 14.0
103.921 8.0
104.005 10.0
104.089 15.0
104.172 15.0
104.256 9.0
104.34 7.0
104.423 8.0
104.507 17.0
104.591 8.0
104.674 11.0
104.758 14.0
104.842 14.0
104.926 10.0
105.009 14.0
105.093 11.0
105.177 8.0
105.26 11.0
105.344 7.0
105.428 11.0
105.511 9.0
105.595 15.0
105.679 14.0
105.763 16.0
105.846 9.0
105.93 9.0
106.014 8.0
106.097 15.0
106.181 10.0
106.265 11.0
106.349 17.0
106.432 13.0
106.516 13.0
106.6 9.0
106.683 12.0
106.767 10.0
106.851 12.0
106.934 14.0
107.018 12.0
107.102 16.0
107.186 9.0
107.269 19.0
107.353 13.0
107.437 17.0
107.52 13.0
107.604 12.0
107.688 16.0
107.772 13.0
107.855 11.0
107.939 16.0
108.023 13.0
108.106 18.0
108.19 20.0
108.274 17.0
108.357 17.0
108.441 19.0
108.525 12.0
108.609 11.0
108.692 12.0
108.776 8.0
108.86 6.0
108.943 11.0
109.027 15.0
109.111 8.0
109.195 13.0
109.278 8.0
109.362 10.0
109.446 16.0
109.529 8.0
109.613 12.0
109.697 17.0
109.78 13.0
109.864 9.0
109.948 12.0
110.032 20.0
110.115 14.0
110.199 6.0
110.283 8.0
110.366 11.0
110.45 12.0
110.534 11.0
110.618 11.0
110.701 9.0
110.785 10.0
110.869 13.0
110.952 20.0
111.036 15.0
111.12 10.0
111.203 10.0
111.287 12.0
111.371 14.0
111.455 16.0
111.538 11.0
111.622 7.0
111.706 5.0
111.789 9.0
111.873 21.0
111.957 16.0
112.041 11.0
112.124 22.0
112.208 13.0
112.292 9.0
112.375 13.0
112.459 5.0
112.543 1.0
112.626 11.0
112.71 12.0
112.794 10.0
112.878 12.0
112.961 12.0
113.045 11.0
113.129 19.0
113.212 12.0
113.296 15.0
113.38 18.0
113.464 8.0
113.547 8.0
113.631 8.0
113.715 12.0
113.798 6.0
113.882 11.0
113.966 13.0
114.049 6.0
114.133 11.0
114.217 18.0
114.301 14.0
114.384 13.0
114.468 11.0
114.552 15.0
114.635 9.0
114.719 8.0
114.803 11.0
114.887 12.0
114.97 14.0
115.054 11.0
115.138 10.0
115.221 8.0
115.305 10.0
115.389 10.0
115.472 10.0
115.556 15.0
115.64 15.0
115.724 9.0
115.807 4.0
115.891 17.0
115.975 11.0
116.058 13.0
116.142 16.0
116.226 19.0
116.31 7.0
116.393 12.0
116.477 14.0
116.561 16.0
116.644 22.0
116.728 9.0
116.812 16.0
116.895 21.0
116.979 12.0
117.063 14.0
117.147 8.0
117.23 16.0
117.314 13.0
117.398 11.0
117.481 17.0
117.565 13.0
117.649 9.0
117.733 16.0
117.816 11.0
117.9 12.0
117.984 9.0
118.067 18.0
118.151 16.0
118.235 11.0
118.318 11.0
118.402 9.0
118.486 18.0
118.57 11.0
118.653 13.0
118.737 12.0
118.821 18.0
118.904 10.0
118.988 9.0
119.072 9.0
119.156 9.0
119.239 11.0
119.323 9.0
119.407 11.0
119.49 10.0
119.574 13.0
119.658 9.0
119.741 5.0
119.825 14.0
119.909 11.0
119.993 12.0
120.076 9.0
120.16 9.0
120.244 14.0
120.327 13.0
120.411 11.0
120.495 14.0
120.578 9.0
120.662 9.0
120.746 10.0
120.83 10.0
120.913 7.0
120.997 14.0
121.081 13.0
121.164 17.0
121.248 10.0
121.332 7.0
121.416 12.0
121.499 9.0
121.583 14.0
121.667 6.0
121.75 7.0
121.834 9.0
121.918 12.0
122.001 14.0
122.085 14.0
122.169 12.0
122.253 8.0
122.336 15.0
122.42 17.0
122.504 16.0
122.587 15.0
122.671 10.0
122.755 15.0
122.839 14.0
122.922 11.0
123.006 8.0
123.09 10.0
123.173 11.0
123.257 17.0
123.341 12.0
123.424 16.0
123.508 9.0
123.592 12.0
123.676 14.0
123.759 12.0
123.843 12.0
123.927 16.0
124.01 11.0
124.094 12.0
124.178 13.0
124.262 13.0
124.345 11.0
124.429 19.0
124.513 10.0
124.596 10.0
124.68 13.0
124.764 18.0
124.847 17.0
124.931 19.0
125.015 6.0
125.099 11.0
125.182 22.0
125.266 10.0
125.35 14.0
125.433 12.0
125.517 17.0
125.601 15.0
125.685 7.0
125.768 12.0
125.852 10.0
125.936 17.0
126.019 6.0
126.103 15.0
126.187 9.0
126.27 8.0
126.354 16.0
126.438 11.0
126.522 12.0
126.605 14.0
126.689 11.0
126.773 9.0
126.856 11.0
126.94 15.0
127.024 10.0
127.108 13.0
127.191 9.0
127.275 9.0
127.359 13.0
127.442 11.0
127.526 13.0
127.61 15.0
127.693 18.0
127.777 11.0
127.861 11.0
127.945 12.0
128.028 11.0
128.112 8.0
128.196 10.0
128.279 14.0
128.363 9.0
128.447 10.0
128.531 17.0
128.614 11.0
128.698 11.0
128.782 14.0
128.865 14.0
128.949 7.0
129.033 8.0
129.116 13.0
129.2 18.0
129.284 8.0
129.368 2.0
129.451 13.0
129.535 14.0
129.619 11.0
129.702 12.0
129.786 17.0
129.87 7.0
129.954 11.0
129.998 15.0