File: data/W6775r/XRD_2ThetaOmega/W6775r_absolute_2th-om_10-130deg_PIXscan_17min_1.xy
10.0035 32.0
10.0872 28.0
10.1709 32.0
10.2546 29.0
10.3383 26.0
10.422 22.0
10.5057 30.0
10.5894 32.0
10.6731 22.0
10.7568 30.0
10.8405 33.0
10.9242 24.0
11.0079 21.0
11.0916 30.0
11.1753 30.0
11.259 24.0
11.3428 31.0
11.4265 21.0
11.5102 24.0
11.5939 22.0
11.6776 20.0
11.7613 29.0
11.845 18.0
11.9287 17.0
12.0124 24.0
12.0961 15.0
12.1798 14.0
12.2635 23.0
12.3472 35.0
12.4309 26.0
12.5146 21.0
12.5983 28.0
12.682 20.0
12.7657 21.0
12.8495 21.0
12.9332 21.0
13.0169 23.0
13.1006 20.0
13.1843 20.0
13.268 28.0
13.3517 25.0
13.4354 19.0
13.5191 25.0
13.6028 28.0
13.6865 26.0
13.7702 8.0
13.8539 23.0
13.9376 27.0
14.0213 15.0
14.105 22.0
14.1887 17.0
14.2724 23.0
14.3562 21.0
14.4399 15.0
14.5236 15.0
14.6073 16.0
14.691 13.0
14.7747 18.0
14.8584 22.0
14.9421 16.0
15.0258 16.0
15.1095 14.0
15.1932 11.0
15.2769 16.0
15.3606 20.0
15.4443 17.0
15.528 10.0
15.6117 25.0
15.6954 21.0
15.7791 14.0
15.8629 15.0
15.9466 16.0
16.0303 22.0
16.114 13.0
16.1977 14.0
16.2814 20.0
16.3651 14.0
16.4488 10.0
16.5325 10.0
16.6162 15.0
16.6999 10.0
16.7836 19.0
16.8673 17.0
16.951 7.0
17.0347 9.0
17.1184 12.0
17.2021 12.0
17.2858 21.0
17.3696 22.0
17.4533 20.0
17.537 10.0
17.6207 15.0
17.7044 11.0
17.7881 10.0
17.8718 12.0
17.9555 26.0
18.0392 8.0
18.1229 19.0
18.2066 16.0
18.2903 14.0
18.374 21.0
18.4577 11.0
18.5414 15.0
18.6251 14.0
18.7088 11.0
18.7925 17.0
18.8763 16.0
18.96 14.0
19.0437 16.0
19.1274 8.0
19.2111 15.0
19.2948 19.0
19.3785 9.0
19.4622 20.0
19.5459 13.0
19.6296 11.0
19.7133 9.0
19.797 25.0
19.8807 17.0
19.9644 13.0
20.0481 14.0
20.1318 13.0
20.2155 18.0
20.2992 7.0
20.383 17.0
20.4667 12.0
20.5504 15.0
20.6341 15.0
20.7178 21.0
20.8015 18.0
20.8852 13.0
20.9689 10.0
21.0526 16.0
21.1363 14.0
21.22 16.0
21.3037 10.0
21.3874 12.0
21.4711 13.0
21.5548 10.0
21.6385 11.0
21.7222 11.0
21.8059 15.0
21.8897 11.0
21.9734 17.0
22.0571 15.0
22.1408 13.0
22.2245 17.0
22.3082 15.0
22.3919 7.0
22.4756 16.0
22.5593 18.0
22.643 7.0
22.7267 17.0
22.8104 18.0
22.8941 6.0
22.9778 26.0
23.0615 44.0
23.1452 24.0
23.2289 31.0
23.3126 49.0
23.3964 25.0
23.4801 23.0
23.5638 33.0
23.6475 24.0
23.7312 32.0
23.8149 38.0
23.8986 42.0
23.9823 77.0
24.066 100.0
24.1497 218.0
24.2334 516.0
24.3171 2710.0
24.4008 2341.0
24.4845 594.0
24.5682 196.0
24.6519 142.0
24.7356 85.0
24.8193 81.0
24.9031 52.0
24.9868 66.0
25.0705 80.0
25.1542 125.0
25.2379 148.0
25.3216 216.0
25.4053 881.0
25.489 21531.0
25.5727 24196.0
25.6564 972.0
25.7401 382.0
25.8238 187.0
25.9075 154.0
25.9912 125.0
26.0749 65.0
26.1586 55.0
26.2423 39.0
26.326 28.0
26.4098 38.0
26.4935 10.0
26.5772 18.0
26.6609 23.0
26.7446 20.0
26.8283 19.0
26.912 18.0
26.9957 20.0
27.0794 17.0
27.1631 15.0
27.2468 12.0
27.3305 13.0
27.4142 7.0
27.4979 17.0
27.5816 15.0
27.6653 11.0
27.749 18.0
27.8327 21.0
27.9165 14.0
28.0002 12.0
28.0839 18.0
28.1676 12.0
28.2513 5.0
28.335 14.0
28.4187 15.0
28.5024 6.0
28.5861 9.0
28.6698 10.0
28.7535 15.0
28.8372 13.0
28.9209 11.0
29.0046 9.0
29.0883 12.0
29.172 8.0
29.2557 9.0
29.3394 17.0
29.4232 8.0
29.5069 11.0
29.5906 12.0
29.6743 15.0
29.758 9.0
29.8417 11.0
29.9254 13.0
30.0091 13.0
30.0928 12.0
30.1765 8.0
30.2602 14.0
30.3439 10.0
30.4276 3.0
30.5113 9.0
30.595 5.0
30.6787 11.0
30.7624 9.0
30.8461 10.0
30.9298 11.0
31.0136 14.0
31.0973 15.0
31.181 15.0
31.2647 12.0
31.3484 11.0
31.4321 12.0
31.5158 9.0
31.5995 4.0
31.6832 10.0
31.7669 9.0
31.8506 10.0
31.9343 11.0
32.018 7.0
32.1017 10.0
32.1854 10.0
32.2691 7.0
32.3528 13.0
32.4365 7.0
32.5203 11.0
32.604 5.0
32.6877 7.0
32.7714 6.0
32.8551 10.0
32.9388 7.0
33.0225 13.0
33.1062 12.0
33.1899 12.0
33.2736 8.0
33.3573 9.0
33.441 7.0
33.5247 11.0
33.6084 6.0
33.6921 7.0
33.7758 8.0
33.8595 4.0
33.9432 8.0
34.027 9.0
34.1107 10.0
34.1944 7.0
34.2781 9.0
34.3618 13.0
34.4455 4.0
34.5292 13.0
34.6129 18.0
34.6966 7.0
34.7803 15.0
34.864 6.0
34.9477 8.0
35.0314 15.0
35.1151 8.0
35.1988 8.0
35.2825 9.0
35.3662 13.0
35.4499 7.0
35.5337 4.0
35.6174 11.0
35.7011 4.0
35.7848 15.0
35.8685 12.0
35.9522 10.0
36.0359 7.0
36.1196 10.0
36.2033 12.0
36.287 10.0
36.3707 9.0
36.4544 10.0
36.5381 11.0
36.6218 11.0
36.7055 11.0
36.7892 12.0
36.8729 14.0
36.9566 8.0
37.0404 7.0
37.1241 12.0
37.2078 10.0
37.2915 12.0
37.3752 13.0
37.4589 8.0
37.5426 13.0
37.6263 11.0
37.71 9.0
37.7937 12.0
37.8774 16.0
37.9611 11.0
38.0448 13.0
38.1285 11.0
38.2122 14.0
38.2959 10.0
38.3796 13.0
38.4633 8.0
38.5471 14.0
38.6308 14.0
38.7145 10.0
38.7982 7.0
38.8819 13.0
38.9656 8.0
39.0493 12.0
39.133 8.0
39.2167 11.0
39.3004 12.0
39.3841 7.0
39.4678 16.0
39.5515 11.0
39.6352 17.0
39.7189 6.0
39.8026 7.0
39.8863 14.0
39.97 4.0
40.0538 9.0
40.1375 4.0
40.2212 12.0
40.3049 14.0
40.3886 10.0
40.4723 12.0
40.556 12.0
40.6397 9.0
40.7234 10.0
40.8071 12.0
40.8908 15.0
40.9745 10.0
41.0582 13.0
41.1419 16.0
41.2256 14.0
41.3093 11.0
41.393 7.0
41.4767 14.0
41.5605 6.0
41.6442 14.0
41.7279 8.0
41.8116 7.0
41.8953 9.0
41.979 7.0
42.0627 6.0
42.1464 15.0
42.2301 11.0
42.3138 5.0
42.3975 10.0
42.4812 12.0
42.5649 10.0
42.6486 13.0
42.7323 10.0
42.816 7.0
42.8997 10.0
42.9834 5.0
43.0672 10.0
43.1509 11.0
43.2346 11.0
43.3183 13.0
43.402 9.0
43.4857 12.0
43.5694 13.0
43.6531 16.0
43.7368 17.0
43.8205 9.0
43.9042 12.0
43.9879 11.0
44.0716 16.0
44.1553 11.0
44.239 15.0
44.3227 20.0
44.4064 14.0
44.4901 15.0
44.5739 19.0
44.6576 14.0
44.7413 19.0
44.825 17.0
44.9087 16.0
44.9924 14.0
45.0761 7.0
45.1598 16.0
45.2435 10.0
45.3272 9.0
45.4109 12.0
45.4946 12.0
45.5783 10.0
45.662 11.0
45.7457 12.0
45.8294 17.0
45.9131 14.0
45.9968 9.0
46.0806 17.0
46.1643 9.0
46.248 13.0
46.3317 14.0
46.4154 7.0
46.4991 13.0
46.5828 18.0
46.6665 12.0
46.7502 13.0
46.8339 10.0
46.9176 19.0
47.0013 18.0
47.085 122.0
47.1687 40.0
47.2524 15.0
47.3361 16.0
47.4198 17.0
47.5035 9.0
47.5873 23.0
47.671 20.0
47.7547 16.0
47.8384 10.0
47.9221 12.0
48.0058 14.0
48.0895 16.0
48.1732 15.0
48.2569 14.0
48.3406 15.0
48.4243 7.0
48.508 13.0
48.5917 20.0
48.6754 8.0
48.7591 18.0
48.8428 16.0
48.9265 22.0
49.0102 23.0
49.094 26.0
49.1777 15.0
49.2614 18.0
49.3451 37.0
49.4288 37.0
49.5125 54.0
49.5962 62.0
49.6799 123.0
49.7636 207.0
49.8473 548.0
49.931 1202.0
50.0147 970.0
50.0984 745.0
50.1821 512.0
50.2658 127.0
50.3495 74.0
50.4332 46.0
50.5169 66.0
50.6007 53.0
50.6844 24.0
50.7681 35.0
50.8518 34.0
50.9355 37.0
51.0192 28.0
51.1029 29.0
51.1866 34.0
51.2703 39.0
51.354 46.0
51.4377 41.0
51.5214 55.0
51.6051 53.0
51.6888 60.0
51.7725 67.0
51.8562 91.0
51.9399 73.0
52.0236 114.0
52.1074 148.0
52.1911 283.0
52.2748 536.0
52.3585 667.0
52.4422 4465.0
52.5259 28903.0
52.6096 14290.0
52.6933 3324.0
52.777 603.0
52.8607 315.0
52.9444 187.0
53.0281 128.0
53.1118 120.0
53.1955 100.0
53.2792 98.0
53.3629 68.0
53.4466 83.0
53.5303 57.0
53.6141 59.0
53.6978 53.0
53.7815 49.0
53.8652 42.0
53.9489 34.0
54.0326 21.0
54.1163 28.0
54.2 35.0
54.2837 27.0
54.3674 22.0
54.4511 18.0
54.5348 19.0
54.6185 17.0
54.7022 17.0
54.7859 16.0
54.8696 23.0
54.9533 17.0
55.037 14.0
55.1208 18.0
55.2045 18.0
55.2882 12.0
55.3719 14.0
55.4556 13.0
55.5393 17.0
55.623 9.0
55.7067 7.0
55.7904 17.0
55.8741 13.0
55.9578 17.0
56.0415 8.0
56.1252 13.0
56.2089 15.0
56.2926 10.0
56.3763 8.0
56.46 14.0
56.5437 14.0
56.6275 12.0
56.7112 7.0
56.7949 15.0
56.8786 19.0
56.9623 21.0
57.046 14.0
57.1297 15.0
57.2134 13.0
57.2971 17.0
57.3808 12.0
57.4645 15.0
57.5482 18.0
57.6319 12.0
57.7156 13.0
57.7993 8.0
57.883 13.0
57.9667 9.0
58.0504 8.0
58.1342 13.0
58.2179 8.0
58.3016 7.0
58.3853 16.0
58.469 14.0
58.5527 11.0
58.6364 11.0
58.7201 13.0
58.8038 12.0
58.8875 12.0
58.9712 14.0
59.0549 12.0
59.1386 15.0
59.2223 10.0
59.306 10.0
59.3897 9.0
59.4734 11.0
59.5571 9.0
59.6409 13.0
59.7246 9.0
59.8083 13.0
59.892 10.0
59.9757 10.0
60.0594 9.0
60.1431 13.0
60.2268 10.0
60.3105 13.0
60.3942 12.0
60.4779 13.0
60.5616 9.0
60.6453 16.0
60.729 12.0
60.8127 11.0
60.8964 13.0
60.9801 10.0
61.0638 12.0
61.1476 12.0
61.2313 9.0
61.315 9.0
61.3987 19.0
61.4824 9.0
61.5661 12.0
61.6498 15.0
61.7335 13.0
61.8172 9.0
61.9009 3.0
61.9846 12.0
62.0683 10.0
62.152 9.0
62.2357 15.0
62.3194 10.0
62.4031 9.0
62.4868 16.0
62.5705 11.0
62.6543 15.0
62.738 8.0
62.8217 10.0
62.9054 13.0
62.9891 13.0
63.0728 7.0
63.1565 15.0
63.2402 12.0
63.3239 11.0
63.4076 11.0
63.4913 21.0
63.575 11.0
63.6587 10.0
63.7424 15.0
63.8261 11.0
63.9098 8.0
63.9935 12.0
64.0772 10.0
64.161 10.0
64.2447 16.0
64.3284 9.0
64.4121 12.0
64.4958 17.0
64.5795 15.0
64.6632 9.0
64.7469 15.0
64.8306 11.0
64.9143 10.0
64.998 11.0
65.0817 13.0
65.1654 16.0
65.2491 11.0
65.3328 11.0
65.4165 10.0
65.5002 10.0
65.5839 11.0
65.6677 14.0
65.7514 12.0
65.8351 13.0
65.9188 9.0
66.0025 12.0
66.0862 8.0
66.1699 10.0
66.2536 15.0
66.3373 10.0
66.421 10.0
66.5047 18.0
66.5884 8.0
66.6721 5.0
66.7558 11.0
66.8395 4.0
66.9232 10.0
67.0069 15.0
67.0906 8.0
67.1744 12.0
67.2581 16.0
67.3418 11.0
67.4255 14.0
67.5092 7.0
67.5929 8.0
67.6766 17.0
67.7603 13.0
67.844 9.0
67.9277 6.0
68.0114 11.0
68.0951 14.0
68.1788 11.0
68.2625 13.0
68.3462 11.0
68.4299 17.0
68.5136 11.0
68.5973 9.0
68.6811 11.0
68.7648 11.0
68.8485 23.0
68.9322 14.0
69.0159 12.0
69.0996 20.0
69.1833 12.0
69.267 7.0
69.3507 12.0
69.4344 6.0
69.5181 14.0
69.6018 13.0
69.6855 12.0
69.7692 9.0
69.8529 11.0
69.9366 9.0
70.0203 13.0
70.104 3.0
70.1878 9.0
70.2715 17.0
70.3552 8.0
70.4389 11.0
70.5226 17.0
70.6063 11.0
70.69 9.0
70.7737 15.0
70.8574 12.0
70.9411 9.0
71.0248 13.0
71.1085 6.0
71.1922 13.0
71.2759 13.0
71.3596 16.0
71.4433 13.0
71.527 8.0
71.6107 11.0
71.6945 12.0
71.7782 15.0
71.8619 6.0
71.9456 14.0
72.0293 8.0
72.113 12.0
72.1967 12.0
72.2804 12.0
72.3641 11.0
72.4478 14.0
72.5315 7.0
72.6152 13.0
72.6989 8.0
72.7826 9.0
72.8663 10.0
72.95 8.0
73.0337 8.0
73.1174 8.0
73.2012 12.0
73.2849 13.0
73.3686 8.0
73.4523 12.0
73.536 12.0
73.6197 11.0
73.7034 19.0
73.7871 15.0
73.8708 13.0
73.9545 21.0
74.0382 14.0
74.1219 9.0
74.2056 18.0
74.2893 9.0
74.373 11.0
74.4567 14.0
74.5404 21.0
74.6241 11.0
74.7079 18.0
74.7916 10.0
74.8753 12.0
74.959 15.0
75.0427 14.0
75.1264 14.0
75.2101 13.0
75.2938 15.0
75.3775 14.0
75.4612 9.0
75.5449 16.0
75.6286 16.0
75.7123 11.0
75.796 18.0
75.8797 3.0
75.9634 14.0
76.0471 9.0
76.1308 9.0
76.2146 11.0
76.2983 14.0
76.382 11.0
76.4657 7.0
76.5494 18.0
76.6331 12.0
76.7168 12.0
76.8005 14.0
76.8842 17.0
76.9679 15.0
77.0516 14.0
77.1353 8.0
77.219 14.0
77.3027 11.0
77.3864 15.0
77.4701 18.0
77.5538 12.0
77.6375 12.0
77.7213 16.0
77.805 12.0
77.8887 16.0
77.9724 12.0
78.0561 16.0
78.1398 16.0
78.2235 21.0
78.3072 28.0
78.3909 22.0
78.4746 40.0
78.5583 68.0
78.642 81.0
78.7257 65.0
78.8094 59.0
78.8931 55.0
78.9768 44.0
79.0605 24.0
79.1442 11.0
79.228 12.0
79.3117 14.0
79.3954 15.0
79.4791 10.0
79.5628 15.0
79.6465 13.0
79.7302 16.0
79.8139 9.0
79.8976 14.0
79.9813 14.0
80.065 11.0
80.1487 17.0
80.2324 14.0
80.3161 16.0
80.3998 8.0
80.4835 25.0
80.5672 20.0
80.6509 12.0
80.7347 11.0
80.8184 9.0
80.9021 9.0
80.9858 15.0
81.0695 14.0
81.1532 12.0
81.2369 18.0
81.3206 17.0
81.4043 7.0
81.488 19.0
81.5717 14.0
81.6554 23.0
81.7391 14.0
81.8228 14.0
81.9065 13.0
81.9902 13.0
82.0739 15.0
82.1576 15.0
82.2414 12.0
82.3251 17.0
82.4088 18.0
82.4925 22.0
82.5762 22.0
82.6599 13.0
82.7436 22.0
82.8273 25.0
82.911 36.0
82.9947 31.0
83.0784 138.0
83.1621 2294.0
83.2458 313.0
83.3295 120.0
83.4132 1027.0
83.4969 164.0
83.5806 47.0
83.6643 31.0
83.7481 25.0
83.8318 19.0
83.9155 28.0
83.9992 13.0
84.0829 29.0
84.1666 22.0
84.2503 17.0
84.334 17.0
84.4177 17.0
84.5014 16.0
84.5851 21.0
84.6688 19.0
84.7525 13.0
84.8362 14.0
84.9199 7.0
85.0036 12.0
85.0873 14.0
85.171 9.0
85.2548 17.0
85.3385 11.0
85.4222 22.0
85.5059 14.0
85.5896 12.0
85.6733 16.0
85.757 14.0
85.8407 10.0
85.9244 19.0
86.0081 13.0
86.0918 11.0
86.1755 16.0
86.2592 14.0
86.3429 7.0
86.4266 15.0
86.5103 14.0
86.594 22.0
86.6777 14.0
86.7615 9.0
86.8452 10.0
86.9289 3.0
87.0126 11.0
87.0963 12.0
87.18 7.0
87.2637 12.0
87.3474 11.0
87.4311 15.0
87.5148 10.0
87.5985 11.0
87.6822 13.0
87.7659 8.0
87.8496 15.0
87.9333 10.0
88.017 11.0
88.1007 13.0
88.1844 12.0
88.2682 10.0
88.3519 16.0
88.4356 15.0
88.5193 14.0
88.603 17.0
88.6867 8.0
88.7704 6.0
88.8541 12.0
88.9378 12.0
89.0215 21.0
89.1052 10.0
89.1889 10.0
89.2726 14.0
89.3563 13.0
89.44 11.0
89.5237 11.0
89.6074 12.0
89.6911 17.0
89.7749 15.0
89.8586 7.0
89.9423 14.0
90.026 10.0
90.1097 13.0
90.1934 9.0
90.2771 11.0
90.3608 18.0
90.4445 13.0
90.5282 10.0
90.6119 8.0
90.6956 17.0
90.7793 9.0
90.863 17.0
90.9467 8.0
91.0304 12.0
91.1141 16.0
91.1978 15.0
91.2816 16.0
91.3653 9.0
91.449 15.0
91.5327 12.0
91.6164 11.0
91.7001 21.0
91.7838 10.0
91.8675 17.0
91.9512 11.0
92.0349 13.0
92.1186 13.0
92.2023 14.0
92.286 13.0
92.3697 13.0
92.4534 9.0
92.5371 22.0
92.6208 15.0
92.7045 16.0
92.7883 13.0
92.872 13.0
92.9557 15.0
93.0394 13.0
93.1231 10.0
93.2068 12.0
93.2905 16.0
93.3742 10.0
93.4579 9.0
93.5416 12.0
93.6253 12.0
93.709 14.0
93.7927 16.0
93.8764 11.0
93.9601 17.0
94.0438 13.0
94.1275 8.0
94.2112 12.0
94.295 11.0
94.3787 15.0
94.4624 9.0
94.5461 5.0
94.6298 14.0
94.7135 9.0
94.7972 13.0
94.8809 11.0
94.9646 11.0
95.0483 8.0
95.132 10.0
95.2157 15.0
95.2994 10.0
95.3831 8.0
95.4668 13.0
95.5505 15.0
95.6342 8.0
95.7179 10.0
95.8017 10.0
95.8854 6.0
95.9691 14.0
96.0528 23.0
96.1365 13.0
96.2202 14.0
96.3039 11.0
96.3876 6.0
96.4713 13.0
96.555 24.0
96.6387 15.0
96.7224 15.0
96.8061 13.0
96.8898 11.0
96.9735 19.0
97.0572 14.0
97.1409 8.0
97.2246 10.0
97.3084 17.0
97.3921 10.0
97.4758 10.0
97.5595 10.0
97.6432 8.0
97.7269 22.0
97.8106 20.0
97.8943 17.0
97.978 18.0
98.0617 14.0
98.1454 15.0
98.2291 15.0
98.3128 13.0
98.3965 13.0
98.4802 12.0
98.5639 14.0
98.6476 10.0
98.7313 12.0
98.8151 13.0
98.8988 16.0
98.9825 6.0
99.0662 15.0
99.1499 13.0
99.2336 14.0
99.3173 12.0
99.401 16.0
99.4847 11.0
99.5684 17.0
99.6521 9.0
99.7358 14.0
99.8195 10.0
99.9032 10.0
99.9869 10.0
100.071 16.0
100.154 18.0
100.238 7.0
100.322 14.0
100.405 15.0
100.489 10.0
100.573 8.0
100.657 22.0
100.74 10.0
100.824 17.0
100.908 10.0
100.991 15.0
101.075 18.0
101.159 15.0
101.243 23.0
101.326 12.0
101.41 12.0
101.494 21.0
101.577 11.0
101.661 9.0
101.745 13.0
101.828 19.0
101.912 19.0
101.996 23.0
102.08 11.0
102.163 17.0
102.247 12.0
102.331 19.0
102.414 15.0
102.498 20.0
102.582 18.0
102.666 19.0
102.749 13.0
102.833 12.0
102.917 8.0
103 14.0
103.084 20.0
103.168 22.0
103.251 12.0
103.335 16.0
103.419 4.0
103.503 18.0
103.586 9.0
103.67 10.0
103.754 7.0
103.837 17.0
103.921 14.0
104.005 14.0
104.089 10.0
104.172 15.0
104.256 8.0
104.34 14.0
104.423 19.0
104.507 10.0
104.591 16.0
104.674 19.0
104.758 23.0
104.842 13.0
104.926 8.0
105.009 16.0
105.093 8.0
105.177 12.0
105.26 16.0
105.344 12.0
105.428 18.0
105.511 9.0
105.595 11.0
105.679 12.0
105.763 17.0
105.846 10.0
105.93 25.0
106.014 16.0
106.097 23.0
106.181 22.0
106.265 30.0
106.349 15.0
106.432 16.0
106.516 14.0
106.6 13.0
106.683 18.0
106.767 8.0
106.851 10.0
106.934 17.0
107.018 17.0
107.102 15.0
107.186 15.0
107.269 14.0
107.353 20.0
107.437 10.0
107.52 6.0
107.604 10.0
107.688 14.0
107.772 15.0
107.855 11.0
107.939 13.0
108.023 18.0
108.106 10.0
108.19 12.0
108.274 18.0
108.357 18.0
108.441 14.0
108.525 13.0
108.609 15.0
108.692 12.0
108.776 21.0
108.86 11.0
108.943 16.0
109.027 13.0
109.111 13.0
109.195 9.0
109.278 24.0
109.362 16.0
109.446 16.0
109.529 15.0
109.613 10.0
109.697 13.0
109.78 14.0
109.864 9.0
109.948 21.0
110.032 11.0
110.115 9.0
110.199 14.0
110.283 15.0
110.366 9.0
110.45 12.0
110.534 10.0
110.618 18.0
110.701 12.0
110.785 20.0
110.869 23.0
110.952 9.0
111.036 24.0
111.12 17.0
111.203 11.0
111.287 15.0
111.371 13.0
111.455 21.0
111.538 8.0
111.622 8.0
111.706 18.0
111.789 14.0
111.873 17.0
111.957 14.0
112.041 15.0
112.124 11.0
112.208 11.0
112.292 10.0
112.375 20.0
112.459 8.0
112.543 15.0
112.626 16.0
112.71 15.0
112.794 14.0
112.878 10.0
112.961 9.0
113.045 8.0
113.129 13.0
113.212 18.0
113.296 17.0
113.38 20.0
113.464 11.0
113.547 17.0
113.631 19.0
113.715 16.0
113.798 14.0
113.882 22.0
113.966 8.0
114.049 10.0
114.133 15.0
114.217 10.0
114.301 15.0
114.384 10.0
114.468 19.0
114.552 17.0
114.635 12.0
114.719 16.0
114.803 20.0
114.887 14.0
114.97 17.0
115.054 27.0
115.138 16.0
115.221 17.0
115.305 20.0
115.389 16.0
115.472 18.0
115.556 20.0
115.64 23.0
115.724 23.0
115.807 31.0
115.891 32.0
115.975 31.0
116.058 58.0
116.142 32.0
116.226 26.0
116.31 18.0
116.393 18.0
116.477 18.0
116.561 9.0
116.644 12.0
116.728 11.0
116.812 11.0
116.895 22.0
116.979 15.0
117.063 10.0
117.147 15.0
117.23 11.0
117.314 9.0
117.398 18.0
117.481 24.0
117.565 21.0
117.649 17.0
117.733 24.0
117.816 22.0
117.9 18.0
117.984 4.0
118.067 11.0
118.151 12.0
118.235 15.0
118.318 20.0
118.402 18.0
118.486 15.0
118.57 17.0
118.653 12.0
118.737 19.0
118.821 19.0
118.904 17.0
118.988 25.0
119.072 28.0
119.156 16.0
119.239 20.0
119.323 13.0
119.407 18.0
119.49 10.0
119.574 13.0
119.658 13.0
119.741 16.0
119.825 18.0
119.909 20.0
119.993 17.0
120.076 20.0
120.16 14.0
120.244 20.0
120.327 11.0
120.411 19.0
120.495 12.0
120.578 15.0
120.662 22.0
120.746 14.0
120.83 18.0
120.913 16.0
120.997 23.0
121.081 7.0
121.164 26.0
121.248 17.0
121.332 19.0
121.416 14.0
121.499 17.0
121.583 15.0
121.667 21.0
121.75 19.0
121.834 18.0
121.918 14.0
122.001 13.0
122.085 24.0
122.169 21.0
122.253 28.0
122.336 16.0
122.42 21.0
122.504 19.0
122.587 20.0
122.671 25.0
122.755 31.0
122.839 28.0
122.922 27.0
123.006 26.0
123.09 29.0
123.173 24.0
123.257 36.0
123.341 31.0
123.424 31.0
123.508 51.0
123.592 47.0
123.676 54.0
123.759 81.0
123.843 69.0
123.927 50.0
124.01 60.0
124.094 62.0
124.178 107.0
124.262 174.0
124.345 292.0
124.429 633.0
124.513 2526.0
124.596 10058.0
124.68 2154.0
124.764 640.0
124.847 332.0
124.931 376.0
125.015 734.0
125.099 3615.0
125.182 2848.0
125.266 641.0
125.35 289.0
125.433 129.0
125.517 79.0
125.601 79.0
125.685 67.0
125.768 49.0
125.852 52.0
125.936 45.0
126.019 45.0
126.103 38.0
126.187 42.0
126.27 26.0
126.354 28.0
126.438 33.0
126.522 34.0
126.605 19.0
126.689 31.0
126.773 27.0
126.856 23.0
126.94 26.0
127.024 28.0
127.108 19.0
127.191 33.0
127.275 26.0
127.359 27.0
127.442 22.0
127.526 26.0
127.61 20.0
127.693 20.0
127.777 23.0
127.861 24.0
127.945 20.0
128.028 19.0
128.112 23.0
128.196 13.0
128.279 17.0
128.363 20.0
128.447 12.0
128.531 18.0
128.614 18.0
128.698 12.0
128.782 22.0
128.865 17.0
128.949 15.0
129.033 23.0
129.116 29.0
129.2 17.0
129.284 12.0
129.368 12.0
129.451 28.0
129.535 21.0
129.619 15.0
129.702 20.0
129.786 16.0
129.87 18.0
129.954 23.0
129.998 15.0