File: data/W6902m/XRD_2ThetaOmega/scan_2th-om_m_Cr2O3_55-75deg_PIXscan_4min_C3.xy
55.0019 106.0
55.0166 115.0
55.0314 110.0
55.0462 118.0
55.0609 120.0
55.0757 135.0
55.0905 116.0
55.1053 147.0
55.12 121.0
55.1348 109.0
55.1496 116.0
55.1643 130.0
55.1791 124.0
55.1939 130.0
55.2087 133.0
55.2234 110.0
55.2382 115.0
55.253 124.0
55.2678 131.0
55.2825 134.0
55.2973 120.0
55.3121 114.0
55.3268 120.0
55.3416 108.0
55.3564 110.0
55.3712 123.0
55.3859 133.0
55.4007 129.0
55.4155 121.0
55.4302 135.0
55.445 96.0
55.4598 109.0
55.4746 107.0
55.4893 120.0
55.5041 122.0
55.5189 132.0
55.5336 114.0
55.5484 102.0
55.5632 136.0
55.578 129.0
55.5927 115.0
55.6075 131.0
55.6223 106.0
55.637 108.0
55.6518 98.0
55.6666 138.0
55.6814 137.0
55.6961 117.0
55.7109 123.0
55.7257 127.0
55.7404 120.0
55.7552 108.0
55.77 109.0
55.7848 136.0
55.7995 92.0
55.8143 93.0
55.8291 127.0
55.8438 108.0
55.8586 122.0
55.8734 113.0
55.8882 116.0
55.9029 127.0
55.9177 115.0
55.9325 121.0
55.9472 125.0
55.962 117.0
55.9768 105.0
55.9916 118.0
56.0063 109.0
56.0211 116.0
56.0359 107.0
56.0506 113.0
56.0654 100.0
56.0802 133.0
56.095 135.0
56.1097 114.0
56.1245 111.0
56.1393 100.0
56.154 112.0
56.1688 116.0
56.1836 127.0
56.1984 128.0
56.2131 93.0
56.2279 137.0
56.2427 118.0
56.2574 125.0
56.2722 124.0
56.287 115.0
56.3018 113.0
56.3165 120.0
56.3313 130.0
56.3461 115.0
56.3608 111.0
56.3756 114.0
56.3904 109.0
56.4052 118.0
56.4199 114.0
56.4347 104.0
56.4495 123.0
56.4642 115.0
56.479 109.0
56.4938 128.0
56.5086 113.0
56.5233 111.0
56.5381 119.0
56.5529 91.0
56.5676 102.0
56.5824 134.0
56.5972 103.0
56.612 127.0
56.6267 135.0
56.6415 128.0
56.6563 114.0
56.671 115.0
56.6858 134.0
56.7006 117.0
56.7154 122.0
56.7301 107.0
56.7449 86.0
56.7597 115.0
56.7745 103.0
56.7892 112.0
56.804 113.0
56.8188 135.0
56.8335 131.0
56.8483 124.0
56.8631 123.0
56.8779 124.0
56.8926 124.0
56.9074 106.0
56.9222 117.0
56.9369 119.0
56.9517 129.0
56.9665 116.0
56.9813 126.0
56.996 117.0
57.0108 114.0
57.0256 129.0
57.0403 112.0
57.0551 123.0
57.0699 154.0
57.0847 130.0
57.0994 122.0
57.1142 153.0
57.129 112.0
57.1437 125.0
57.1585 132.0
57.1733 120.0
57.1881 128.0
57.2028 106.0
57.2176 116.0
57.2324 120.0
57.2471 120.0
57.2619 126.0
57.2767 103.0
57.2915 102.0
57.3062 132.0
57.321 102.0
57.3358 117.0
57.3505 114.0
57.3653 122.0
57.3801 131.0
57.3949 112.0
57.4096 120.0
57.4244 111.0
57.4392 110.0
57.4539 112.0
57.4687 102.0
57.4835 96.0
57.4983 122.0
57.513 123.0
57.5278 126.0
57.5426 129.0
57.5573 124.0
57.5721 130.0
57.5869 124.0
57.6017 137.0
57.6164 108.0
57.6312 111.0
57.646 125.0
57.6607 144.0
57.6755 111.0
57.6903 97.0
57.7051 112.0
57.7198 107.0
57.7346 129.0
57.7494 152.0
57.7641 123.0
57.7789 119.0
57.7937 126.0
57.8085 116.0
57.8232 118.0
57.838 125.0
57.8528 115.0
57.8675 135.0
57.8823 120.0
57.8971 131.0
57.9119 134.0
57.9266 156.0
57.9414 125.0
57.9562 128.0
57.9709 134.0
57.9857 125.0
58.0005 153.0
58.0153 139.0
58.03 124.0
58.0448 119.0
58.0596 135.0
58.0743 127.0
58.0891 117.0
58.1039 119.0
58.1187 116.0
58.1334 115.0
58.1482 108.0
58.163 107.0
58.1777 113.0
58.1925 129.0
58.2073 111.0
58.2221 122.0
58.2368 150.0
58.2516 105.0
58.2664 144.0
58.2812 105.0
58.2959 114.0
58.3107 127.0
58.3255 124.0
58.3402 133.0
58.355 124.0
58.3698 114.0
58.3846 125.0
58.3993 121.0
58.4141 115.0
58.4289 133.0
58.4436 108.0
58.4584 123.0
58.4732 95.0
58.488 136.0
58.5027 125.0
58.5175 109.0
58.5323 134.0
58.547 117.0
58.5618 124.0
58.5766 109.0
58.5914 113.0
58.6061 121.0
58.6209 128.0
58.6357 116.0
58.6504 123.0
58.6652 121.0
58.68 135.0
58.6948 126.0
58.7095 106.0
58.7243 118.0
58.7391 137.0
58.7538 108.0
58.7686 115.0
58.7834 116.0
58.7982 116.0
58.8129 110.0
58.8277 109.0
58.8425 121.0
58.8572 132.0
58.872 113.0
58.8868 124.0
58.9016 130.0
58.9163 120.0
58.9311 122.0
58.9459 114.0
58.9606 111.0
58.9754 127.0
58.9902 132.0
59.005 135.0
59.0197 120.0
59.0345 109.0
59.0493 144.0
59.064 117.0
59.0788 124.0
59.0936 91.0
59.1084 121.0
59.1231 124.0
59.1379 111.0
59.1527 105.0
59.1674 113.0
59.1822 103.0
59.197 136.0
59.2118 104.0
59.2265 121.0
59.2413 147.0
59.2561 118.0
59.2708 119.0
59.2856 120.0
59.3004 120.0
59.3152 116.0
59.3299 127.0
59.3447 114.0
59.3595 122.0
59.3742 133.0
59.389 103.0
59.4038 127.0
59.4186 123.0
59.4333 105.0
59.4481 150.0
59.4629 123.0
59.4776 123.0
59.4924 121.0
59.5072 127.0
59.522 113.0
59.5367 114.0
59.5515 120.0
59.5663 105.0
59.581 131.0
59.5958 125.0
59.6106 128.0
59.6254 137.0
59.6401 135.0
59.6549 102.0
59.6697 113.0
59.6844 118.0
59.6992 106.0
59.714 123.0
59.7288 112.0
59.7435 120.0
59.7583 134.0
59.7731 133.0
59.7878 128.0
59.8026 127.0
59.8174 143.0
59.8322 122.0
59.8469 116.0
59.8617 113.0
59.8765 133.0
59.8913 120.0
59.906 125.0
59.9208 118.0
59.9356 137.0
59.9503 116.0
59.9651 127.0
59.9799 140.0
59.9947 116.0
60.0094 135.0
60.0242 142.0
60.039 112.0
60.0537 127.0
60.0685 134.0
60.0833 118.0
60.0981 123.0
60.1128 132.0
60.1276 127.0
60.1424 114.0
60.1571 123.0
60.1719 117.0
60.1867 132.0
60.2015 110.0
60.2162 122.0
60.231 133.0
60.2458 116.0
60.2605 132.0
60.2753 119.0
60.2901 136.0
60.3049 165.0
60.3196 128.0
60.3344 134.0
60.3492 131.0
60.3639 126.0
60.3787 124.0
60.3935 125.0
60.4083 140.0
60.423 125.0
60.4378 124.0
60.4526 121.0
60.4673 137.0
60.4821 152.0
60.4969 128.0
60.5117 143.0
60.5264 141.0
60.5412 155.0
60.556 132.0
60.5707 129.0
60.5855 129.0
60.6003 134.0
60.6151 132.0
60.6298 144.0
60.6446 133.0
60.6594 150.0
60.6741 137.0
60.6889 136.0
60.7037 154.0
60.7185 151.0
60.7332 169.0
60.748 187.0
60.7628 223.0
60.7775 260.0
60.7923 374.0
60.8071 531.0
60.8219 804.0
60.8366 1026.0
60.8514 1041.0
60.8662 935.0
60.8809 754.0
60.8957 629.0
60.9105 539.0
60.9253 482.0
60.94 433.0
60.9548 355.0
60.9696 281.0
60.9843 231.0
60.9991 200.0
61.0139 160.0
61.0287 179.0
61.0434 169.0
61.0582 174.0
61.073 178.0
61.0877 152.0
61.1025 148.0
61.1173 137.0
61.1321 145.0
61.1468 158.0
61.1616 125.0
61.1764 154.0
61.1911 132.0
61.2059 168.0
61.2207 163.0
61.2355 118.0
61.2502 130.0
61.265 141.0
61.2798 151.0
61.2945 132.0
61.3093 137.0
61.3241 134.0
61.3389 132.0
61.3536 117.0
61.3684 139.0
61.3832 145.0
61.398 133.0
61.4127 128.0
61.4275 157.0
61.4423 135.0
61.457 145.0
61.4718 120.0
61.4866 126.0
61.5014 112.0
61.5161 129.0
61.5309 140.0
61.5457 118.0
61.5604 119.0
61.5752 155.0
61.59 122.0
61.6048 130.0
61.6195 125.0
61.6343 142.0
61.6491 122.0
61.6638 126.0
61.6786 126.0
61.6934 116.0
61.7082 128.0
61.7229 138.0
61.7377 154.0
61.7525 134.0
61.7672 117.0
61.782 135.0
61.7968 137.0
61.8116 125.0
61.8263 131.0
61.8411 139.0
61.8559 127.0
61.8706 128.0
61.8854 147.0
61.9002 133.0
61.915 133.0
61.9297 113.0
61.9445 122.0
61.9593 155.0
61.974 131.0
61.9888 135.0
62.0036 135.0
62.0184 122.0
62.0331 139.0
62.0479 129.0
62.0627 159.0
62.0774 122.0
62.0922 140.0
62.107 143.0
62.1218 122.0
62.1365 121.0
62.1513 127.0
62.1661 116.0
62.1808 141.0
62.1956 122.0
62.2104 146.0
62.2252 141.0
62.2399 132.0
62.2547 133.0
62.2695 141.0
62.2842 120.0
62.299 116.0
62.3138 121.0
62.3286 129.0
62.3433 156.0
62.3581 114.0
62.3729 130.0
62.3876 168.0
62.4024 116.0
62.4172 131.0
62.432 135.0
62.4467 141.0
62.4615 164.0
62.4763 171.0
62.491 122.0
62.5058 127.0
62.5206 128.0
62.5354 144.0
62.5501 129.0
62.5649 134.0
62.5797 148.0
62.5944 130.0
62.6092 123.0
62.624 127.0
62.6388 120.0
62.6535 101.0
62.6683 134.0
62.6831 117.0
62.6978 123.0
62.7126 161.0
62.7274 137.0
62.7422 133.0
62.7569 145.0
62.7717 141.0
62.7865 126.0
62.8012 153.0
62.816 150.0
62.8308 153.0
62.8456 155.0
62.8603 163.0
62.8751 148.0
62.8899 172.0
62.9047 137.0
62.9194 150.0
62.9342 139.0
62.949 155.0
62.9637 154.0
62.9785 149.0
62.9933 133.0
63.0081 161.0
63.0228 141.0
63.0376 142.0
63.0524 159.0
63.0671 142.0
63.0819 157.0
63.0967 151.0
63.1115 151.0
63.1262 130.0
63.141 178.0
63.1558 144.0
63.1705 125.0
63.1853 142.0
63.2001 135.0
63.2149 159.0
63.2296 161.0
63.2444 179.0
63.2592 154.0
63.2739 129.0
63.2887 145.0
63.3035 165.0
63.3183 164.0
63.333 154.0
63.3478 148.0
63.3626 143.0
63.3773 137.0
63.3921 144.0
63.4069 151.0
63.4217 156.0
63.4364 155.0
63.4512 149.0
63.466 168.0
63.4807 156.0
63.4955 155.0
63.5103 170.0
63.5251 142.0
63.5398 162.0
63.5546 159.0
63.5694 168.0
63.5841 162.0
63.5989 167.0
63.6137 201.0
63.6285 170.0
63.6432 139.0
63.658 170.0
63.6728 145.0
63.6875 176.0
63.7023 205.0
63.7171 171.0
63.7319 174.0
63.7466 176.0
63.7614 183.0
63.7762 182.0
63.7909 192.0
63.8057 198.0
63.8205 166.0
63.8353 157.0
63.85 181.0
63.8648 186.0
63.8796 188.0
63.8943 204.0
63.9091 170.0
63.9239 197.0
63.9387 184.0
63.9534 162.0
63.9682 190.0
63.983 185.0
63.9977 179.0
64.0125 199.0
64.0273 189.0
64.0421 182.0
64.0568 225.0
64.0716 227.0
64.0864 241.0
64.1011 206.0
64.1159 231.0
64.1307 232.0
64.1455 264.0
64.1602 245.0
64.175 219.0
64.1898 242.0
64.2045 271.0
64.2193 292.0
64.2341 285.0
64.2489 288.0
64.2636 287.0
64.2784 308.0
64.2932 298.0
64.3079 299.0
64.3227 328.0
64.3375 362.0
64.3523 364.0
64.367 350.0
64.3818 393.0
64.3966 406.0
64.4114 396.0
64.4261 434.0
64.4409 462.0
64.4557 441.0
64.4704 534.0
64.4852 545.0
64.5 527.0
64.5148 554.0
64.5295 645.0
64.5443 634.0
64.5591 692.0
64.5738 756.0
64.5886 818.0
64.6034 854.0
64.6182 991.0
64.6329 1007.0
64.6477 1099.0
64.6625 1250.0
64.6772 1395.0
64.692 1533.0
64.7068 1735.0
64.7216 1916.0
64.7363 2198.0
64.7511 2383.0
64.7659 2636.0
64.7806 2762.0
64.7954 3028.0
64.8102 3205.0
64.825 3403.0
64.8397 3406.0
64.8545 3432.0
64.8693 3612.0
64.884 3508.0
64.8988 3539.0
64.9136 3227.0
64.9284 3241.0
64.9431 3094.0
64.9579 3026.0
64.9727 2832.0
64.9874 2645.0
65.0022 2585.0
65.017 2664.0
65.0318 2420.0
65.0465 2150.0
65.0613 2019.0
65.0761 1904.0
65.0908 1808.0
65.1056 1607.0
65.1204 1403.0
65.1352 1314.0
65.1499 1181.0
65.1647 1048.0
65.1795 941.0
65.1942 874.0
65.209 766.0
65.2238 723.0
65.2386 653.0
65.2533 587.0
65.2681 552.0
65.2829 502.0
65.2976 446.0
65.3124 421.0
65.3272 393.0
65.342 401.0
65.3567 344.0
65.3715 346.0
65.3863 304.0
65.401 292.0
65.4158 305.0
65.4306 295.0
65.4454 262.0
65.4601 302.0
65.4749 240.0
65.4897 288.0
65.5044 236.0
65.5192 264.0
65.534 258.0
65.5488 233.0
65.5635 221.0
65.5783 221.0
65.5931 258.0
65.6078 230.0
65.6226 197.0
65.6374 228.0
65.6522 227.0
65.6669 173.0
65.6817 202.0
65.6965 203.0
65.7112 211.0
65.726 223.0
65.7408 228.0
65.7556 235.0
65.7703 200.0
65.7851 226.0
65.7999 216.0
65.8146 224.0
65.8294 214.0
65.8442 199.0
65.859 186.0
65.8737 182.0
65.8885 198.0
65.9033 217.0
65.9181 202.0
65.9328 200.0
65.9476 229.0
65.9624 207.0
65.9771 226.0
65.9919 224.0
66.0067 209.0
66.0215 234.0
66.0362 198.0
66.051 215.0
66.0658 229.0
66.0805 217.0
66.0953 202.0
66.1101 197.0
66.1249 275.0
66.1396 219.0
66.1544 204.0
66.1692 264.0
66.1839 262.0
66.1987 230.0
66.2135 197.0
66.2283 277.0
66.243 212.0
66.2578 211.0
66.2726 260.0
66.2873 264.0
66.3021 261.0
66.3169 237.0
66.3317 268.0
66.3464 257.0
66.3612 279.0
66.376 230.0
66.3907 285.0
66.4055 229.0
66.4203 306.0
66.4351 290.0
66.4498 265.0
66.4646 291.0
66.4794 284.0
66.4941 280.0
66.5089 278.0
66.5237 307.0
66.5385 291.0
66.5532 293.0
66.568 299.0
66.5828 305.0
66.5975 288.0
66.6123 320.0
66.6271 309.0
66.6419 303.0
66.6566 305.0
66.6714 321.0
66.6862 359.0
66.7009 327.0
66.7157 352.0
66.7305 312.0
66.7453 337.0
66.76 363.0
66.7748 345.0
66.7896 327.0
66.8043 369.0
66.8191 332.0
66.8339 350.0
66.8487 315.0
66.8634 345.0
66.8782 360.0
66.893 392.0
66.9077 372.0
66.9225 354.0
66.9373 356.0
66.9521 367.0
66.9668 374.0
66.9816 338.0
66.9964 373.0
67.0111 382.0
67.0259 441.0
67.0407 372.0
67.0555 399.0
67.0702 376.0
67.085 401.0
67.0998 401.0
67.1145 426.0
67.1293 408.0
67.1441 428.0
67.1589 413.0
67.1736 424.0
67.1884 457.0
67.2032 447.0
67.2179 451.0
67.2327 443.0
67.2475 460.0
67.2623 448.0
67.277 482.0
67.2918 506.0
67.3066 469.0
67.3213 537.0
67.3361 516.0
67.3509 561.0
67.3657 541.0
67.3804 513.0
67.3952 530.0
67.41 532.0
67.4248 592.0
67.4395 604.0
67.4543 586.0
67.4691 592.0
67.4838 648.0
67.4986 622.0
67.5134 624.0
67.5282 638.0
67.5429 703.0
67.5577 701.0
67.5725 702.0
67.5872 678.0
67.602 738.0
67.6168 722.0
67.6316 804.0
67.6463 802.0
67.6611 824.0
67.6759 891.0
67.6906 961.0
67.7054 1035.0
67.7202 1080.0
67.735 1106.0
67.7497 1308.0
67.7645 1509.0
67.7793 1782.0
67.794 2055.0
67.8088 2197.0
67.8236 2380.0
67.8384 2614.0
67.8531 2710.0
67.8679 2674.0
67.8827 2627.0
67.8974 2582.0
67.9122 2532.0
67.927 2623.0
67.9418 2653.0
67.9565 2805.0
67.9713 3063.0
67.9861 3381.0
68.0008 3757.0
68.0156 4338.0
68.0304 5237.0
68.0452 6348.0
68.0599 8043.0
68.0747 10571.0
68.0895 14409.0
68.1042 21757.0
68.119 38663.0
68.1338 86430.0
68.1486 186455.0
68.1633 231456.0
68.1781 234410.0
68.1929 191107.0
68.2076 91264.0
68.2224 47029.0
68.2372 27055.0
68.252 17361.0
68.2667 14242.0
68.2815 13416.0
68.2963 16847.0
68.311 23048.0
68.3258 50785.0
68.3406 83504.0
68.3554 112836.0
68.3701 113439.0
68.3849 87832.0
68.3997 54290.0
68.4144 24946.0
68.4292 15242.0
68.444 9126.0
68.4588 7035.0
68.4735 5119.0
68.4883 4317.0
68.5031 3725.0
68.5178 3331.0
68.5326 3005.0
68.5474 2615.0
68.5622 2402.0
68.5769 2245.0
68.5917 1943.0
68.6065 1923.0
68.6212 1729.0
68.636 1607.0
68.6508 1525.0
68.6656 1402.0
68.6803 1354.0
68.6951 1236.0
68.7099 1152.0
68.7246 1157.0
68.7394 1032.0
68.7542 1096.0
68.769 935.0
68.7837 954.0
68.7985 890.0
68.8133 856.0
68.828 823.0
68.8428 816.0
68.8576 778.0
68.8724 688.0
68.8871 691.0
68.9019 634.0
68.9167 689.0
68.9315 577.0
68.9462 596.0
68.961 560.0
68.9758 598.0
68.9905 549.0
69.0053 539.0
69.0201 500.0
69.0349 519.0
69.0496 519.0
69.0644 482.0
69.0792 472.0
69.0939 521.0
69.1087 451.0
69.1235 442.0
69.1383 403.0
69.153 414.0
69.1678 429.0
69.1826 398.0
69.1973 383.0
69.2121 393.0
69.2269 381.0
69.2417 372.0
69.2564 341.0
69.2712 369.0
69.286 364.0
69.3007 343.0
69.3155 342.0
69.3303 295.0
69.3451 324.0
69.3598 323.0
69.3746 312.0
69.3894 302.0
69.4041 301.0
69.4189 284.0
69.4337 234.0
69.4485 284.0
69.4632 299.0
69.478 298.0
69.4928 276.0
69.5075 216.0
69.5223 260.0
69.5371 265.0
69.5519 256.0
69.5666 219.0
69.5814 224.0
69.5962 259.0
69.6109 221.0
69.6257 221.0
69.6405 200.0
69.6553 217.0
69.67 211.0
69.6848 198.0
69.6996 225.0
69.7143 235.0
69.7291 199.0
69.7439 194.0
69.7587 183.0
69.7734 207.0
69.7882 206.0
69.803 212.0
69.8177 177.0
69.8325 198.0
69.8473 220.0
69.8621 178.0
69.8768 192.0
69.8916 191.0
69.9064 180.0
69.9211 195.0
69.9359 189.0
69.9507 194.0
69.9655 180.0
69.9802 191.0
69.995 199.0
70.0098 183.0
70.0245 190.0
70.0393 186.0
70.0541 189.0
70.0689 152.0
70.0836 178.0
70.0984 184.0
70.1132 172.0
70.1279 190.0
70.1427 157.0
70.1575 174.0
70.1723 166.0
70.187 186.0
70.2018 163.0
70.2166 180.0
70.2313 183.0
70.2461 154.0
70.2609 164.0
70.2757 156.0
70.2904 152.0
70.3052 168.0
70.32 172.0
70.3347 162.0
70.3495 170.0
70.3643 180.0
70.3791 182.0
70.3938 163.0
70.4086 166.0
70.4234 165.0
70.4382 156.0
70.4529 155.0
70.4677 172.0
70.4825 136.0
70.4972 153.0
70.512 164.0
70.5268 171.0
70.5416 139.0
70.5563 135.0
70.5711 155.0
70.5859 154.0
70.6006 127.0
70.6154 145.0
70.6302 165.0
70.645 160.0
70.6597 158.0
70.6745 153.0
70.6893 170.0
70.704 159.0
70.7188 163.0
70.7336 165.0
70.7484 148.0
70.7631 138.0
70.7779 142.0
70.7927 143.0
70.8074 145.0
70.8222 136.0
70.837 140.0
70.8518 147.0
70.8665 167.0
70.8813 128.0
70.8961 159.0
70.9108 166.0
70.9256 159.0
70.9404 145.0
70.9552 140.0
70.9699 151.0
70.9847 174.0
70.9995 154.0
71.0142 158.0
71.029 148.0
71.0438 158.0
71.0586 150.0
71.0733 146.0
71.0881 145.0
71.1029 138.0
71.1176 149.0
71.1324 152.0
71.1472 129.0
71.162 137.0
71.1767 136.0
71.1915 133.0
71.2063 129.0
71.221 149.0
71.2358 147.0
71.2506 135.0
71.2654 148.0
71.2801 140.0
71.2949 142.0
71.3097 160.0
71.3244 132.0
71.3392 148.0
71.354 158.0
71.3688 154.0
71.3835 148.0
71.3983 133.0
71.4131 146.0
71.4278 143.0
71.4426 132.0
71.4574 157.0
71.4722 155.0
71.4869 137.0
71.5017 159.0
71.5165 131.0
71.5312 130.0
71.546 119.0
71.5608 134.0
71.5756 120.0
71.5903 154.0
71.6051 171.0
71.6199 129.0
71.6346 142.0
71.6494 137.0
71.6642 131.0
71.679 125.0
71.6937 149.0
71.7085 135.0
71.7233 138.0
71.738 150.0
71.7528 131.0
71.7676 141.0
71.7824 128.0
71.7971 138.0
71.8119 135.0
71.8267 140.0
71.8414 111.0
71.8562 151.0
71.871 133.0
71.8858 125.0
71.9005 123.0
71.9153 128.0
71.9301 124.0
71.9449 155.0
71.9596 142.0
71.9744 121.0
71.9892 154.0
72.0039 114.0
72.0187 155.0
72.0335 140.0
72.0483 127.0
72.063 144.0
72.0778 133.0
72.0926 148.0
72.1073 139.0
72.1221 120.0
72.1369 136.0
72.1517 128.0
72.1664 134.0
72.1812 136.0
72.196 128.0
72.2107 132.0
72.2255 129.0
72.2403 115.0
72.2551 154.0
72.2698 121.0
72.2846 112.0
72.2994 127.0
72.3141 118.0
72.3289 140.0
72.3437 132.0
72.3585 110.0
72.3732 134.0
72.388 135.0
72.4028 126.0
72.4175 107.0
72.4323 151.0
72.4471 146.0
72.4619 130.0
72.4766 124.0
72.4914 132.0
72.5062 117.0
72.5209 124.0
72.5357 147.0
72.5505 127.0
72.5653 149.0
72.58 147.0
72.5948 142.0
72.6096 101.0
72.6243 131.0
72.6391 135.0
72.6539 125.0
72.6687 134.0
72.6834 112.0
72.6982 126.0
72.713 134.0
72.7277 128.0
72.7425 139.0
72.7573 112.0
72.7721 148.0
72.7868 148.0
72.8016 132.0
72.8164 127.0
72.8311 147.0
72.8459 136.0
72.8607 134.0
72.8755 122.0
72.8902 129.0
72.905 137.0
72.9198 138.0
72.9345 118.0
72.9493 142.0
72.9641 126.0
72.9789 151.0
72.9936 129.0
73.0084 156.0
73.0232 117.0
73.0379 128.0
73.0527 135.0
73.0675 144.0
73.0823 142.0
73.097 141.0
73.1118 134.0
73.1266 128.0
73.1413 103.0
73.1561 128.0
73.1709 148.0
73.1857 140.0
73.2004 131.0
73.2152 146.0
73.23 148.0
73.2447 126.0
73.2595 117.0
73.2743 125.0
73.2891 128.0
73.3038 131.0
73.3186 119.0
73.3334 103.0
73.3481 135.0
73.3629 138.0
73.3777 133.0
73.3925 131.0
73.4072 132.0
73.422 125.0
73.4368 134.0
73.4516 134.0
73.4663 121.0
73.4811 136.0
73.4959 130.0
73.5106 142.0
73.5254 138.0
73.5402 113.0
73.555 124.0
73.5697 136.0
73.5845 130.0
73.5993 114.0
73.614 123.0
73.6288 134.0
73.6436 124.0
73.6584 127.0
73.6731 121.0
73.6879 127.0
73.7027 123.0
73.7174 138.0
73.7322 133.0
73.747 144.0
73.7618 114.0
73.7765 114.0
73.7913 135.0
73.8061 126.0
73.8208 134.0
73.8356 118.0
73.8504 127.0
73.8652 116.0
73.8799 137.0
73.8947 121.0
73.9095 105.0
73.9242 125.0
73.939 129.0
73.9538 118.0
73.9686 147.0
73.9833 132.0
73.9981 108.0
74.0129 139.0
74.0276 101.0
74.0424 120.0
74.0572 124.0
74.072 132.0
74.0867 133.0
74.1015 122.0
74.1163 144.0
74.131 146.0
74.1458 119.0
74.1606 106.0
74.1754 117.0
74.1901 137.0
74.2049 133.0
74.2197 121.0
74.2344 131.0
74.2492 114.0
74.264 128.0
74.2788 119.0
74.2935 118.0
74.3083 133.0
74.3231 117.0
74.3378 133.0
74.3526 137.0
74.3674 108.0
74.3822 124.0
74.3969 136.0
74.4117 132.0
74.4265 133.0
74.4412 106.0
74.456 126.0
74.4708 118.0
74.4856 131.0
74.5003 125.0
74.5151 146.0
74.5299 120.0
74.5446 126.0
74.5594 131.0
74.5742 116.0
74.589 127.0
74.6037 112.0
74.6185 116.0
74.6333 149.0
74.648 134.0
74.6628 162.0
74.6776 129.0
74.6924 114.0
74.7071 121.0
74.7219 142.0
74.7367 123.0
74.7514 125.0
74.7662 125.0
74.781 110.0
74.7958 120.0
74.8105 104.0
74.8253 120.0
74.8401 134.0
74.8548 134.0
74.8696 128.0
74.8844 134.0
74.8992 135.0
74.9139 129.0
74.9287 166.0
74.9435 111.0
74.9583 124.0
74.973 149.0
74.9878 130.0
74.9976 137.0