File: data/W6817c/XRD_Omega/scan_omega_4deg_step_0.005deg0_C4.xy
17.56090 38.0
17.56590 34.0
17.57090 23.0
17.57590 37.0
17.58090 42.0
17.58590 45.0
17.59090 36.0
17.59590 33.0
17.60090 37.0
17.60590 40.0
17.61090 30.0
17.61590 47.0
17.62090 40.0
17.62590 40.0
17.63090 20.0
17.63590 38.0
17.64090 34.0
17.64590 43.0
17.65090 34.0
17.65590 33.0
17.66090 36.0
17.66590 33.0
17.67090 38.0
17.67590 37.0
17.68090 35.0
17.68590 31.0
17.69090 41.0
17.69590 39.0
17.70090 24.0
17.70590 27.0
17.71090 37.0
17.71590 29.0
17.72090 37.0
17.72590 34.0
17.73090 28.0
17.73590 30.0
17.74090 33.0
17.74590 36.0
17.75090 46.0
17.75590 43.0
17.76090 42.0
17.76590 38.0
17.77090 28.0
17.77590 29.0
17.78090 37.0
17.78590 30.0
17.79090 35.0
17.79590 27.0
17.80090 38.0
17.80590 28.0
17.81090 35.0
17.81590 30.0
17.82090 40.0
17.82590 42.0
17.83090 28.0
17.83590 35.0
17.84090 36.0
17.84590 33.0
17.85090 24.0
17.85590 35.0
17.86090 33.0
17.86590 37.0
17.87090 39.0
17.87590 41.0
17.88090 35.0
17.88590 33.0
17.89090 42.0
17.89590 31.0
17.90090 32.0
17.90590 40.0
17.91090 29.0
17.91590 39.0
17.92090 38.0
17.92590 39.0
17.93090 41.0
17.93590 41.0
17.94090 32.0
17.94590 38.0
17.95090 35.0
17.95590 39.0
17.96090 31.0
17.96590 41.0
17.97090 31.0
17.97590 42.0
17.98090 28.0
17.98590 36.0
17.99090 37.0
17.99590 41.0
18.00090 47.0
18.00590 40.0
18.01090 38.0
18.01590 42.0
18.02090 31.0
18.02590 39.0
18.03090 41.0
18.03590 39.0
18.04090 35.0
18.04590 35.0
18.05090 34.0
18.05590 56.0
18.06090 41.0
18.06590 32.0
18.07090 38.0
18.07590 29.0
18.08090 42.0
18.08590 44.0
18.09090 38.0
18.09590 43.0
18.10090 39.0
18.10590 35.0
18.11090 32.0
18.11590 44.0
18.12090 28.0
18.12590 34.0
18.13090 32.0
18.13590 52.0
18.14090 32.0
18.14590 35.0
18.15090 46.0
18.15590 40.0
18.16090 45.0
18.16590 38.0
18.17090 42.0
18.17590 39.0
18.18090 42.0
18.18590 47.0
18.19090 34.0
18.19590 33.0
18.20090 46.0
18.20590 37.0
18.21090 44.0
18.21590 43.0
18.22090 40.0
18.22590 35.0
18.23090 44.0
18.23590 33.0
18.24090 50.0
18.24590 41.0
18.25090 37.0
18.25590 39.0
18.26090 43.0
18.26590 36.0
18.27090 32.0
18.27590 34.0
18.28090 30.0
18.28590 39.0
18.29090 44.0
18.29590 35.0
18.30090 33.0
18.30590 47.0
18.31090 41.0
18.31590 38.0
18.32090 31.0
18.32590 36.0
18.33090 36.0
18.33590 31.0
18.34090 38.0
18.34590 45.0
18.35090 27.0
18.35590 33.0
18.36090 33.0
18.36590 35.0
18.37090 33.0
18.37590 34.0
18.38090 38.0
18.38590 40.0
18.39090 41.0
18.39590 39.0
18.40090 36.0
18.40590 47.0
18.41090 46.0
18.41590 35.0
18.42090 37.0
18.42590 41.0
18.43090 33.0
18.43590 26.0
18.44090 39.0
18.44590 38.0
18.45090 38.0
18.45590 42.0
18.46090 39.0
18.46590 41.0
18.47090 32.0
18.47590 39.0
18.48090 40.0
18.48590 38.0
18.49090 52.0
18.49590 49.0
18.50090 35.0
18.50590 34.0
18.51090 49.0
18.51590 37.0
18.52090 44.0
18.52590 43.0
18.53090 47.0
18.53590 45.0
18.54090 42.0
18.54590 28.0
18.55090 44.0
18.55590 34.0
18.56090 41.0
18.56590 48.0
18.57090 38.0
18.57590 31.0
18.58090 42.0
18.58590 38.0
18.59090 45.0
18.59590 49.0
18.60090 32.0
18.60590 54.0
18.61090 45.0
18.61590 42.0
18.62090 49.0
18.62590 49.0
18.63090 45.0
18.63590 42.0
18.64090 44.0
18.64590 39.0
18.65090 49.0
18.65590 42.0
18.66090 45.0
18.66590 34.0
18.67090 35.0
18.67590 42.0
18.68090 59.0
18.68590 49.0
18.69090 63.0
18.69590 46.0
18.70090 41.0
18.70590 39.0
18.71090 45.0
18.71590 40.0
18.72090 36.0
18.72590 40.0
18.73090 45.0
18.73590 51.0
18.74090 42.0
18.74590 46.0
18.75090 37.0
18.75590 45.0
18.76090 48.0
18.76590 55.0
18.77090 47.0
18.77590 49.0
18.78090 49.0
18.78590 46.0
18.79090 41.0
18.79590 44.0
18.80090 52.0
18.80590 57.0
18.81090 51.0
18.81590 37.0
18.82090 59.0
18.82590 38.0
18.83090 35.0
18.83590 51.0
18.84090 39.0
18.84590 43.0
18.85090 48.0
18.85590 39.0
18.86090 48.0
18.86590 57.0
18.87090 52.0
18.87590 42.0
18.88090 47.0
18.88590 55.0
18.89090 46.0
18.89590 52.0
18.90090 47.0
18.90590 54.0
18.91090 46.0
18.91590 55.0
18.92090 54.0
18.92590 50.0
18.93090 48.0
18.93590 45.0
18.94090 53.0
18.94590 65.0
18.95090 53.0
18.95590 48.0
18.96090 53.0
18.96590 53.0
18.97090 40.0
18.97590 57.0
18.98090 67.0
18.98590 53.0
18.99090 63.0
18.99590 50.0
19.00090 70.0
19.00590 43.0
19.01090 62.0
19.01590 50.0
19.02090 77.0
19.02590 69.0
19.03090 66.0
19.03590 48.0
19.04090 59.0
19.04590 56.0
19.05090 77.0
19.05590 48.0
19.06090 60.0
19.06590 57.0
19.07090 71.0
19.07590 92.0
19.08090 65.0
19.08590 71.0
19.09090 58.0
19.09590 69.0
19.10090 68.0
19.10590 70.0
19.11090 91.0
19.11590 84.0
19.12090 85.0
19.12590 95.0
19.13090 76.0
19.13590 68.0
19.14090 65.0
19.14590 101.0
19.15090 96.0
19.15590 92.0
19.16090 94.0
19.16590 69.0
19.17090 79.0
19.17590 96.0
19.18090 107.0
19.18590 104.0
19.19090 94.0
19.19590 96.0
19.20090 112.0
19.20590 120.0
19.21090 110.0
19.21590 117.0
19.22090 111.0
19.22590 120.0
19.23090 114.0
19.23590 126.0
19.24090 143.0
19.24590 104.0
19.25090 130.0
19.25590 156.0
19.26090 148.0
19.26590 156.0
19.27090 162.0
19.27590 165.0
19.28090 162.0
19.28590 186.0
19.29090 160.0
19.29590 179.0
19.30090 172.0
19.30590 199.0
19.31090 215.0
19.31590 230.0
19.32090 259.0
19.32590 217.0
19.33090 266.0
19.33590 255.0
19.34090 260.0
19.34590 309.0
19.35090 283.0
19.35590 310.0
19.36090 367.0
19.36590 365.0
19.37090 380.0
19.37590 369.0
19.38090 403.0
19.38590 414.0
19.39090 387.0
19.39590 445.0
19.40090 495.0
19.40590 537.0
19.41090 618.0
19.41590 644.0
19.42090 749.0
19.42590 731.0
19.43090 806.0
19.43590 897.0
19.44090 875.0
19.44590 948.0
19.45090 922.0
19.45590 965.0
19.46090 1027.0
19.46590 1077.0
19.47090 1120.0
19.47590 1130.0
19.48090 1229.0
19.48590 1273.0
19.49090 1263.0
19.49590 1319.0
19.50090 1287.0
19.50590 1402.0
19.51090 1445.0
19.51590 1442.0
19.52090 1484.0
19.52590 1540.0
19.53090 1571.0
19.53590 1531.0
19.54090 1530.0
19.54590 1544.0
19.55090 1558.0
19.55590 1542.0
19.56090 1530.0
19.56590 1512.0
19.57090 1428.0
19.57590 1429.0
19.58090 1402.0
19.58590 1358.0
19.59090 1363.0
19.59590 1287.0
19.60090 1261.0
19.60590 1200.0
19.61090 1103.0
19.61590 1107.0
19.62090 1102.0
19.62590 1093.0
19.63090 898.0
19.63590 933.0
19.64090 907.0
19.64590 882.0
19.65090 825.0
19.65590 817.0
19.66090 775.0
19.66590 731.0
19.67090 685.0
19.67590 630.0
19.68090 589.0
19.68590 528.0
19.69090 470.0
19.69590 490.0
19.70090 441.0
19.70590 434.0
19.71090 410.0
19.71590 390.0
19.72090 339.0
19.72590 374.0
19.73090 362.0
19.73590 340.0
19.74090 331.0
19.74590 328.0
19.75090 293.0
19.75590 234.0
19.76090 232.0
19.76590 240.0
19.77090 202.0
19.77590 241.0
19.78090 198.0
19.78590 187.0
19.79090 175.0
19.79590 213.0
19.80090 183.0
19.80590 169.0
19.81090 178.0
19.81590 147.0
19.82090 149.0
19.82590 150.0
19.83090 145.0
19.83590 142.0
19.84090 140.0
19.84590 139.0
19.85090 123.0
19.85590 117.0
19.86090 113.0
19.86590 103.0
19.87090 107.0
19.87590 100.0
19.88090 105.0
19.88590 107.0
19.89090 103.0
19.89590 87.0
19.90090 104.0
19.90590 90.0
19.91090 98.0
19.91590 87.0
19.92090 100.0
19.92590 85.0
19.93090 75.0
19.93590 72.0
19.94090 72.0
19.94590 65.0
19.95090 73.0
19.95590 74.0
19.96090 69.0
19.96590 50.0
19.97090 59.0
19.97590 69.0
19.98090 65.0
19.98590 56.0
19.99090 60.0
19.99590 64.0
20.00090 58.0
20.00590 68.0
20.01090 70.0
20.01590 47.0
20.02090 58.0
20.02590 58.0
20.03090 60.0
20.03590 64.0
20.04090 57.0
20.04590 42.0
20.05090 59.0
20.05590 52.0
20.06090 55.0
20.06590 60.0
20.07090 38.0
20.07590 52.0
20.08090 58.0
20.08590 54.0
20.09090 44.0
20.09590 42.0
20.10090 58.0
20.10590 47.0
20.11090 40.0
20.11590 55.0
20.12090 45.0
20.12590 54.0
20.13090 51.0
20.13590 63.0
20.14090 51.0
20.14590 51.0
20.15090 55.0
20.15590 61.0
20.16090 48.0
20.16590 39.0
20.17090 55.0
20.17590 44.0
20.18090 42.0
20.18590 66.0
20.19090 42.0
20.19590 52.0
20.20090 42.0
20.20590 43.0
20.21090 32.0
20.21590 51.0
20.22090 45.0
20.22590 46.0
20.23090 44.0
20.23590 52.0
20.24090 51.0
20.24590 42.0
20.25090 37.0
20.25590 43.0
20.26090 45.0
20.26590 37.0
20.27090 56.0
20.27590 37.0
20.28090 37.0
20.28590 40.0
20.29090 41.0
20.29590 37.0
20.30090 44.0
20.30590 38.0
20.31090 36.0
20.31590 49.0
20.32090 36.0
20.32590 32.0
20.33090 46.0
20.33590 34.0
20.34090 37.0
20.34590 43.0
20.35090 39.0
20.35590 39.0
20.36090 44.0
20.36590 37.0
20.37090 41.0
20.37590 39.0
20.38090 43.0
20.38590 38.0
20.39090 41.0
20.39590 37.0
20.40090 38.0
20.40590 44.0
20.41090 42.0
20.41590 40.0
20.42090 42.0
20.42590 28.0
20.43090 40.0
20.43590 32.0
20.44090 40.0
20.44590 48.0
20.45090 35.0
20.45590 38.0
20.46090 33.0
20.46590 30.0
20.47090 38.0
20.47590 40.0
20.48090 45.0
20.48590 33.0
20.49090 40.0
20.49590 29.0
20.50090 28.0
20.50590 41.0
20.51090 24.0
20.51590 37.0
20.52090 36.0
20.52590 39.0
20.53090 33.0
20.53590 49.0
20.54090 33.0
20.54590 40.0
20.55090 48.0
20.55590 31.0
20.56090 30.0
20.56590 29.0
20.57090 50.0
20.57590 41.0
20.58090 35.0
20.58590 29.0
20.59090 37.0
20.59590 37.0
20.60090 43.0
20.60590 29.0
20.61090 32.0
20.61590 29.0
20.62090 36.0
20.62590 33.0
20.63090 36.0
20.63590 33.0
20.64090 32.0
20.64590 30.0
20.65090 33.0
20.65590 40.0
20.66090 27.0
20.66590 35.0
20.67090 32.0
20.67590 40.0
20.68090 46.0
20.68590 37.0
20.69090 35.0
20.69590 39.0
20.70090 19.0
20.70590 37.0
20.71090 32.0
20.71590 34.0
20.72090 31.0
20.72590 41.0
20.73090 42.0
20.73590 41.0
20.74090 28.0
20.74590 45.0
20.75090 35.0
20.75590 43.0
20.76090 37.0
20.76590 32.0
20.77090 32.0
20.77590 36.0
20.78090 28.0
20.78590 33.0
20.79090 34.0
20.79590 45.0
20.80090 32.0
20.80590 25.0
20.81090 40.0
20.81590 34.0
20.82090 29.0
20.82590 26.0
20.83090 34.0
20.83590 30.0
20.84090 36.0
20.84590 30.0
20.85090 37.0
20.85590 39.0
20.86090 39.0
20.86590 33.0
20.87090 37.0
20.87590 36.0
20.88090 39.0
20.88590 32.0
20.89090 37.0
20.89590 31.0
20.90090 37.0
20.90590 38.0
20.91090 41.0
20.91590 51.0
20.92090 34.0
20.92590 28.0
20.93090 32.0
20.93590 42.0
20.94090 31.0
20.94590 27.0
20.95090 28.0
20.95590 27.0
20.96090 31.0
20.96590 41.0
20.97090 39.0
20.97590 27.0
20.98090 33.0
20.98590 33.0
20.99090 35.0
20.99590 40.0
21.00090 42.0
21.00590 44.0
21.01090 47.0
21.01590 29.0
21.02090 24.0
21.02590 29.0
21.03090 23.0
21.03590 42.0
21.04090 28.0
21.04590 43.0
21.05090 41.0
21.05590 37.0
21.06090 29.0
21.06590 32.0
21.07090 34.0
21.07590 39.0
21.08090 26.0
21.08590 43.0
21.09090 34.0
21.09590 43.0
21.10090 33.0
21.10590 35.0
21.11090 26.0
21.11590 38.0
21.12090 35.0
21.12590 32.0
21.13090 39.0
21.13590 38.0
21.14090 27.0
21.14590 37.0
21.15090 37.0
21.15590 27.0
21.16090 29.0
21.16590 31.0
21.17090 26.0
21.17590 28.0
21.18090 25.0
21.18590 25.0
21.19090 37.0
21.19590 33.0
21.20090 32.0
21.20590 35.0
21.21090 24.0
21.21590 31.0
21.22090 30.0
21.22590 28.0
21.23090 48.0
21.23590 41.0
21.24090 40.0
21.24590 30.0
21.25090 26.0
21.25590 34.0
21.26090 36.0
21.26590 37.0
21.27090 33.0
21.27590 29.0
21.28090 38.0
21.28590 38.0
21.29090 31.0
21.29590 32.0
21.30090 41.0
21.30590 29.0
21.31090 32.0
21.31590 31.0
21.32090 45.0
21.32590 40.0
21.33090 35.0
21.33590 29.0
21.34090 31.0
21.34590 31.0
21.35090 17.0
21.35590 34.0
21.36090 34.0
21.36590 40.0
21.37090 37.0
21.37590 33.0
21.38090 27.0
21.38590 27.0
21.39090 27.0
21.39590 26.0
21.40090 41.0
21.40590 34.0
21.41090 23.0
21.41590 38.0
21.42090 29.0
21.42590 26.0
21.43090 25.0
21.43590 43.0
21.44090 30.0
21.44590 27.0
21.45090 34.0
21.45590 38.0
21.46090 38.0
21.46590 29.0
21.47090 37.0
21.47590 27.0
21.48090 39.0
21.48590 24.0
21.49090 34.0
21.49590 28.0
21.50090 32.0
21.50590 39.0
21.51090 27.0
21.51590 36.0
21.52090 30.0