File: data/w6931c/XRD_2ThetaOmega/scan_2th-om_c_Cr2O3_35-45deg_PIXscan_4min.xy
35.0021 49.0
35.0119 55.0
35.0218 54.0
35.0316 51.0
35.0415 41.0
35.0513 64.0
35.0611 59.0
35.071 48.0
35.0808 53.0
35.0907 44.0
35.1005 48.0
35.1104 47.0
35.1202 48.0
35.1301 39.0
35.1399 60.0
35.1498 50.0
35.1596 45.0
35.1695 51.0
35.1793 56.0
35.1892 58.0
35.199 64.0
35.2089 61.0
35.2187 71.0
35.2286 64.0
35.2384 51.0
35.2483 47.0
35.2581 57.0
35.268 48.0
35.2778 58.0
35.2876 43.0
35.2975 48.0
35.3073 42.0
35.3172 45.0
35.327 64.0
35.3369 42.0
35.3467 59.0
35.3566 49.0
35.3664 48.0
35.3763 67.0
35.3861 37.0
35.396 40.0
35.4058 45.0
35.4157 42.0
35.4255 57.0
35.4354 58.0
35.4452 63.0
35.4551 51.0
35.4649 65.0
35.4748 57.0
35.4846 49.0
35.4944 56.0
35.5043 59.0
35.5141 47.0
35.524 38.0
35.5338 50.0
35.5437 65.0
35.5535 53.0
35.5634 47.0
35.5732 66.0
35.5831 53.0
35.5929 49.0
35.6028 54.0
35.6126 53.0
35.6225 68.0
35.6323 45.0
35.6422 51.0
35.652 45.0
35.6619 58.0
35.6717 50.0
35.6816 62.0
35.6914 51.0
35.7012 61.0
35.7111 49.0
35.7209 53.0
35.7308 64.0
35.7406 45.0
35.7505 31.0
35.7603 46.0
35.7702 43.0
35.78 51.0
35.7899 49.0
35.7997 43.0
35.8096 43.0
35.8194 51.0
35.8293 56.0
35.8391 52.0
35.849 42.0
35.8588 41.0
35.8687 46.0
35.8785 51.0
35.8884 55.0
35.8982 55.0
35.9081 45.0
35.9179 44.0
35.9277 51.0
35.9376 42.0
35.9474 37.0
35.9573 53.0
35.9671 52.0
35.977 59.0
35.9868 51.0
35.9967 56.0
36.0065 50.0
36.0164 61.0
36.0262 46.0
36.0361 44.0
36.0459 49.0
36.0558 53.0
36.0656 55.0
36.0755 43.0
36.0853 61.0
36.0952 50.0
36.105 45.0
36.1149 42.0
36.1247 62.0
36.1345 54.0
36.1444 55.0
36.1542 40.0
36.1641 52.0
36.1739 50.0
36.1838 51.0
36.1936 63.0
36.2035 56.0
36.2133 47.0
36.2232 45.0
36.233 49.0
36.2429 56.0
36.2527 45.0
36.2626 56.0
36.2724 58.0
36.2823 49.0
36.2921 58.0
36.302 47.0
36.3118 58.0
36.3217 48.0
36.3315 49.0
36.3414 31.0
36.3512 48.0
36.361 44.0
36.3709 42.0
36.3807 53.0
36.3906 53.0
36.4004 54.0
36.4103 28.0
36.4201 52.0
36.43 55.0
36.4398 39.0
36.4497 49.0
36.4595 67.0
36.4694 64.0
36.4792 44.0
36.4891 51.0
36.4989 45.0
36.5088 51.0
36.5186 34.0
36.5285 52.0
36.5383 49.0
36.5482 39.0
36.558 59.0
36.5678 43.0
36.5777 52.0
36.5875 54.0
36.5974 54.0
36.6072 51.0
36.6171 57.0
36.6269 40.0
36.6368 60.0
36.6466 51.0
36.6565 39.0
36.6663 54.0
36.6762 56.0
36.686 52.0
36.6959 44.0
36.7057 56.0
36.7156 54.0
36.7254 58.0
36.7353 47.0
36.7451 53.0
36.755 49.0
36.7648 56.0
36.7747 51.0
36.7845 42.0
36.7943 49.0
36.8042 48.0
36.814 57.0
36.8239 45.0
36.8337 57.0
36.8436 54.0
36.8534 60.0
36.8633 47.0
36.8731 48.0
36.883 54.0
36.8928 52.0
36.9027 44.0
36.9125 45.0
36.9224 61.0
36.9322 49.0
36.9421 48.0
36.9519 59.0
36.9618 56.0
36.9716 48.0
36.9815 62.0
36.9913 55.0
37.0011 43.0
37.011 54.0
37.0208 46.0
37.0307 41.0
37.0405 61.0
37.0504 56.0
37.0602 46.0
37.0701 55.0
37.0799 64.0
37.0898 58.0
37.0996 49.0
37.1095 68.0
37.1193 51.0
37.1292 57.0
37.139 58.0
37.1489 65.0
37.1587 50.0
37.1686 48.0
37.1784 56.0
37.1883 49.0
37.1981 69.0
37.2079 53.0
37.2178 58.0
37.2276 65.0
37.2375 56.0
37.2473 58.0
37.2572 62.0
37.267 48.0
37.2769 48.0
37.2867 58.0
37.2966 58.0
37.3064 57.0
37.3163 60.0
37.3261 59.0
37.336 54.0
37.3458 57.0
37.3557 47.0
37.3655 58.0
37.3754 66.0
37.3852 85.0
37.3951 105.0
37.4049 136.0
37.4148 155.0
37.4246 180.0
37.4344 176.0
37.4443 136.0
37.4541 94.0
37.464 92.0
37.4738 67.0
37.4837 75.0
37.4935 61.0
37.5034 63.0
37.5132 53.0
37.5231 72.0
37.5329 66.0
37.5428 67.0
37.5526 52.0
37.5625 55.0
37.5723 71.0
37.5822 48.0
37.592 65.0
37.6019 65.0
37.6117 62.0
37.6216 63.0
37.6314 81.0
37.6412 67.0
37.6511 67.0
37.6609 63.0
37.6708 74.0
37.6806 54.0
37.6905 59.0
37.7003 55.0
37.7102 71.0
37.72 49.0
37.7299 51.0
37.7397 67.0
37.7496 63.0
37.7594 59.0
37.7693 58.0
37.7791 64.0
37.789 53.0
37.7988 63.0
37.8087 71.0
37.8185 77.0
37.8284 63.0
37.8382 73.0
37.8481 60.0
37.8579 74.0
37.8677 54.0
37.8776 82.0
37.8874 77.0
37.8973 74.0
37.9071 86.0
37.917 74.0
37.9268 69.0
37.9367 77.0
37.9465 66.0
37.9564 76.0
37.9662 68.0
37.9761 101.0
37.9859 73.0
37.9958 71.0
38.0056 86.0
38.0155 107.0
38.0253 81.0
38.0352 80.0
38.045 85.0
38.0549 91.0
38.0647 97.0
38.0745 84.0
38.0844 88.0
38.0942 81.0
38.1041 76.0
38.1139 97.0
38.1238 101.0
38.1336 107.0
38.1435 105.0
38.1533 106.0
38.1632 113.0
38.173 102.0
38.1829 121.0
38.1927 118.0
38.2026 102.0
38.2124 110.0
38.2223 105.0
38.2321 131.0
38.242 111.0
38.2518 141.0
38.2617 127.0
38.2715 140.0
38.2814 139.0
38.2912 141.0
38.301 156.0
38.3109 142.0
38.3207 144.0
38.3306 145.0
38.3404 173.0
38.3503 193.0
38.3601 181.0
38.37 195.0
38.3798 192.0
38.3897 219.0
38.3995 209.0
38.4094 215.0
38.4192 221.0
38.4291 244.0
38.4389 287.0
38.4488 260.0
38.4586 281.0
38.4685 303.0
38.4783 333.0
38.4882 324.0
38.498 335.0
38.5078 345.0
38.5177 344.0
38.5275 359.0
38.5374 399.0
38.5472 458.0
38.5571 435.0
38.5669 480.0
38.5768 502.0
38.5866 527.0
38.5965 518.0
38.6063 528.0
38.6162 594.0
38.626 538.0
38.6359 649.0
38.6457 563.0
38.6556 626.0
38.6654 667.0
38.6753 615.0
38.6851 649.0
38.695 739.0
38.7048 636.0
38.7146 699.0
38.7245 713.0
38.7343 758.0
38.7442 800.0
38.754 782.0
38.7639 860.0
38.7737 786.0
38.7836 867.0
38.7934 911.0
38.8033 897.0
38.8131 974.0
38.823 1001.0
38.8328 1079.0
38.8427 1115.0
38.8525 1068.0
38.8624 1146.0
38.8722 1161.0
38.8821 1242.0
38.8919 1241.0
38.9018 1325.0
38.9116 1337.0
38.9215 1378.0
38.9313 1344.0
38.9411 1418.0
38.951 1401.0
38.9608 1508.0
38.9707 1467.0
38.9805 1496.0
38.9904 1435.0
39.0002 1482.0
39.0101 1473.0
39.0199 1540.0
39.0298 1518.0
39.0396 1549.0
39.0495 1420.0
39.0593 1578.0
39.0692 1601.0
39.079 1463.0
39.0889 1443.0
39.0987 1476.0
39.1086 1428.0
39.1184 1340.0
39.1283 1320.0
39.1381 1308.0
39.1479 1389.0
39.1578 1263.0
39.1676 1257.0
39.1775 1248.0
39.1873 1152.0
39.1972 1202.0
39.207 1109.0
39.2169 1142.0
39.2267 1063.0
39.2366 1152.0
39.2464 1037.0
39.2563 969.0
39.2661 945.0
39.276 869.0
39.2858 832.0
39.2957 860.0
39.3055 770.0
39.3154 791.0
39.3252 759.0
39.3351 731.0
39.3449 704.0
39.3548 645.0
39.3646 606.0
39.3744 586.0
39.3843 558.0
39.3941 508.0
39.404 474.0
39.4138 485.0
39.4237 461.0
39.4335 441.0
39.4434 413.0
39.4532 429.0
39.4631 399.0
39.4729 360.0
39.4828 361.0
39.4926 330.0
39.5025 320.0
39.5123 280.0
39.5222 287.0
39.532 272.0
39.5419 280.0
39.5517 244.0
39.5616 259.0
39.5714 222.0
39.5812 207.0
39.5911 200.0
39.6009 220.0
39.6108 199.0
39.6206 183.0
39.6305 213.0
39.6403 169.0
39.6502 179.0
39.66 134.0
39.6699 162.0
39.6797 157.0
39.6896 142.0
39.6994 156.0
39.7093 152.0
39.7191 145.0
39.729 119.0
39.7388 123.0
39.7487 127.0
39.7585 114.0
39.7684 121.0
39.7782 105.0
39.788 107.0
39.7979 122.0
39.8077 119.0
39.8176 133.0
39.8274 101.0
39.8373 81.0
39.8471 95.0
39.857 102.0
39.8668 87.0
39.8767 85.0
39.8865 79.0
39.8964 85.0
39.9062 100.0
39.9161 87.0
39.9259 106.0
39.9358 77.0
39.9456 83.0
39.9555 85.0
39.9653 79.0
39.9752 84.0
39.985 75.0
39.9949 70.0
40.0047 82.0
40.0145 90.0
40.0244 72.0
40.0342 82.0
40.0441 60.0
40.0539 94.0
40.0638 78.0
40.0736 58.0
40.0835 73.0
40.0933 70.0
40.1032 63.0
40.113 76.0
40.1229 64.0
40.1327 65.0
40.1426 70.0
40.1524 75.0
40.1623 75.0
40.1721 82.0
40.182 72.0
40.1918 66.0
40.2017 84.0
40.2115 69.0
40.2213 68.0
40.2312 79.0
40.241 73.0
40.2509 68.0
40.2607 68.0
40.2706 64.0
40.2804 63.0
40.2903 52.0
40.3001 48.0
40.31 74.0
40.3198 64.0
40.3297 59.0
40.3395 53.0
40.3494 68.0
40.3592 75.0
40.3691 54.0
40.3789 63.0
40.3888 84.0
40.3986 59.0
40.4085 69.0
40.4183 66.0
40.4282 75.0
40.438 80.0
40.4478 51.0
40.4577 77.0
40.4675 70.0
40.4774 66.0
40.4872 71.0
40.4971 70.0
40.5069 70.0
40.5168 48.0
40.5266 57.0
40.5365 65.0
40.5463 69.0
40.5562 80.0
40.566 52.0
40.5759 66.0
40.5857 61.0
40.5956 69.0
40.6054 66.0
40.6153 74.0
40.6251 76.0
40.635 79.0
40.6448 74.0
40.6546 75.0
40.6645 70.0
40.6743 63.0
40.6842 71.0
40.694 65.0
40.7039 72.0
40.7137 67.0
40.7236 88.0
40.7334 94.0
40.7433 69.0
40.7531 80.0
40.763 87.0
40.7728 68.0
40.7827 58.0
40.7925 71.0
40.8024 69.0
40.8122 72.0
40.8221 67.0
40.8319 75.0
40.8418 93.0
40.8516 93.0
40.8615 85.0
40.8713 83.0
40.8811 77.0
40.891 86.0
40.9008 76.0
40.9107 61.0
40.9205 70.0
40.9304 87.0
40.9402 79.0
40.9501 63.0
40.9599 84.0
40.9698 99.0
40.9796 97.0
40.9895 85.0
40.9993 97.0
41.0092 86.0
41.019 86.0
41.0289 84.0
41.0387 89.0
41.0486 83.0
41.0584 85.0
41.0683 82.0
41.0781 92.0
41.0879 89.0
41.0978 99.0
41.1076 97.0
41.1175 94.0
41.1273 98.0
41.1372 93.0
41.147 96.0
41.1569 86.0
41.1667 98.0
41.1766 104.0
41.1864 92.0
41.1963 111.0
41.2061 116.0
41.216 114.0
41.2258 110.0
41.2357 112.0
41.2455 127.0
41.2554 133.0
41.2652 143.0
41.2751 120.0
41.2849 122.0
41.2947 143.0
41.3046 145.0
41.3144 140.0
41.3243 132.0
41.3341 163.0
41.344 158.0
41.3538 180.0
41.3637 197.0
41.3735 284.0
41.3834 306.0
41.3932 390.0
41.4031 481.0
41.4129 508.0
41.4228 566.0
41.4326 473.0
41.4425 500.0
41.4523 422.0
41.4622 429.0
41.472 453.0
41.4819 511.0
41.4917 566.0
41.5016 627.0
41.5114 702.0
41.5212 907.0
41.5311 1208.0
41.5409 1711.0
41.5508 2614.0
41.5606 4377.0
41.5705 9622.0
41.5803 25415.0
41.5902 42640.0
41.6 45823.0
41.6099 34399.0
41.6197 16479.0
41.6296 7154.0
41.6394 3904.0
41.6493 2730.0
41.6591 2545.0
41.669 3248.0
41.6788 5913.0
41.6887 12743.0
41.6985 20385.0
41.7084 22048.0
41.7182 16977.0
41.728 8607.0
41.7379 3811.0
41.7477 2165.0
41.7576 1303.0
41.7674 962.0
41.7773 777.0
41.7871 602.0
41.797 522.0
41.8068 431.0
41.8167 392.0
41.8265 362.0
41.8364 319.0
41.8462 282.0
41.8561 292.0
41.8659 217.0
41.8758 203.0
41.8856 169.0
41.8955 176.0
41.9053 157.0
41.9152 159.0
41.925 171.0
41.9349 139.0
41.9447 152.0
41.9545 156.0
41.9644 158.0
41.9742 132.0
41.9841 125.0
41.9939 138.0
42.0038 120.0
42.0136 108.0
42.0235 125.0
42.0333 107.0
42.0432 109.0
42.053 115.0
42.0629 105.0
42.0727 87.0
42.0826 90.0
42.0924 120.0
42.1023 108.0
42.1121 91.0
42.122 86.0
42.1318 101.0
42.1417 75.0
42.1515 93.0
42.1613 79.0
42.1712 93.0
42.181 83.0
42.1909 57.0
42.2007 84.0
42.2106 77.0
42.2204 64.0
42.2303 86.0
42.2401 62.0
42.25 84.0
42.2598 98.0
42.2697 76.0
42.2795 86.0
42.2894 85.0
42.2992 59.0
42.3091 71.0
42.3189 83.0
42.3288 72.0
42.3386 66.0
42.3485 58.0
42.3583 59.0
42.3682 75.0
42.378 55.0
42.3878 67.0
42.3977 57.0
42.4075 65.0
42.4174 60.0
42.4272 74.0
42.4371 81.0
42.4469 54.0
42.4568 80.0
42.4666 64.0
42.4765 60.0
42.4863 66.0
42.4962 57.0
42.506 51.0
42.5159 61.0
42.5257 59.0
42.5356 69.0
42.5454 52.0
42.5553 89.0
42.5651 64.0
42.575 64.0
42.5848 74.0
42.5946 71.0
42.6045 60.0
42.6143 58.0
42.6242 59.0
42.634 57.0
42.6439 81.0
42.6537 57.0
42.6636 65.0
42.6734 60.0
42.6833 51.0
42.6931 68.0
42.703 71.0
42.7128 70.0
42.7227 60.0
42.7325 46.0
42.7424 66.0
42.7522 52.0
42.7621 56.0
42.7719 58.0
42.7818 47.0
42.7916 51.0
42.8014 60.0
42.8113 57.0
42.8211 55.0
42.831 45.0
42.8408 62.0
42.8507 52.0
42.8605 52.0
42.8704 66.0
42.8802 53.0
42.8901 68.0
42.8999 70.0
42.9098 60.0
42.9196 50.0
42.9295 53.0
42.9393 54.0
42.9492 53.0
42.959 44.0
42.9689 49.0
42.9787 57.0
42.9886 39.0
42.9984 46.0
43.0083 56.0
43.0181 54.0
43.0279 52.0
43.0378 51.0
43.0476 58.0
43.0575 64.0
43.0673 55.0
43.0772 47.0
43.087 59.0
43.0969 64.0
43.1067 57.0
43.1166 54.0
43.1264 49.0
43.1363 66.0
43.1461 46.0
43.156 53.0
43.1658 72.0
43.1757 39.0
43.1855 47.0
43.1954 56.0
43.2052 51.0
43.2151 56.0
43.2249 50.0
43.2347 44.0
43.2446 55.0
43.2544 51.0
43.2643 61.0
43.2741 51.0
43.284 47.0
43.2938 51.0
43.3037 38.0
43.3135 53.0
43.3234 48.0
43.3332 55.0
43.3431 44.0
43.3529 60.0
43.3628 52.0
43.3726 44.0
43.3825 56.0
43.3923 46.0
43.4022 56.0
43.412 56.0
43.4219 55.0
43.4317 47.0
43.4416 53.0
43.4514 64.0
43.4612 79.0
43.4711 59.0
43.4809 56.0
43.4908 68.0
43.5006 57.0
43.5105 47.0
43.5203 57.0
43.5302 55.0
43.54 50.0
43.5499 53.0
43.5597 60.0
43.5696 57.0
43.5794 61.0
43.5893 55.0
43.5991 55.0
43.609 48.0
43.6188 69.0
43.6287 64.0
43.6385 50.0
43.6484 56.0
43.6582 44.0
43.668 64.0
43.6779 51.0
43.6877 59.0
43.6976 54.0
43.7074 40.0
43.7173 61.0
43.7271 57.0
43.737 55.0
43.7468 79.0
43.7567 70.0
43.7665 53.0
43.7764 55.0
43.7862 74.0
43.7961 65.0
43.8059 46.0
43.8158 48.0
43.8256 71.0
43.8355 61.0
43.8453 56.0
43.8552 54.0
43.865 55.0
43.8749 59.0
43.8847 56.0
43.8945 68.0
43.9044 86.0
43.9142 65.0
43.9241 62.0
43.9339 68.0
43.9438 60.0
43.9536 65.0
43.9635 55.0
43.9733 57.0
43.9832 73.0
43.993 55.0
44.0029 82.0
44.0127 64.0
44.0226 71.0
44.0324 71.0
44.0423 84.0
44.0521 62.0
44.062 76.0
44.0718 52.0
44.0817 82.0
44.0915 75.0
44.1013 79.0
44.1112 81.0
44.121 75.0
44.1309 53.0
44.1407 64.0
44.1506 75.0
44.1604 82.0
44.1703 90.0
44.1801 87.0
44.19 85.0
44.1998 86.0
44.2097 82.0
44.2195 96.0
44.2294 90.0
44.2392 95.0
44.2491 88.0
44.2589 98.0
44.2688 98.0
44.2786 102.0
44.2885 106.0
44.2983 108.0
44.3081 104.0
44.318 83.0
44.3278 109.0
44.3377 135.0
44.3475 108.0
44.3574 128.0
44.3672 118.0
44.3771 111.0
44.3869 121.0
44.3968 110.0
44.4066 118.0
44.4165 117.0
44.4263 120.0
44.4362 141.0
44.446 117.0
44.4559 96.0
44.4657 118.0
44.4756 138.0
44.4854 93.0
44.4953 99.0
44.5051 94.0
44.515 122.0
44.5248 95.0
44.5346 99.0
44.5445 90.0
44.5543 101.0
44.5642 90.0
44.574 71.0
44.5839 103.0
44.5937 89.0
44.6036 72.0
44.6134 79.0
44.6233 78.0
44.6331 80.0
44.643 77.0
44.6528 62.0
44.6627 72.0
44.6725 66.0
44.6824 67.0
44.6922 62.0
44.7021 78.0
44.7119 66.0
44.7218 56.0
44.7316 62.0
44.7414 70.0
44.7513 65.0
44.7611 44.0
44.771 61.0
44.7808 58.0
44.7907 68.0
44.8005 66.0
44.8104 60.0
44.8202 58.0
44.8301 55.0
44.8399 45.0
44.8498 60.0
44.8596 58.0
44.8695 57.0
44.8793 61.0
44.8892 65.0
44.899 57.0
44.9089 62.0
44.9187 58.0
44.9286 47.0
44.9384 63.0
44.9483 53.0
44.9581 64.0
44.9679 47.0
44.9778 56.0
44.9876 66.0
44.9975 70.0