File: data/W6900r/XRD_Omega/scan_omega_4deg_step_0.005deg0_C1.xy
21.87070 64.0
21.87570 81.0
21.88070 65.0
21.88570 65.0
21.89070 76.0
21.89570 90.0
21.90070 72.0
21.90570 81.0
21.91070 80.0
21.91570 70.0
21.92070 68.0
21.92570 72.0
21.93070 84.0
21.93570 90.0
21.94070 75.0
21.94570 68.0
21.95070 71.0
21.95570 69.0
21.96070 69.0
21.96570 69.0
21.97070 78.0
21.97570 77.0
21.98070 81.0
21.98570 82.0
21.99070 76.0
21.99570 101.0
22.00070 96.0
22.00570 66.0
22.01070 66.0
22.01570 90.0
22.02070 74.0
22.02570 83.0
22.03070 69.0
22.03570 93.0
22.04070 96.0
22.04570 90.0
22.05070 80.0
22.05570 87.0
22.06070 71.0
22.06570 91.0
22.07070 74.0
22.07570 89.0
22.08070 76.0
22.08570 83.0
22.09070 76.0
22.09570 84.0
22.10070 84.0
22.10570 93.0
22.11070 82.0
22.11570 72.0
22.12070 91.0
22.12570 96.0
22.13070 100.0
22.13570 85.0
22.14070 96.0
22.14570 77.0
22.15070 92.0
22.15570 74.0
22.16070 103.0
22.16570 86.0
22.17070 89.0
22.17570 84.0
22.18070 100.0
22.18570 84.0
22.19070 77.0
22.19570 97.0
22.20070 111.0
22.20570 110.0
22.21070 93.0
22.21570 85.0
22.22070 95.0
22.22570 86.0
22.23070 87.0
22.23570 104.0
22.24070 99.0
22.24570 100.0
22.25070 101.0
22.25570 99.0
22.26070 111.0
22.26570 102.0
22.27070 93.0
22.27570 90.0
22.28070 87.0
22.28570 89.0
22.29070 108.0
22.29570 94.0
22.30070 119.0
22.30570 108.0
22.31070 116.0
22.31570 87.0
22.32070 122.0
22.32570 107.0
22.33070 94.0
22.33570 109.0
22.34070 109.0
22.34570 103.0
22.35070 104.0
22.35570 104.0
22.36070 117.0
22.36570 98.0
22.37070 114.0
22.37570 121.0
22.38070 133.0
22.38570 140.0
22.39070 90.0
22.39570 97.0
22.40070 125.0
22.40570 121.0
22.41070 92.0
22.41570 136.0
22.42070 110.0
22.42570 113.0
22.43070 116.0
22.43570 109.0
22.44070 126.0
22.44570 124.0
22.45070 134.0
22.45570 113.0
22.46070 125.0
22.46570 125.0
22.47070 127.0
22.47570 121.0
22.48070 137.0
22.48570 146.0
22.49070 128.0
22.49570 118.0
22.50070 133.0
22.50570 117.0
22.51070 135.0
22.51570 119.0
22.52070 131.0
22.52570 139.0
22.53070 160.0
22.53570 145.0
22.54070 158.0
22.54570 144.0
22.55070 133.0
22.55570 155.0
22.56070 164.0
22.56570 135.0
22.57070 130.0
22.57570 135.0
22.58070 145.0
22.58570 144.0
22.59070 152.0
22.59570 153.0
22.60070 163.0
22.60570 162.0
22.61070 136.0
22.61570 163.0
22.62070 145.0
22.62570 159.0
22.63070 171.0
22.63570 149.0
22.64070 169.0
22.64570 160.0
22.65070 164.0
22.65570 177.0
22.66070 183.0
22.66570 161.0
22.67070 189.0
22.67570 166.0
22.68070 186.0
22.68570 189.0
22.69070 173.0
22.69570 168.0
22.70070 189.0
22.70570 189.0
22.71070 187.0
22.71570 185.0
22.72070 165.0
22.72570 179.0
22.73070 181.0
22.73570 212.0
22.74070 197.0
22.74570 196.0
22.75070 180.0
22.75570 180.0
22.76070 200.0
22.76570 211.0
22.77070 178.0
22.77570 169.0
22.78070 194.0
22.78570 184.0
22.79070 223.0
22.79570 208.0
22.80070 182.0
22.80570 208.0
22.81070 221.0
22.81570 208.0
22.82070 223.0
22.82570 210.0
22.83070 226.0
22.83570 223.0
22.84070 210.0
22.84570 232.0
22.85070 210.0
22.85570 254.0
22.86070 224.0
22.86570 245.0
22.87070 228.0
22.87570 260.0
22.88070 230.0
22.88570 212.0
22.89070 249.0
22.89570 233.0
22.90070 233.0
22.90570 263.0
22.91070 259.0
22.91570 273.0
22.92070 261.0
22.92570 268.0
22.93070 259.0
22.93570 283.0
22.94070 266.0
22.94570 248.0
22.95070 285.0
22.95570 308.0
22.96070 249.0
22.96570 297.0
22.97070 296.0
22.97570 279.0
22.98070 296.0
22.98570 291.0
22.99070 284.0
22.99570 274.0
23.00070 313.0
23.00570 286.0
23.01070 306.0
23.01570 292.0
23.02070 278.0
23.02570 309.0
23.03070 304.0
23.03570 320.0
23.04070 322.0
23.04570 306.0
23.05070 317.0
23.05570 311.0
23.06070 324.0
23.06570 327.0
23.07070 345.0
23.07570 327.0
23.08070 298.0
23.08570 313.0
23.09070 347.0
23.09570 340.0
23.10070 367.0
23.10570 315.0
23.11070 355.0
23.11570 340.0
23.12070 375.0
23.12570 372.0
23.13070 357.0
23.13570 330.0
23.14070 355.0
23.14570 375.0
23.15070 413.0
23.15570 362.0
23.16070 418.0
23.16570 363.0
23.17070 426.0
23.17570 387.0
23.18070 339.0
23.18570 418.0
23.19070 423.0
23.19570 392.0
23.20070 403.0
23.20570 421.0
23.21070 405.0
23.21570 423.0
23.22070 469.0
23.22570 415.0
23.23070 411.0
23.23570 430.0
23.24070 447.0
23.24570 453.0
23.25070 447.0
23.25570 417.0
23.26070 441.0
23.26570 455.0
23.27070 428.0
23.27570 426.0
23.28070 443.0
23.28570 499.0
23.29070 452.0
23.29570 456.0
23.30070 470.0
23.30570 492.0
23.31070 472.0
23.31570 489.0
23.32070 473.0
23.32570 486.0
23.33070 474.0
23.33570 510.0
23.34070 478.0
23.34570 516.0
23.35070 506.0
23.35570 489.0
23.36070 499.0
23.36570 508.0
23.37070 503.0
23.37570 497.0
23.38070 512.0
23.38570 512.0
23.39070 549.0
23.39570 529.0
23.40070 515.0
23.40570 575.0
23.41070 531.0
23.41570 525.0
23.42070 557.0
23.42570 523.0
23.43070 520.0
23.43570 540.0
23.44070 543.0
23.44570 582.0
23.45070 593.0
23.45570 553.0
23.46070 589.0
23.46570 609.0
23.47070 569.0
23.47570 543.0
23.48070 552.0
23.48570 624.0
23.49070 572.0
23.49570 592.0
23.50070 577.0
23.50570 532.0
23.51070 633.0
23.51570 622.0
23.52070 568.0
23.52570 557.0
23.53070 605.0
23.53570 584.0
23.54070 603.0
23.54570 596.0
23.55070 634.0
23.55570 642.0
23.56070 602.0
23.56570 643.0
23.57070 611.0
23.57570 652.0
23.58070 642.0
23.58570 635.0
23.59070 604.0
23.59570 683.0
23.60070 650.0
23.60570 621.0
23.61070 620.0
23.61570 638.0
23.62070 644.0
23.62570 652.0
23.63070 679.0
23.63570 676.0
23.64070 657.0
23.64570 674.0
23.65070 633.0
23.65570 738.0
23.66070 655.0
23.66570 667.0
23.67070 647.0
23.67570 713.0
23.68070 709.0
23.68570 641.0
23.69070 673.0
23.69570 661.0
23.70070 682.0
23.70570 682.0
23.71070 684.0
23.71570 661.0
23.72070 721.0
23.72570 680.0
23.73070 690.0
23.73570 717.0
23.74070 757.0
23.74570 653.0
23.75070 709.0
23.75570 675.0
23.76070 702.0
23.76570 665.0
23.77070 693.0
23.77570 660.0
23.78070 696.0
23.78570 713.0
23.79070 679.0
23.79570 761.0
23.80070 698.0
23.80570 768.0
23.81070 699.0
23.81570 713.0
23.82070 760.0
23.82570 717.0
23.83070 689.0
23.83570 715.0
23.84070 728.0
23.84570 676.0
23.85070 787.0
23.85570 724.0
23.86070 724.0
23.86570 669.0
23.87070 709.0
23.87570 725.0
23.88070 724.0
23.88570 689.0
23.89070 683.0
23.89570 691.0
23.90070 703.0
23.90570 714.0
23.91070 686.0
23.91570 688.0
23.92070 699.0
23.92570 721.0
23.93070 702.0
23.93570 716.0
23.94070 721.0
23.94570 702.0
23.95070 704.0
23.95570 673.0
23.96070 709.0
23.96570 684.0
23.97070 701.0
23.97570 695.0
23.98070 734.0
23.98570 675.0
23.99070 635.0
23.99570 663.0
24.00070 704.0
24.00570 637.0
24.01070 717.0
24.01570 666.0
24.02070 681.0
24.02570 674.0
24.03070 693.0
24.03570 682.0
24.04070 670.0
24.04570 668.0
24.05070 689.0
24.05570 694.0
24.06070 657.0
24.06570 632.0
24.07070 657.0
24.07570 685.0
24.08070 624.0
24.08570 664.0
24.09070 626.0
24.09570 680.0
24.10070 642.0
24.10570 673.0
24.11070 637.0
24.11570 623.0
24.12070 606.0
24.12570 583.0
24.13070 609.0
24.13570 657.0
24.14070 589.0
24.14570 590.0
24.15070 594.0
24.15570 644.0
24.16070 538.0
24.16570 608.0
24.17070 639.0
24.17570 577.0
24.18070 652.0
24.18570 573.0
24.19070 621.0
24.19570 586.0
24.20070 602.0
24.20570 573.0
24.21070 580.0
24.21570 613.0
24.22070 601.0
24.22570 579.0
24.23070 561.0
24.23570 598.0
24.24070 571.0
24.24570 569.0
24.25070 555.0
24.25570 552.0
24.26070 532.0
24.26570 535.0
24.27070 522.0
24.27570 509.0
24.28070 549.0
24.28570 469.0
24.29070 551.0
24.29570 526.0
24.30070 488.0
24.30570 536.0
24.31070 504.0
24.31570 497.0
24.32070 477.0
24.32570 490.0
24.33070 499.0
24.33570 523.0
24.34070 510.0
24.34570 492.0
24.35070 508.0
24.35570 485.0
24.36070 517.0
24.36570 478.0
24.37070 471.0
24.37570 500.0
24.38070 471.0
24.38570 445.0
24.39070 426.0
24.39570 452.0
24.40070 480.0
24.40570 462.0
24.41070 451.0
24.41570 409.0
24.42070 426.0
24.42570 437.0
24.43070 451.0
24.43570 402.0
24.44070 394.0
24.44570 417.0
24.45070 401.0
24.45570 401.0
24.46070 422.0
24.46570 421.0
24.47070 406.0
24.47570 414.0
24.48070 384.0
24.48570 411.0
24.49070 382.0
24.49570 403.0
24.50070 422.0
24.50570 396.0
24.51070 400.0
24.51570 398.0
24.52070 371.0
24.52570 359.0
24.53070 370.0
24.53570 375.0
24.54070 378.0
24.54570 368.0
24.55070 405.0
24.55570 344.0
24.56070 376.0
24.56570 357.0
24.57070 339.0
24.57570 376.0
24.58070 341.0
24.58570 321.0
24.59070 371.0
24.59570 331.0
24.60070 307.0
24.60570 304.0
24.61070 316.0
24.61570 323.0
24.62070 302.0
24.62570 313.0
24.63070 334.0
24.63570 324.0
24.64070 330.0
24.64570 314.0
24.65070 334.0
24.65570 344.0
24.66070 343.0
24.66570 303.0
24.67070 316.0
24.67570 323.0
24.68070 327.0
24.68570 334.0
24.69070 300.0
24.69570 317.0
24.70070 283.0
24.70570 310.0
24.71070 310.0
24.71570 321.0
24.72070 281.0
24.72570 309.0
24.73070 290.0
24.73570 288.0
24.74070 340.0
24.74570 286.0
24.75070 290.0
24.75570 269.0
24.76070 267.0
24.76570 251.0
24.77070 314.0
24.77570 272.0
24.78070 261.0
24.78570 267.0
24.79070 276.0
24.79570 268.0
24.80070 304.0
24.80570 270.0
24.81070 267.0
24.81570 266.0
24.82070 265.0
24.82570 244.0
24.83070 242.0
24.83570 258.0
24.84070 236.0
24.84570 271.0
24.85070 258.0
24.85570 243.0
24.86070 261.0
24.86570 247.0
24.87070 251.0
24.87570 226.0
24.88070 218.0
24.88570 228.0
24.89070 218.0
24.89570 229.0
24.90070 204.0
24.90570 186.0
24.91070 220.0
24.91570 198.0
24.92070 191.0
24.92570 187.0
24.93070 183.0
24.93570 201.0
24.94070 177.0
24.94570 185.0
24.95070 172.0
24.95570 177.0
24.96070 167.0
24.96570 155.0
24.97070 174.0
24.97570 161.0
24.98070 180.0
24.98570 175.0
24.99070 147.0
24.99570 146.0
25.00070 157.0
25.00570 148.0
25.01070 120.0
25.01570 135.0
25.02070 154.0
25.02570 147.0
25.03070 142.0
25.03570 140.0
25.04070 143.0
25.04570 140.0
25.05070 124.0
25.05570 146.0
25.06070 141.0
25.06570 140.0
25.07070 142.0
25.07570 124.0
25.08070 128.0
25.08570 117.0
25.09070 132.0
25.09570 147.0
25.10070 137.0
25.10570 129.0
25.11070 119.0
25.11570 119.0
25.12070 118.0
25.12570 129.0
25.13070 122.0
25.13570 106.0
25.14070 107.0
25.14570 99.0
25.15070 110.0
25.15570 102.0
25.16070 111.0
25.16570 106.0
25.17070 102.0
25.17570 112.0
25.18070 104.0
25.18570 118.0
25.19070 120.0
25.19570 115.0
25.20070 113.0
25.20570 101.0
25.21070 121.0
25.21570 116.0
25.22070 97.0
25.22570 98.0
25.23070 116.0
25.23570 97.0
25.24070 102.0
25.24570 89.0
25.25070 90.0
25.25570 100.0
25.26070 90.0
25.26570 98.0
25.27070 87.0
25.27570 101.0
25.28070 102.0
25.28570 105.0
25.29070 83.0
25.29570 87.0
25.30070 90.0
25.30570 77.0
25.31070 99.0
25.31570 78.0
25.32070 94.0
25.32570 81.0
25.33070 70.0
25.33570 85.0
25.34070 91.0
25.34570 88.0
25.35070 110.0
25.35570 74.0
25.36070 83.0
25.36570 94.0
25.37070 104.0
25.37570 96.0
25.38070 94.0
25.38570 71.0
25.39070 100.0
25.39570 72.0
25.40070 74.0
25.40570 92.0
25.41070 84.0
25.41570 96.0
25.42070 101.0
25.42570 92.0
25.43070 81.0
25.43570 87.0
25.44070 88.0
25.44570 80.0
25.45070 71.0
25.45570 94.0
25.46070 90.0
25.46570 82.0
25.47070 81.0
25.47570 79.0
25.48070 74.0
25.48570 81.0
25.49070 73.0
25.49570 80.0
25.50070 74.0
25.50570 81.0
25.51070 71.0
25.51570 68.0
25.52070 77.0
25.52570 67.0
25.53070 71.0
25.53570 69.0
25.54070 86.0
25.54570 79.0
25.55070 74.0
25.55570 76.0
25.56070 82.0
25.56570 95.0
25.57070 81.0
25.57570 67.0
25.58070 60.0
25.58570 73.0
25.59070 81.0
25.59570 60.0
25.60070 64.0
25.60570 83.0
25.61070 80.0
25.61570 75.0
25.62070 71.0
25.62570 69.0
25.63070 60.0
25.63570 60.0
25.64070 69.0
25.64570 79.0
25.65070 82.0
25.65570 62.0
25.66070 67.0
25.66570 55.0
25.67070 56.0
25.67570 67.0
25.68070 67.0
25.68570 69.0
25.69070 67.0
25.69570 81.0
25.70070 80.0
25.70570 75.0
25.71070 69.0
25.71570 77.0
25.72070 54.0
25.72570 56.0
25.73070 84.0
25.73570 71.0
25.74070 78.0
25.74570 60.0
25.75070 55.0
25.75570 70.0
25.76070 69.0
25.76570 59.0
25.77070 52.0
25.77570 63.0
25.78070 51.0
25.78570 65.0
25.79070 76.0
25.79570 63.0
25.80070 61.0
25.80570 66.0
25.81070 66.0
25.81570 65.0
25.82070 73.0
25.82570 53.0
25.83070 70.0