File: data/W6907a/XRD_Omega/scan_omega_4deg_step_0.005deg0_C8_1.xy
15.70640 374.0
15.71140 366.0
15.71640 352.0
15.72140 380.0
15.72640 373.0
15.73140 340.0
15.73640 360.0
15.74140 379.0
15.74640 372.0
15.75140 376.0
15.75640 367.0
15.76140 380.0
15.76640 359.0
15.77140 377.0
15.77640 384.0
15.78140 378.0
15.78640 385.0
15.79140 409.0
15.79640 405.0
15.80140 353.0
15.80640 381.0
15.81140 406.0
15.81640 407.0
15.82140 420.0
15.82640 398.0
15.83140 401.0
15.83640 428.0
15.84140 423.0
15.84640 388.0
15.85140 393.0
15.85640 434.0
15.86140 394.0
15.86640 413.0
15.87140 381.0
15.87640 424.0
15.88140 430.0
15.88640 447.0
15.89140 428.0
15.89640 460.0
15.90140 408.0
15.90640 418.0
15.91140 427.0
15.91640 453.0
15.92140 440.0
15.92640 420.0
15.93140 447.0
15.93640 420.0
15.94140 483.0
15.94640 448.0
15.95140 474.0
15.95640 486.0
15.96140 479.0
15.96640 435.0
15.97140 472.0
15.97640 480.0
15.98140 460.0
15.98640 450.0
15.99140 449.0
15.99640 452.0
16.00140 487.0
16.00640 497.0
16.01140 488.0
16.01640 472.0
16.02140 478.0
16.02640 474.0
16.03140 486.0
16.03640 477.0
16.04140 512.0
16.04640 462.0
16.05140 461.0
16.05640 484.0
16.06140 485.0
16.06640 513.0
16.07140 522.0
16.07640 494.0
16.08140 536.0
16.08640 485.0
16.09140 554.0
16.09640 505.0
16.10140 544.0
16.10640 529.0
16.11140 550.0
16.11640 520.0
16.12140 510.0
16.12640 504.0
16.13140 524.0
16.13640 533.0
16.14140 526.0
16.14640 564.0
16.15140 511.0
16.15640 565.0
16.16140 594.0
16.16640 587.0
16.17140 522.0
16.17640 557.0
16.18140 546.0
16.18640 549.0
16.19140 599.0
16.19640 626.0
16.20140 607.0
16.20640 594.0
16.21140 574.0
16.21640 586.0
16.22140 572.0
16.22640 594.0
16.23140 599.0
16.23640 566.0
16.24140 606.0
16.24640 610.0
16.25140 614.0
16.25640 593.0
16.26140 615.0
16.26640 565.0
16.27140 586.0
16.27640 605.0
16.28140 631.0
16.28640 547.0
16.29140 614.0
16.29640 605.0
16.30140 602.0
16.30640 646.0
16.31140 577.0
16.31640 588.0
16.32140 590.0
16.32640 642.0
16.33140 631.0
16.33640 634.0
16.34140 610.0
16.34640 673.0
16.35140 655.0
16.35640 645.0
16.36140 704.0
16.36640 614.0
16.37140 607.0
16.37640 617.0
16.38140 643.0
16.38640 629.0
16.39140 644.0
16.39640 647.0
16.40140 701.0
16.40640 665.0
16.41140 715.0
16.41640 689.0
16.42140 683.0
16.42640 705.0
16.43140 660.0
16.43640 747.0
16.44140 714.0
16.44640 698.0
16.45140 699.0
16.45640 708.0
16.46140 681.0
16.46640 691.0
16.47140 722.0
16.47640 712.0
16.48140 684.0
16.48640 729.0
16.49140 769.0
16.49640 726.0
16.50140 740.0
16.50640 717.0
16.51140 755.0
16.51640 778.0
16.52140 730.0
16.52640 731.0
16.53140 740.0
16.53640 765.0
16.54140 805.0
16.54640 714.0
16.55140 776.0
16.55640 770.0
16.56140 721.0
16.56640 736.0
16.57140 766.0
16.57640 770.0
16.58140 766.0
16.58640 748.0
16.59140 761.0
16.59640 798.0
16.60140 744.0
16.60640 826.0
16.61140 879.0
16.61640 780.0
16.62140 802.0
16.62640 812.0
16.63140 773.0
16.63640 812.0
16.64140 835.0
16.64640 788.0
16.65140 845.0
16.65640 813.0
16.66140 855.0
16.66640 840.0
16.67140 821.0
16.67640 854.0
16.68140 872.0
16.68640 829.0
16.69140 826.0
16.69640 821.0
16.70140 890.0
16.70640 800.0
16.71140 942.0
16.71640 884.0
16.72140 831.0
16.72640 833.0
16.73140 879.0
16.73640 851.0
16.74140 910.0
16.74640 919.0
16.75140 934.0
16.75640 839.0
16.76140 868.0
16.76640 880.0
16.77140 844.0
16.77640 880.0
16.78140 853.0
16.78640 923.0
16.79140 925.0
16.79640 877.0
16.80140 889.0
16.80640 867.0
16.81140 1021.0
16.81640 892.0
16.82140 944.0
16.82640 875.0
16.83140 942.0
16.83640 925.0
16.84140 925.0
16.84640 969.0
16.85140 951.0
16.85640 928.0
16.86140 956.0
16.86640 934.0
16.87140 962.0
16.87640 934.0
16.88140 957.0
16.88640 924.0
16.89140 945.0
16.89640 1026.0
16.90140 980.0
16.90640 977.0
16.91140 985.0
16.91640 975.0
16.92140 1006.0
16.92640 973.0
16.93140 967.0
16.93640 946.0
16.94140 1036.0
16.94640 1007.0
16.95140 1003.0
16.95640 1080.0
16.96140 974.0
16.96640 1076.0
16.97140 1033.0
16.97640 1065.0
16.98140 1039.0
16.98640 1037.0
16.99140 1053.0
16.99640 1079.0
17.00140 1053.0
17.00640 1029.0
17.01140 1105.0
17.01640 1027.0
17.02140 1095.0
17.02640 1014.0
17.03140 1073.0
17.03640 1055.0
17.04140 1111.0
17.04640 1080.0
17.05140 1116.0
17.05640 1073.0
17.06140 1126.0
17.06640 1079.0
17.07140 1077.0
17.07640 1068.0
17.08140 1113.0
17.08640 1037.0
17.09140 1087.0
17.09640 1183.0
17.10140 1122.0
17.10640 1114.0
17.11140 1090.0
17.11640 1145.0
17.12140 1161.0
17.12640 1143.0
17.13140 1125.0
17.13640 1164.0
17.14140 1187.0
17.14640 1132.0
17.15140 1148.0
17.15640 1192.0
17.16140 1179.0
17.16640 1214.0
17.17140 1219.0
17.17640 1218.0
17.18140 1240.0
17.18640 1224.0
17.19140 1241.0
17.19640 1242.0
17.20140 1287.0
17.20640 1170.0
17.21140 1213.0
17.21640 1271.0
17.22140 1283.0
17.22640 1253.0
17.23140 1267.0
17.23640 1229.0
17.24140 1281.0
17.24640 1220.0
17.25140 1336.0
17.25640 1264.0
17.26140 1235.0
17.26640 1273.0
17.27140 1319.0
17.27640 1277.0
17.28140 1296.0
17.28640 1285.0
17.29140 1304.0
17.29640 1308.0
17.30140 1238.0
17.30640 1308.0
17.31140 1293.0
17.31640 1300.0
17.32140 1370.0
17.32640 1322.0
17.33140 1298.0
17.33640 1286.0
17.34140 1347.0
17.34640 1332.0
17.35140 1359.0
17.35640 1355.0
17.36140 1300.0
17.36640 1428.0
17.37140 1362.0
17.37640 1396.0
17.38140 1442.0
17.38640 1316.0
17.39140 1385.0
17.39640 1352.0
17.40140 1392.0
17.40640 1395.0
17.41140 1405.0
17.41640 1464.0
17.42140 1427.0
17.42640 1461.0
17.43140 1431.0
17.43640 1549.0
17.44140 1531.0
17.44640 1456.0
17.45140 1534.0
17.45640 1453.0
17.46140 1447.0
17.46640 1442.0
17.47140 1491.0
17.47640 1594.0
17.48140 1532.0
17.48640 1533.0
17.49140 1515.0
17.49640 1558.0
17.50140 1514.0
17.50640 1556.0
17.51140 1513.0
17.51640 1532.0
17.52140 1532.0
17.52640 1548.0
17.53140 1517.0
17.53640 1656.0
17.54140 1637.0
17.54640 1628.0
17.55140 1636.0
17.55640 1643.0
17.56140 1765.0
17.56640 1793.0
17.57140 1784.0
17.57640 1735.0
17.58140 1771.0
17.58640 1863.0
17.59140 1817.0
17.59640 1812.0
17.60140 1791.0
17.60640 1929.0
17.61140 1914.0
17.61640 1998.0
17.62140 2092.0
17.62640 2170.0
17.63140 2215.0
17.63640 2365.0
17.64140 2414.0
17.64640 2527.0
17.65140 2601.0
17.65640 2814.0
17.66140 2680.0
17.66640 2751.0
17.67140 2833.0
17.67640 2923.0
17.68140 2752.0
17.68640 2902.0
17.69140 2795.0
17.69640 2746.0
17.70140 2641.0
17.70640 2805.0
17.71140 2715.0
17.71640 2629.0
17.72140 2565.0
17.72640 2478.0
17.73140 2387.0
17.73640 2282.0
17.74140 2262.0
17.74640 2246.0
17.75140 2220.0
17.75640 2099.0
17.76140 2113.0
17.76640 2097.0
17.77140 2053.0
17.77640 2007.0
17.78140 1957.0
17.78640 1960.0
17.79140 2040.0
17.79640 1972.0
17.80140 1869.0
17.80640 1851.0
17.81140 1808.0
17.81640 1838.0
17.82140 1817.0
17.82640 1654.0
17.83140 1757.0
17.83640 1699.0
17.84140 1634.0
17.84640 1603.0
17.85140 1521.0
17.85640 1587.0
17.86140 1624.0
17.86640 1521.0
17.87140 1558.0
17.87640 1499.0
17.88140 1511.0
17.88640 1463.0
17.89140 1444.0
17.89640 1461.0
17.90140 1413.0
17.90640 1450.0
17.91140 1501.0
17.91640 1418.0
17.92140 1545.0
17.92640 1437.0
17.93140 1483.0
17.93640 1420.0
17.94140 1461.0
17.94640 1418.0
17.95140 1441.0
17.95640 1385.0
17.96140 1374.0
17.96640 1371.0
17.97140 1366.0
17.97640 1365.0
17.98140 1332.0
17.98640 1397.0
17.99140 1288.0
17.99640 1374.0
18.00140 1392.0
18.00640 1302.0
18.01140 1360.0
18.01640 1305.0
18.02140 1306.0
18.02640 1295.0
18.03140 1239.0
18.03640 1335.0
18.04140 1292.0
18.04640 1300.0
18.05140 1235.0
18.05640 1189.0
18.06140 1284.0
18.06640 1270.0
18.07140 1271.0
18.07640 1250.0
18.08140 1289.0
18.08640 1216.0
18.09140 1273.0
18.09640 1278.0
18.10140 1211.0
18.10640 1265.0
18.11140 1221.0
18.11640 1200.0
18.12140 1203.0
18.12640 1198.0
18.13140 1237.0
18.13640 1215.0
18.14140 1196.0
18.14640 1229.0
18.15140 1117.0
18.15640 1190.0
18.16140 1144.0
18.16640 1161.0
18.17140 1130.0
18.17640 1113.0
18.18140 1199.0
18.18640 1085.0
18.19140 1235.0
18.19640 1120.0
18.20140 1135.0
18.20640 1159.0
18.21140 1115.0
18.21640 1123.0
18.22140 1129.0
18.22640 1134.0
18.23140 1088.0
18.23640 1041.0
18.24140 1079.0
18.24640 1069.0
18.25140 1120.0
18.25640 1101.0
18.26140 1040.0
18.26640 1060.0
18.27140 1054.0
18.27640 1027.0
18.28140 1065.0
18.28640 1039.0
18.29140 1038.0
18.29640 1045.0
18.30140 1018.0
18.30640 1028.0
18.31140 1011.0
18.31640 1004.0
18.32140 992.0
18.32640 1023.0
18.33140 956.0
18.33640 1020.0
18.34140 1040.0
18.34640 998.0
18.35140 980.0
18.35640 1034.0
18.36140 1003.0
18.36640 943.0
18.37140 935.0
18.37640 997.0
18.38140 977.0
18.38640 952.0
18.39140 1020.0
18.39640 978.0
18.40140 998.0
18.40640 943.0
18.41140 952.0
18.41640 920.0
18.42140 979.0
18.42640 976.0
18.43140 957.0
18.43640 922.0
18.44140 983.0
18.44640 956.0
18.45140 892.0
18.45640 934.0
18.46140 934.0
18.46640 993.0
18.47140 942.0
18.47640 924.0
18.48140 874.0
18.48640 890.0
18.49140 861.0
18.49640 873.0
18.50140 861.0
18.50640 898.0
18.51140 872.0
18.51640 884.0
18.52140 869.0
18.52640 891.0
18.53140 829.0
18.53640 815.0
18.54140 906.0
18.54640 843.0
18.55140 812.0
18.55640 845.0
18.56140 820.0
18.56640 838.0
18.57140 839.0
18.57640 833.0
18.58140 807.0
18.58640 825.0
18.59140 825.0
18.59640 772.0
18.60140 809.0
18.60640 794.0
18.61140 831.0
18.61640 765.0
18.62140 804.0
18.62640 791.0
18.63140 829.0
18.63640 822.0
18.64140 763.0
18.64640 753.0
18.65140 807.0
18.65640 747.0
18.66140 739.0
18.66640 769.0
18.67140 708.0
18.67640 757.0
18.68140 705.0
18.68640 739.0
18.69140 729.0
18.69640 809.0
18.70140 741.0
18.70640 735.0
18.71140 751.0
18.71640 692.0
18.72140 781.0
18.72640 714.0
18.73140 705.0
18.73640 713.0
18.74140 737.0
18.74640 735.0
18.75140 705.0
18.75640 704.0
18.76140 709.0
18.76640 716.0
18.77140 788.0
18.77640 687.0
18.78140 729.0
18.78640 692.0
18.79140 748.0
18.79640 694.0
18.80140 707.0
18.80640 644.0
18.81140 624.0
18.81640 654.0
18.82140 688.0
18.82640 635.0
18.83140 643.0
18.83640 669.0
18.84140 653.0
18.84640 659.0
18.85140 621.0
18.85640 660.0
18.86140 625.0
18.86640 640.0
18.87140 640.0
18.87640 660.0
18.88140 617.0
18.88640 633.0
18.89140 651.0
18.89640 641.0
18.90140 630.0
18.90640 620.0
18.91140 651.0
18.91640 633.0
18.92140 625.0
18.92640 622.0
18.93140 644.0
18.93640 614.0
18.94140 593.0
18.94640 562.0
18.95140 674.0
18.95640 636.0
18.96140 560.0
18.96640 580.0
18.97140 598.0
18.97640 611.0
18.98140 582.0
18.98640 586.0
18.99140 611.0
18.99640 598.0
19.00140 593.0
19.00640 662.0
19.01140 545.0
19.01640 601.0
19.02140 555.0
19.02640 584.0
19.03140 545.0
19.03640 550.0
19.04140 549.0
19.04640 550.0
19.05140 582.0
19.05640 503.0
19.06140 531.0
19.06640 527.0
19.07140 579.0
19.07640 533.0
19.08140 518.0
19.08640 561.0
19.09140 503.0
19.09640 549.0
19.10140 541.0
19.10640 492.0
19.11140 533.0
19.11640 579.0
19.12140 499.0
19.12640 497.0
19.13140 541.0
19.13640 523.0
19.14140 489.0
19.14640 503.0
19.15140 536.0
19.15640 501.0
19.16140 510.0
19.16640 542.0
19.17140 536.0
19.17640 525.0
19.18140 471.0
19.18640 465.0
19.19140 527.0
19.19640 507.0
19.20140 504.0
19.20640 446.0
19.21140 454.0
19.21640 484.0
19.22140 479.0
19.22640 472.0
19.23140 466.0
19.23640 466.0
19.24140 452.0
19.24640 441.0
19.25140 431.0
19.25640 428.0
19.26140 457.0
19.26640 462.0
19.27140 436.0
19.27640 433.0
19.28140 434.0
19.28640 450.0
19.29140 458.0
19.29640 441.0
19.30140 414.0
19.30640 414.0
19.31140 420.0
19.31640 430.0
19.32140 466.0
19.32640 414.0
19.33140 423.0
19.33640 410.0
19.34140 427.0
19.34640 432.0
19.35140 396.0
19.35640 442.0
19.36140 395.0
19.36640 437.0
19.37140 410.0
19.37640 395.0
19.38140 401.0
19.38640 379.0
19.39140 406.0
19.39640 359.0
19.40140 367.0
19.40640 382.0
19.41140 365.0
19.41640 408.0
19.42140 369.0
19.42640 388.0
19.43140 394.0
19.43640 407.0
19.44140 338.0
19.44640 401.0
19.45140 432.0
19.45640 366.0
19.46140 335.0
19.46640 341.0
19.47140 347.0
19.47640 364.0
19.48140 384.0
19.48640 348.0
19.49140 348.0
19.49640 363.0
19.50140 337.0
19.50640 333.0
19.51140 329.0
19.51640 357.0
19.52140 328.0
19.52640 337.0
19.53140 345.0
19.53640 340.0
19.54140 299.0
19.54640 313.0
19.55140 326.0
19.55640 334.0
19.56140 310.0
19.56640 323.0
19.57140 342.0
19.57640 355.0
19.58140 319.0
19.58640 338.0
19.59140 343.0
19.59640 352.0
19.60140 319.0
19.60640 273.0
19.61140 294.0
19.61640 316.0
19.62140 291.0
19.62640 324.0
19.63140 297.0
19.63640 357.0
19.64140 300.0
19.64640 292.0
19.65140 307.0
19.65640 321.0
19.66140 312.0
19.66640 312.0