File: data/W6856m/XRD_Omega/W6856m_Cr2O3_scan_omega_2deg_step_0.002deg0_4.xy
31.71980 600.0
31.72180 581.0
31.72380 557.0
31.72580 570.0
31.72780 559.0
31.72980 618.0
31.73180 551.0
31.73380 621.0
31.73580 595.0
31.73780 535.0
31.73980 615.0
31.74180 602.0
31.74380 644.0
31.74580 613.0
31.74780 588.0
31.74980 587.0
31.75180 572.0
31.75380 643.0
31.75580 596.0
31.75780 622.0
31.75980 641.0
31.76180 612.0
31.76380 606.0
31.76580 616.0
31.76780 631.0
31.76980 623.0
31.77180 606.0
31.77380 662.0
31.77580 646.0
31.77780 643.0
31.77980 620.0
31.78180 650.0
31.78380 628.0
31.78580 600.0
31.78780 647.0
31.78980 679.0
31.79180 674.0
31.79380 676.0
31.79580 649.0
31.79780 650.0
31.79980 625.0
31.80180 662.0
31.80380 715.0
31.80580 670.0
31.80780 690.0
31.80980 678.0
31.81180 709.0
31.81380 630.0
31.81580 671.0
31.81780 711.0
31.81980 676.0
31.82180 696.0
31.82380 643.0
31.82580 712.0
31.82780 690.0
31.82980 709.0
31.83180 724.0
31.83380 729.0
31.83580 727.0
31.83780 694.0
31.83980 729.0
31.84180 694.0
31.84380 753.0
31.84580 686.0
31.84780 741.0
31.84980 717.0
31.85180 729.0
31.85380 729.0
31.85580 779.0
31.85780 750.0
31.85980 749.0
31.86180 725.0
31.86380 756.0
31.86580 703.0
31.86780 779.0
31.86980 770.0
31.87180 812.0
31.87380 766.0
31.87580 708.0
31.87780 765.0
31.87980 783.0
31.88180 791.0
31.88380 832.0
31.88580 775.0
31.88780 753.0
31.88980 782.0
31.89180 772.0
31.89380 787.0
31.89580 800.0
31.89780 784.0
31.89980 869.0
31.90180 806.0
31.90380 808.0
31.90580 799.0
31.90780 824.0
31.90980 799.0
31.91180 829.0
31.91380 787.0
31.91580 855.0
31.91780 811.0
31.91980 849.0
31.92180 841.0
31.92380 881.0
31.92580 841.0
31.92780 843.0
31.92980 877.0
31.93180 867.0
31.93380 857.0
31.93580 859.0
31.93780 863.0
31.93980 871.0
31.94180 904.0
31.94380 858.0
31.94580 878.0
31.94780 904.0
31.94980 900.0
31.95180 864.0
31.95380 916.0
31.95580 880.0
31.95780 896.0
31.95980 873.0
31.96180 893.0
31.96380 844.0
31.96580 853.0
31.96780 876.0
31.96980 908.0
31.97180 929.0
31.97380 878.0
31.97580 884.0
31.97780 902.0
31.97980 919.0
31.98180 845.0
31.98380 967.0
31.98580 924.0
31.98780 999.0
31.98980 1000.0
31.99180 912.0
31.99380 961.0
31.99580 958.0
31.99780 948.0
31.99980 901.0
32.00180 987.0
32.00380 995.0
32.00580 993.0
32.00780 1019.0
32.00980 1020.0
32.01180 976.0
32.01380 1017.0
32.01580 1003.0
32.01780 1002.0
32.01980 1004.0
32.02180 1017.0
32.02380 1023.0
32.02580 967.0
32.02780 1031.0
32.02980 993.0
32.03180 1112.0
32.03380 1051.0
32.03580 1085.0
32.03780 1040.0
32.03980 1004.0
32.04180 1051.0
32.04380 1038.0
32.04580 1027.0
32.04780 1092.0
32.04980 1110.0
32.05180 1069.0
32.05380 1036.0
32.05580 1092.0
32.05780 1045.0
32.05980 1087.0
32.06180 1077.0
32.06380 1059.0
32.06580 1052.0
32.06780 1036.0
32.06980 1115.0
32.07180 1122.0
32.07380 1116.0
32.07580 1144.0
32.07780 1113.0
32.07980 1112.0
32.08180 1137.0
32.08380 1138.0
32.08580 1117.0
32.08780 1108.0
32.08980 1172.0
32.09180 1082.0
32.09380 1161.0
32.09580 1164.0
32.09780 1149.0
32.09980 1169.0
32.10180 1167.0
32.10380 1209.0
32.10580 1096.0
32.10780 1145.0
32.10980 1239.0
32.11180 1188.0
32.11380 1229.0
32.11580 1220.0
32.11780 1157.0
32.11980 1202.0
32.12180 1242.0
32.12380 1186.0
32.12580 1220.0
32.12780 1222.0
32.12980 1231.0
32.13180 1266.0
32.13380 1229.0
32.13580 1287.0
32.13780 1261.0
32.13980 1279.0
32.14180 1231.0
32.14380 1229.0
32.14580 1297.0
32.14780 1257.0
32.14980 1286.0
32.15180 1273.0
32.15380 1231.0
32.15580 1289.0
32.15780 1305.0
32.15980 1286.0
32.16180 1308.0
32.16380 1333.0
32.16580 1295.0
32.16780 1256.0
32.16980 1395.0
32.17180 1340.0
32.17380 1381.0
32.17580 1322.0
32.17780 1302.0
32.17980 1325.0
32.18180 1381.0
32.18380 1412.0
32.18580 1305.0
32.18780 1345.0
32.18980 1419.0
32.19180 1396.0
32.19380 1402.0
32.19580 1464.0
32.19780 1500.0
32.19980 1476.0
32.20180 1396.0
32.20380 1431.0
32.20580 1449.0
32.20780 1420.0
32.20980 1436.0
32.21180 1442.0
32.21380 1500.0
32.21580 1434.0
32.21780 1415.0
32.21980 1454.0
32.22180 1447.0
32.22380 1447.0
32.22580 1588.0
32.22780 1480.0
32.22980 1407.0
32.23180 1477.0
32.23380 1526.0
32.23580 1506.0
32.23780 1502.0
32.23980 1474.0
32.24180 1472.0
32.24380 1517.0
32.24580 1542.0
32.24780 1504.0
32.24980 1560.0
32.25180 1515.0
32.25380 1547.0
32.25580 1586.0
32.25780 1496.0
32.25980 1665.0
32.26180 1663.0
32.26380 1563.0
32.26580 1584.0
32.26780 1620.0
32.26980 1590.0
32.27180 1654.0
32.27380 1641.0
32.27580 1693.0
32.27780 1589.0
32.27980 1709.0
32.28180 1603.0
32.28380 1604.0
32.28580 1607.0
32.28780 1613.0
32.28980 1628.0
32.29180 1681.0
32.29380 1638.0
32.29580 1593.0
32.29780 1610.0
32.29980 1670.0
32.30180 1689.0
32.30380 1671.0
32.30580 1777.0
32.30780 1704.0
32.30980 1653.0
32.31180 1603.0
32.31380 1720.0
32.31580 1723.0
32.31780 1615.0
32.31980 1655.0
32.32180 1646.0
32.32380 1714.0
32.32580 1773.0
32.32780 1748.0
32.32980 1817.0
32.33180 1639.0
32.33380 1755.0
32.33580 1743.0
32.33780 1814.0
32.33980 1710.0
32.34180 1779.0
32.34380 1774.0
32.34580 1793.0
32.34780 1730.0
32.34980 1723.0
32.35180 1808.0
32.35380 1777.0
32.35580 1817.0
32.35780 1806.0
32.35980 1871.0
32.36180 1803.0
32.36380 1847.0
32.36580 1791.0
32.36780 1836.0
32.36980 1830.0
32.37180 1791.0
32.37380 1832.0
32.37580 1875.0
32.37780 1898.0
32.37980 1897.0
32.38180 1779.0
32.38380 1972.0
32.38580 1928.0
32.38780 1840.0
32.38980 1774.0
32.39180 1986.0
32.39380 1864.0
32.39580 1866.0
32.39780 1964.0
32.39980 1913.0
32.40180 1886.0
32.40380 1905.0
32.40580 1815.0
32.40780 1960.0
32.40980 1936.0
32.41180 1899.0
32.41380 1905.0
32.41580 1977.0
32.41780 1876.0
32.41980 1990.0
32.42180 1964.0
32.42380 1902.0
32.42580 1871.0
32.42780 1873.0
32.42980 1942.0
32.43180 1909.0
32.43380 1952.0
32.43580 1957.0
32.43780 1997.0
32.43980 2046.0
32.44180 2079.0
32.44380 2013.0
32.44580 1995.0
32.44780 2023.0
32.44980 1959.0
32.45180 2111.0
32.45380 2026.0
32.45580 1942.0
32.45780 2024.0
32.45980 2057.0
32.46180 2099.0
32.46380 2009.0
32.46580 2017.0
32.46780 2012.0
32.46980 2108.0
32.47180 1986.0
32.47380 2095.0
32.47580 2060.0
32.47780 2098.0
32.47980 2064.0
32.48180 2139.0
32.48380 2073.0
32.48580 2079.0
32.48780 2098.0
32.48980 2081.0
32.49180 2143.0
32.49380 2123.0
32.49580 2089.0
32.49780 2064.0
32.49980 2167.0
32.50180 2129.0
32.50380 2139.0
32.50580 2131.0
32.50780 2107.0
32.50980 2151.0
32.51180 2185.0
32.51380 2185.0
32.51580 2169.0
32.51780 2167.0
32.51980 2220.0
32.52180 2195.0
32.52380 2244.0
32.52580 2233.0
32.52780 2165.0
32.52980 2200.0
32.53180 2266.0
32.53380 2241.0
32.53580 2172.0
32.53780 2173.0
32.53980 2267.0
32.54180 2224.0
32.54380 2296.0
32.54580 2276.0
32.54780 2277.0
32.54980 2285.0
32.55180 2281.0
32.55380 2234.0
32.55580 2326.0
32.55780 2245.0
32.55980 2333.0
32.56180 2281.0
32.56380 2388.0
32.56580 2401.0
32.56780 2421.0
32.56980 2492.0
32.57180 2456.0
32.57380 2479.0
32.57580 2408.0
32.57780 2489.0
32.57980 2616.0
32.58180 2513.0
32.58380 2644.0
32.58580 2682.0
32.58780 2763.0
32.58980 2790.0
32.59180 2829.0
32.59380 2850.0
32.59580 2977.0
32.59780 2943.0
32.59980 3112.0
32.60180 3227.0
32.60380 3182.0
32.60580 3398.0
32.60780 3461.0
32.60980 3498.0
32.61180 3562.0
32.61380 3534.0
32.61580 3603.0
32.61780 3674.0
32.61980 3545.0
32.62180 3488.0
32.62380 3658.0
32.62580 3587.0
32.62780 3479.0
32.62980 3465.0
32.63180 3453.0
32.63380 3346.0
32.63580 3266.0
32.63780 3179.0
32.63980 3190.0
32.64180 3176.0
32.64380 2982.0
32.64580 3036.0
32.64780 2954.0
32.64980 3048.0
32.65180 2928.0
32.65380 2950.0
32.65580 2820.0
32.65780 2874.0
32.65980 2865.0
32.66180 2819.0
32.66380 2880.0
32.66580 2992.0
32.66780 2700.0
32.66980 2893.0
32.67180 2832.0
32.67380 2843.0
32.67580 2743.0
32.67780 2798.0
32.67980 2826.0
32.68180 2883.0
32.68380 2914.0
32.68580 2914.0
32.68780 2832.0
32.68980 2777.0
32.69180 2906.0
32.69380 2829.0
32.69580 2880.0
32.69780 2790.0
32.69980 2850.0
32.70180 2805.0
32.70380 2717.0
32.70580 2670.0
32.70780 2690.0
32.70980 2702.0
32.71180 2711.0
32.71380 2755.0
32.71580 2696.0
32.71780 2511.0
32.71980 2569.0
32.72180 2676.0
32.72380 2655.0
32.72580 2598.0
32.72780 2510.0
32.72980 2579.0
32.73180 2605.0
32.73380 2480.0
32.73580 2489.0
32.73780 2636.0
32.73980 2588.0
32.74180 2577.0
32.74380 2529.0
32.74580 2651.0
32.74780 2528.0
32.74980 2523.0
32.75180 2585.0
32.75380 2734.0
32.75580 2554.0
32.75780 2556.0
32.75980 2523.0
32.76180 2489.0
32.76380 2575.0
32.76580 2449.0
32.76780 2497.0
32.76980 2476.0
32.77180 2539.0
32.77380 2367.0
32.77580 2445.0
32.77780 2366.0
32.77980 2410.0
32.78180 2397.0
32.78380 2404.0
32.78580 2330.0
32.78780 2390.0
32.78980 2299.0
32.79180 2355.0
32.79380 2367.0
32.79580 2219.0
32.79780 2246.0
32.79980 2291.0
32.80180 2327.0
32.80380 2330.0
32.80580 2315.0
32.80780 2332.0
32.80980 2196.0
32.81180 2302.0
32.81380 2289.0
32.81580 2219.0
32.81780 2209.0
32.81980 2226.0
32.82180 2289.0
32.82380 2255.0
32.82580 2111.0
32.82780 2278.0
32.82980 2273.0
32.83180 2307.0
32.83380 2182.0
32.83580 2295.0
32.83780 2235.0
32.83980 2314.0
32.84180 2263.0
32.84380 2191.0
32.84580 2361.0
32.84780 2300.0
32.84980 2219.0
32.85180 2262.0
32.85380 2243.0
32.85580 2310.0
32.85780 2189.0
32.85980 2299.0
32.86180 2306.0
32.86380 2147.0
32.86580 2191.0
32.86780 2182.0
32.86980 2201.0
32.87180 2194.0
32.87380 2269.0
32.87580 2218.0
32.87780 2154.0
32.87980 2199.0
32.88180 2128.0
32.88380 2182.0
32.88580 2127.0
32.88780 2147.0
32.88980 2105.0
32.89180 2053.0
32.89380 2046.0
32.89580 2170.0
32.89780 2098.0
32.89980 2059.0
32.90180 2056.0
32.90380 2182.0
32.90580 2015.0
32.90780 2001.0
32.90980 2085.0
32.91180 1980.0
32.91380 2070.0
32.91580 2048.0
32.91780 1995.0
32.91980 1991.0
32.92180 2048.0
32.92380 2030.0
32.92580 2045.0
32.92780 2087.0
32.92980 2084.0
32.93180 1969.0
32.93380 1963.0
32.93580 2006.0
32.93780 1904.0
32.93980 1946.0
32.94180 1930.0
32.94380 1974.0
32.94580 1918.0
32.94780 1954.0
32.94980 1980.0
32.95180 1912.0
32.95380 1905.0
32.95580 1896.0
32.95780 1913.0
32.95980 1934.0
32.96180 1856.0
32.96380 1824.0
32.96580 1922.0
32.96780 1838.0
32.96980 1866.0
32.97180 1824.0
32.97380 1846.0
32.97580 1852.0
32.97780 1735.0
32.97980 1848.0
32.98180 1776.0
32.98380 1813.0
32.98580 1834.0
32.98780 1770.0
32.98980 1744.0
32.99180 1838.0
32.99380 1806.0
32.99580 1943.0
32.99780 1759.0
32.99980 1751.0
33.00180 1749.0
33.00380 1709.0
33.00580 1774.0
33.00780 1801.0
33.00980 1735.0
33.01180 1770.0
33.01380 1745.0
33.01580 1710.0
33.01780 1666.0
33.01980 1772.0
33.02180 1751.0
33.02380 1731.0
33.02580 1745.0
33.02780 1723.0
33.02980 1704.0
33.03180 1675.0
33.03380 1664.0
33.03580 1742.0
33.03780 1663.0
33.03980 1732.0
33.04180 1703.0
33.04380 1768.0
33.04580 1717.0
33.04780 1645.0
33.04980 1668.0
33.05180 1689.0
33.05380 1622.0
33.05580 1622.0
33.05780 1615.0
33.05980 1634.0
33.06180 1645.0
33.06380 1624.0
33.06580 1615.0
33.06780 1643.0
33.06980 1688.0
33.07180 1638.0
33.07380 1537.0
33.07580 1505.0
33.07780 1582.0
33.07980 1615.0
33.08180 1595.0
33.08380 1570.0
33.08580 1516.0
33.08780 1550.0
33.08980 1620.0
33.09180 1566.0
33.09380 1527.0
33.09580 1575.0
33.09780 1511.0
33.09980 1473.0
33.10180 1499.0
33.10380 1507.0
33.10580 1491.0
33.10780 1441.0
33.10980 1510.0
33.11180 1430.0
33.11380 1481.0
33.11580 1429.0
33.11780 1527.0
33.11980 1429.0
33.12180 1455.0
33.12380 1470.0
33.12580 1478.0
33.12780 1403.0
33.12980 1410.0
33.13180 1461.0
33.13380 1355.0
33.13580 1388.0
33.13780 1432.0
33.13980 1442.0
33.14180 1441.0
33.14380 1453.0
33.14580 1389.0
33.14780 1436.0
33.14980 1385.0
33.15180 1385.0
33.15380 1349.0
33.15580 1333.0
33.15780 1356.0
33.15980 1359.0
33.16180 1411.0
33.16380 1398.0
33.16580 1382.0
33.16780 1387.0
33.16980 1377.0
33.17180 1293.0
33.17380 1361.0
33.17580 1306.0
33.17780 1359.0
33.17980 1300.0
33.18180 1298.0
33.18380 1318.0
33.18580 1288.0
33.18780 1301.0
33.18980 1343.0
33.19180 1275.0
33.19380 1261.0
33.19580 1246.0
33.19780 1276.0
33.19980 1247.0
33.20180 1252.0
33.20380 1262.0
33.20580 1288.0
33.20780 1257.0
33.20980 1286.0
33.21180 1209.0
33.21380 1200.0
33.21580 1181.0
33.21780 1268.0
33.21980 1254.0
33.22180 1153.0
33.22380 1201.0
33.22580 1227.0
33.22780 1111.0
33.22980 1172.0
33.23180 1170.0
33.23380 1213.0
33.23580 1200.0
33.23780 1186.0
33.23980 1166.0
33.24180 1220.0
33.24380 1221.0
33.24580 1142.0
33.24780 1093.0
33.24980 1178.0
33.25180 1156.0
33.25380 1123.0
33.25580 1075.0
33.25780 1106.0
33.25980 1102.0
33.26180 1141.0
33.26380 1104.0
33.26580 1098.0
33.26780 1062.0
33.26980 1054.0
33.27180 1126.0
33.27380 1080.0
33.27580 1030.0
33.27780 1080.0
33.27980 1091.0
33.28180 1082.0
33.28380 1026.0
33.28580 1018.0
33.28780 1039.0
33.28980 1060.0
33.29180 1088.0
33.29380 1053.0
33.29580 1027.0
33.29780 983.0
33.29980 1010.0
33.30180 1051.0
33.30380 1034.0
33.30580 1003.0
33.30780 1032.0
33.30980 1025.0
33.31180 982.0
33.31380 1014.0
33.31580 1034.0
33.31780 955.0
33.31980 1017.0
33.32180 1024.0
33.32380 965.0
33.32580 977.0
33.32780 937.0
33.32980 936.0
33.33180 994.0
33.33380 929.0
33.33580 944.0
33.33780 931.0
33.33980 931.0
33.34180 933.0
33.34380 936.0
33.34580 899.0
33.34780 943.0
33.34980 880.0
33.35180 911.0
33.35380 847.0
33.35580 903.0
33.35780 893.0
33.35980 909.0
33.36180 839.0
33.36380 918.0
33.36580 876.0
33.36780 790.0
33.36980 878.0
33.37180 847.0
33.37380 848.0
33.37580 839.0
33.37780 848.0
33.37980 800.0
33.38180 816.0
33.38380 794.0
33.38580 829.0
33.38780 852.0
33.38980 848.0
33.39180 840.0
33.39380 809.0
33.39580 794.0
33.39780 789.0
33.39980 773.0
33.40180 842.0
33.40380 828.0
33.40580 794.0
33.40780 776.0
33.40980 826.0
33.41180 752.0
33.41380 822.0
33.41580 784.0
33.41780 778.0
33.41980 750.0
33.42180 764.0
33.42380 818.0
33.42580 749.0
33.42780 814.0
33.42980 766.0
33.43180 749.0
33.43380 735.0
33.43580 758.0
33.43780 749.0
33.43980 780.0
33.44180 733.0
33.44380 748.0
33.44580 768.0
33.44780 785.0
33.44980 761.0
33.45180 731.0
33.45380 789.0
33.45580 694.0
33.45780 715.0
33.45980 705.0
33.46180 756.0
33.46380 687.0
33.46580 681.0
33.46780 713.0
33.46980 670.0
33.47180 661.0
33.47380 702.0
33.47580 672.0
33.47780 677.0
33.47980 687.0
33.48180 700.0
33.48380 656.0
33.48580 689.0
33.48780 669.0
33.48980 691.0
33.49180 617.0
33.49380 667.0
33.49580 657.0
33.49780 673.0
33.49980 680.0
33.50180 631.0
33.50380 694.0
33.50580 645.0
33.50780 666.0
33.50980 658.0
33.51180 668.0
33.51380 671.0
33.51580 670.0
33.51780 635.0
33.51980 621.0
33.52180 632.0
33.52380 628.0
33.52580 563.0
33.52780 566.0
33.52980 614.0
33.53180 620.0
33.53380 640.0
33.53580 638.0
33.53780 589.0
33.53980 636.0
33.54180 624.0
33.54380 581.0
33.54580 600.0
33.54780 617.0
33.54980 584.0
33.55180 569.0
33.55380 542.0
33.55580 579.0
33.55780 588.0
33.55980 559.0
33.56180 598.0
33.56380 563.0
33.56580 596.0
33.56780 541.0
33.56980 573.0
33.57180 569.0
33.57380 524.0
33.57580 546.0
33.57780 537.0
33.57980 522.0
33.58180 546.0
33.58380 516.0
33.58580 554.0
33.58780 530.0
33.58980 519.0
33.59180 512.0
33.59380 534.0
33.59580 554.0
33.59780 570.0
33.59980 520.0
33.60180 501.0
33.60380 533.0
33.60580 488.0
33.60780 501.0
33.60980 524.0
33.61180 555.0
33.61380 550.0
33.61580 507.0
33.61780 563.0
33.61980 519.0
33.62180 497.0
33.62380 505.0
33.62580 524.0
33.62780 500.0
33.62980 510.0
33.63180 529.0
33.63380 482.0
33.63580 459.0
33.63780 512.0
33.63980 514.0
33.64180 479.0
33.64380 500.0
33.64580 474.0
33.64780 468.0
33.64980 504.0
33.65180 470.0
33.65380 500.0
33.65580 447.0
33.65780 477.0
33.65980 443.0
33.66180 441.0
33.66380 449.0
33.66580 456.0
33.66780 432.0
33.66980 459.0
33.67180 446.0
33.67380 435.0
33.67580 493.0
33.67780 461.0
33.67980 489.0
33.68180 465.0
33.68380 438.0
33.68580 433.0
33.68780 477.0
33.68980 430.0
33.69180 449.0
33.69380 419.0
33.69580 393.0
33.69780 438.0
33.69980 466.0
33.70180 424.0
33.70380 454.0