File: data/W6904r/XRD_2ThetaOmega/scan_2th-om_r2_Cr2O3_45-55deg_PIXscan_5min_C5.xy
45.0025 125.0
45.0123 107.0
45.0222 125.0
45.032 147.0
45.0419 115.0
45.0517 148.0
45.0615 132.0
45.0714 107.0
45.0812 117.0
45.0911 120.0
45.1009 112.0
45.1108 115.0
45.1206 115.0
45.1305 146.0
45.1403 149.0
45.1502 134.0
45.16 135.0
45.1699 116.0
45.1797 150.0
45.1896 116.0
45.1994 131.0
45.2093 119.0
45.2191 107.0
45.229 128.0
45.2388 131.0
45.2487 119.0
45.2585 105.0
45.2684 129.0
45.2782 132.0
45.288 120.0
45.2979 115.0
45.3077 109.0
45.3176 133.0
45.3274 134.0
45.3373 126.0
45.3471 130.0
45.357 89.0
45.3668 129.0
45.3767 113.0
45.3865 121.0
45.3964 115.0
45.4062 115.0
45.4161 125.0
45.4259 122.0
45.4358 130.0
45.4456 123.0
45.4555 121.0
45.4653 139.0
45.4752 126.0
45.485 126.0
45.4948 152.0
45.5047 109.0
45.5145 130.0
45.5244 126.0
45.5342 121.0
45.5441 115.0
45.5539 117.0
45.5638 116.0
45.5736 120.0
45.5835 138.0
45.5933 135.0
45.6032 129.0
45.613 118.0
45.6229 120.0
45.6327 104.0
45.6426 134.0
45.6524 115.0
45.6623 109.0
45.6721 112.0
45.682 156.0
45.6918 121.0
45.7016 135.0
45.7115 137.0
45.7213 118.0
45.7312 121.0
45.741 125.0
45.7509 118.0
45.7607 107.0
45.7706 121.0
45.7804 102.0
45.7903 107.0
45.8001 126.0
45.81 92.0
45.8198 107.0
45.8297 132.0
45.8395 118.0
45.8494 113.0
45.8592 119.0
45.8691 113.0
45.8789 114.0
45.8888 123.0
45.8986 98.0
45.9085 138.0
45.9183 134.0
45.9281 104.0
45.938 116.0
45.9478 128.0
45.9577 117.0
45.9675 121.0
45.9774 120.0
45.9872 117.0
45.9971 124.0
46.0069 107.0
46.0168 117.0
46.0266 127.0
46.0365 135.0
46.0463 107.0
46.0562 108.0
46.066 110.0
46.0759 111.0
46.0857 139.0
46.0956 125.0
46.1054 109.0
46.1153 119.0
46.1251 141.0
46.1349 110.0
46.1448 105.0
46.1546 119.0
46.1645 129.0
46.1743 113.0
46.1842 136.0
46.194 114.0
46.2039 117.0
46.2137 121.0
46.2236 119.0
46.2334 130.0
46.2433 118.0
46.2531 138.0
46.263 116.0
46.2728 116.0
46.2827 116.0
46.2925 134.0
46.3024 117.0
46.3122 120.0
46.3221 128.0
46.3319 100.0
46.3418 121.0
46.3516 108.0
46.3614 109.0
46.3713 110.0
46.3811 107.0
46.391 130.0
46.4008 147.0
46.4107 136.0
46.4205 133.0
46.4304 127.0
46.4402 123.0
46.4501 115.0
46.4599 112.0
46.4698 127.0
46.4796 125.0
46.4895 133.0
46.4993 106.0
46.5092 127.0
46.519 131.0
46.5289 127.0
46.5387 116.0
46.5486 111.0
46.5584 122.0
46.5682 132.0
46.5781 102.0
46.5879 145.0
46.5978 138.0
46.6076 110.0
46.6175 126.0
46.6273 115.0
46.6372 126.0
46.647 111.0
46.6569 139.0
46.6667 123.0
46.6766 127.0
46.6864 136.0
46.6963 148.0
46.7061 124.0
46.716 134.0
46.7258 140.0
46.7357 119.0
46.7455 154.0
46.7554 130.0
46.7652 136.0
46.7751 130.0
46.7849 137.0
46.7947 122.0
46.8046 124.0
46.8144 156.0
46.8243 125.0
46.8341 145.0
46.844 126.0
46.8538 133.0
46.8637 113.0
46.8735 129.0
46.8834 130.0
46.8932 130.0
46.9031 130.0
46.9129 134.0
46.9228 153.0
46.9326 127.0
46.9425 140.0
46.9523 145.0
46.9622 150.0
46.972 147.0
46.9819 148.0
46.9917 171.0
47.0015 143.0
47.0114 159.0
47.0212 155.0
47.0311 180.0
47.0409 180.0
47.0508 275.0
47.0606 313.0
47.0705 445.0
47.0803 577.0
47.0902 810.0
47.1 1095.0
47.1099 1236.0
47.1197 1303.0
47.1296 1301.0
47.1394 1191.0
47.1493 1065.0
47.1591 795.0
47.169 678.0
47.1788 551.0
47.1887 530.0
47.1985 543.0
47.2083 550.0
47.2182 447.0
47.228 358.0
47.2379 318.0
47.2477 258.0
47.2576 210.0
47.2674 198.0
47.2773 180.0
47.2871 185.0
47.297 180.0
47.3068 175.0
47.3167 159.0
47.3265 153.0
47.3364 172.0
47.3462 150.0
47.3561 174.0
47.3659 138.0
47.3758 134.0
47.3856 164.0
47.3955 139.0
47.4053 156.0
47.4152 141.0
47.425 138.0
47.4348 158.0
47.4447 139.0
47.4545 160.0
47.4644 140.0
47.4742 115.0
47.4841 149.0
47.4939 144.0
47.5038 143.0
47.5136 136.0
47.5235 162.0
47.5333 162.0
47.5432 130.0
47.553 136.0
47.5629 131.0
47.5727 147.0
47.5826 137.0
47.5924 158.0
47.6023 107.0
47.6121 156.0
47.622 138.0
47.6318 137.0
47.6416 139.0
47.6515 144.0
47.6613 130.0
47.6712 121.0
47.681 117.0
47.6909 113.0
47.7007 154.0
47.7106 140.0
47.7204 113.0
47.7303 141.0
47.7401 139.0
47.75 133.0
47.7598 117.0
47.7697 137.0
47.7795 115.0
47.7894 142.0
47.7992 146.0
47.8091 151.0
47.8189 135.0
47.8288 124.0
47.8386 127.0
47.8485 131.0
47.8583 139.0
47.8681 129.0
47.878 162.0
47.8878 109.0
47.8977 124.0
47.9075 139.0
47.9174 127.0
47.9272 128.0
47.9371 131.0
47.9469 137.0
47.9568 123.0
47.9666 139.0
47.9765 118.0
47.9863 147.0
47.9962 132.0
48.006 141.0
48.0159 143.0
48.0257 152.0
48.0356 150.0
48.0454 159.0
48.0553 120.0
48.0651 130.0
48.0749 139.0
48.0848 157.0
48.0946 136.0
48.1045 147.0
48.1143 142.0
48.1242 145.0
48.134 143.0
48.1439 157.0
48.1537 152.0
48.1636 154.0
48.1734 140.0
48.1833 118.0
48.1931 133.0
48.203 136.0
48.2128 103.0
48.2227 141.0
48.2325 160.0
48.2424 127.0
48.2522 147.0
48.2621 161.0
48.2719 140.0
48.2818 152.0
48.2916 147.0
48.3014 130.0
48.3113 151.0
48.3211 144.0
48.331 137.0
48.3408 136.0
48.3507 122.0
48.3605 141.0
48.3704 114.0
48.3802 134.0
48.3901 129.0
48.3999 117.0
48.4098 157.0
48.4196 146.0
48.4295 146.0
48.4393 113.0
48.4492 138.0
48.459 147.0
48.4689 128.0
48.4787 119.0
48.4886 125.0
48.4984 150.0
48.5082 153.0
48.5181 134.0
48.5279 124.0
48.5378 146.0
48.5476 104.0
48.5575 123.0
48.5673 144.0
48.5772 149.0
48.587 156.0
48.5969 126.0
48.6067 151.0
48.6166 127.0
48.6264 123.0
48.6363 153.0
48.6461 159.0
48.656 140.0
48.6658 153.0
48.6757 142.0
48.6855 136.0
48.6954 139.0
48.7052 142.0
48.715 148.0
48.7249 143.0
48.7347 178.0
48.7446 143.0
48.7544 140.0
48.7643 137.0
48.7741 140.0
48.784 159.0
48.7938 132.0
48.8037 145.0
48.8135 146.0
48.8234 142.0
48.8332 138.0
48.8431 142.0
48.8529 150.0
48.8628 170.0
48.8726 172.0
48.8825 150.0
48.8923 144.0
48.9022 158.0
48.912 144.0
48.9219 142.0
48.9317 154.0
48.9415 144.0
48.9514 152.0
48.9612 158.0
48.9711 159.0
48.9809 135.0
48.9908 130.0
49.0006 164.0
49.0105 133.0
49.0203 176.0
49.0302 140.0
49.04 153.0
49.0499 138.0
49.0597 159.0
49.0696 168.0
49.0794 152.0
49.0893 162.0
49.0991 149.0
49.109 148.0
49.1188 155.0
49.1287 165.0
49.1385 168.0
49.1483 178.0
49.1582 149.0
49.168 179.0
49.1779 158.0
49.1877 149.0
49.1976 143.0
49.2074 163.0
49.2173 161.0
49.2271 149.0
49.237 171.0
49.2468 161.0
49.2567 170.0
49.2665 172.0
49.2764 184.0
49.2862 188.0
49.2961 196.0
49.3059 186.0
49.3158 150.0
49.3256 200.0
49.3355 174.0
49.3453 202.0
49.3552 183.0
49.365 206.0
49.3748 206.0
49.3847 175.0
49.3945 204.0
49.4044 231.0
49.4142 200.0
49.4241 186.0
49.4339 218.0
49.4438 212.0
49.4536 227.0
49.4635 201.0
49.4733 187.0
49.4832 242.0
49.493 257.0
49.5029 234.0
49.5127 234.0
49.5226 248.0
49.5324 257.0
49.5423 255.0
49.5521 270.0
49.562 283.0
49.5718 264.0
49.5816 266.0
49.5915 301.0
49.6013 304.0
49.6112 316.0
49.621 316.0
49.6309 348.0
49.6407 350.0
49.6506 346.0
49.6604 372.0
49.6703 376.0
49.6801 385.0
49.69 417.0
49.6998 423.0
49.7097 425.0
49.7195 473.0
49.7294 477.0
49.7392 481.0
49.7491 506.0
49.7589 560.0
49.7688 564.0
49.7786 559.0
49.7884 630.0
49.7983 691.0
49.8081 669.0
49.818 731.0
49.8278 691.0
49.8377 740.0
49.8475 804.0
49.8574 816.0
49.8672 859.0
49.8771 863.0
49.8869 918.0
49.8968 952.0
49.9066 965.0
49.9165 976.0
49.9263 1016.0
49.9362 1047.0
49.946 1023.0
49.9559 975.0
49.9657 1105.0
49.9756 1095.0
49.9854 1067.0
49.9953 1140.0
50.0051 1089.0
50.0149 1145.0
50.0248 1090.0
50.0346 1107.0
50.0445 1144.0
50.0543 1020.0
50.0642 1069.0
50.074 1084.0
50.0839 1000.0
50.0937 1055.0
50.1036 1031.0
50.1134 986.0
50.1233 996.0
50.1331 965.0
50.143 992.0
50.1528 904.0
50.1627 923.0
50.1725 882.0
50.1824 840.0
50.1922 842.0
50.2021 764.0
50.2119 770.0
50.2217 724.0
50.2316 700.0
50.2414 706.0
50.2513 619.0
50.2611 616.0
50.271 563.0
50.2808 609.0
50.2907 574.0
50.3005 563.0
50.3104 548.0
50.3202 505.0
50.3301 450.0
50.3399 454.0
50.3498 480.0
50.3596 426.0
50.3695 432.0
50.3793 438.0
50.3892 396.0
50.399 368.0
50.4089 363.0
50.4187 345.0
50.4286 321.0
50.4384 326.0
50.4482 337.0
50.4581 344.0
50.4679 296.0
50.4778 291.0
50.4876 325.0
50.4975 293.0
50.5073 305.0
50.5172 304.0
50.527 302.0
50.5369 292.0
50.5467 285.0
50.5566 237.0
50.5664 255.0
50.5763 280.0
50.5861 272.0
50.596 286.0
50.6058 243.0
50.6157 244.0
50.6255 230.0
50.6354 236.0
50.6452 241.0
50.655 213.0
50.6649 212.0
50.6747 212.0
50.6846 214.0
50.6944 261.0
50.7043 233.0
50.7141 231.0
50.724 201.0
50.7338 230.0
50.7437 223.0
50.7535 213.0
50.7634 226.0
50.7732 216.0
50.7831 205.0
50.7929 216.0
50.8028 207.0
50.8126 202.0
50.8225 218.0
50.8323 235.0
50.8422 258.0
50.852 214.0
50.8619 204.0
50.8717 238.0
50.8815 211.0
50.8914 232.0
50.9012 200.0
50.9111 229.0
50.9209 229.0
50.9308 211.0
50.9406 274.0
50.9505 207.0
50.9603 232.0
50.9702 234.0
50.98 222.0
50.9899 264.0
50.9997 234.0
51.0096 237.0
51.0194 222.0
51.0293 231.0
51.0391 255.0
51.049 213.0
51.0588 226.0
51.0687 225.0
51.0785 285.0
51.0883 261.0
51.0982 265.0
51.108 260.0
51.1179 275.0
51.1277 266.0
51.1376 291.0
51.1474 268.0
51.1573 275.0
51.1671 306.0
51.177 293.0
51.1868 289.0
51.1967 287.0
51.2065 294.0
51.2164 314.0
51.2262 282.0
51.2361 283.0
51.2459 300.0
51.2558 304.0
51.2656 304.0
51.2755 308.0
51.2853 319.0
51.2951 307.0
51.305 347.0
51.3148 325.0
51.3247 316.0
51.3345 347.0
51.3444 318.0
51.3542 370.0
51.3641 316.0
51.3739 346.0
51.3838 328.0
51.3936 347.0
51.4035 383.0
51.4133 361.0
51.4232 363.0
51.433 380.0
51.4429 341.0
51.4527 354.0
51.4626 393.0
51.4724 367.0
51.4823 385.0
51.4921 372.0
51.502 399.0
51.5118 370.0
51.5216 386.0
51.5315 390.0
51.5413 430.0
51.5512 378.0
51.561 399.0
51.5709 409.0
51.5807 391.0
51.5906 407.0
51.6004 444.0
51.6103 432.0
51.6201 432.0
51.63 488.0
51.6398 453.0
51.6497 444.0
51.6595 461.0
51.6694 507.0
51.6792 481.0
51.6891 485.0
51.6989 510.0
51.7088 520.0
51.7186 525.0
51.7284 508.0
51.7383 545.0
51.7481 475.0
51.758 508.0
51.7678 528.0
51.7777 551.0
51.7875 533.0
51.7974 533.0
51.8072 560.0
51.8171 576.0
51.8269 541.0
51.8368 588.0
51.8466 581.0
51.8565 596.0
51.8663 589.0
51.8762 612.0
51.886 625.0
51.8959 654.0
51.9057 630.0
51.9156 703.0
51.9254 675.0
51.9353 683.0
51.9451 693.0
51.9549 732.0
51.9648 702.0
51.9746 699.0
51.9845 735.0
51.9943 722.0
52.0042 773.0
52.014 824.0
52.0239 864.0
52.0337 787.0
52.0436 822.0
52.0534 918.0
52.0633 881.0
52.0731 914.0
52.083 1004.0
52.0928 1012.0
52.1027 1037.0
52.1125 1082.0
52.1224 1148.0
52.1322 1163.0
52.1421 1221.0
52.1519 1255.0
52.1617 1327.0
52.1716 1400.0
52.1814 1510.0
52.1913 1715.0
52.2011 1876.0
52.211 1994.0
52.2208 2291.0
52.2307 2648.0
52.2405 3042.0
52.2504 3262.0
52.2602 3557.0
52.2701 3731.0
52.2799 3825.0
52.2898 3830.0
52.2996 3682.0
52.3095 3701.0
52.3193 3785.0
52.3292 3714.0
52.339 3790.0
52.3489 3999.0
52.3587 4094.0
52.3686 4534.0
52.3784 5015.0
52.3882 5571.0
52.3981 6782.0
52.4079 7977.0
52.4178 9725.0
52.4276 12307.0
52.4375 15979.0
52.4473 22291.0
52.4572 34717.0
52.467 61376.0
52.4769 127641.0
52.4867 224241.0
52.4966 288952.0
52.5064 316734.0
52.5163 322750.0
52.5261 301093.0
52.536 229896.0
52.5458 131230.0
52.5557 70535.0
52.5655 42410.0
52.5754 29871.0
52.5852 25934.0
52.595 26948.0
52.6049 36552.0
52.6147 61211.0
52.6246 102701.0
52.6344 139111.0
52.6443 157694.0
52.6541 162762.0
52.664 154060.0
52.6738 126136.0
52.6837 82280.0
52.6935 45397.0
52.7034 26274.0
52.7132 16472.0
52.7231 11659.0
52.7329 8874.0
52.7428 7316.0
52.7526 6081.0
52.7625 5405.0
52.7723 4634.0
52.7822 4105.0
52.792 3736.0
52.8018 3516.0
52.8117 3221.0
52.8215 2835.0
52.8314 2743.0
52.8412 2501.0
52.8511 2317.0
52.8609 2291.0
52.8708 2149.0
52.8806 1975.0
52.8905 1820.0
52.9003 1821.0
52.9102 1716.0
52.92 1663.0
52.9299 1564.0
52.9397 1486.0
52.9496 1358.0
52.9594 1374.0
52.9693 1355.0
52.9791 1228.0
52.989 1196.0
52.9988 1131.0
53.0087 1184.0
53.0185 1088.0
53.0283 1057.0
53.0382 997.0
53.048 991.0
53.0579 1003.0
53.0677 1025.0
53.0776 959.0
53.0874 959.0
53.0973 841.0
53.1071 842.0
53.117 847.0
53.1268 760.0
53.1367 784.0
53.1465 755.0
53.1564 726.0
53.1662 728.0
53.1761 718.0
53.1859 650.0
53.1958 667.0
53.2056 655.0
53.2155 593.0
53.2253 664.0
53.2351 606.0
53.245 596.0
53.2548 588.0
53.2647 549.0
53.2745 540.0
53.2844 585.0
53.2942 558.0
53.3041 527.0
53.3139 543.0
53.3238 527.0
53.3336 451.0
53.3435 506.0
53.3533 480.0
53.3632 521.0
53.373 457.0
53.3829 480.0
53.3927 472.0
53.4026 438.0
53.4124 463.0
53.4223 423.0
53.4321 440.0
53.442 394.0
53.4518 403.0
53.4616 410.0
53.4715 389.0
53.4813 386.0
53.4912 394.0
53.501 368.0
53.5109 378.0
53.5207 380.0
53.5306 335.0
53.5404 349.0
53.5503 344.0
53.5601 343.0
53.57 349.0
53.5798 340.0
53.5897 359.0
53.5995 338.0
53.6094 305.0
53.6192 336.0
53.6291 300.0
53.6389 288.0
53.6488 276.0
53.6586 285.0
53.6684 277.0
53.6783 279.0
53.6881 255.0
53.698 266.0
53.7078 305.0
53.7177 234.0
53.7275 285.0
53.7374 224.0
53.7472 238.0
53.7571 264.0
53.7669 197.0
53.7768 218.0
53.7866 215.0
53.7965 213.0
53.8063 207.0
53.8162 207.0
53.826 208.0
53.8359 197.0
53.8457 221.0
53.8556 213.0
53.8654 214.0
53.8753 195.0
53.8851 188.0
53.8949 206.0
53.9048 202.0
53.9146 192.0
53.9245 181.0
53.9343 182.0
53.9442 200.0
53.954 190.0
53.9639 210.0
53.9737 200.0
53.9836 176.0
53.9934 196.0
54.0033 168.0
54.0131 163.0
54.023 204.0
54.0328 204.0
54.0427 188.0
54.0525 176.0
54.0624 198.0
54.0722 184.0
54.0821 181.0
54.0919 174.0
54.1017 179.0
54.1116 150.0
54.1214 183.0
54.1313 168.0
54.1411 168.0
54.151 183.0
54.1608 162.0
54.1707 165.0
54.1805 182.0
54.1904 161.0
54.2002 163.0
54.2101 158.0
54.2199 183.0
54.2298 178.0
54.2396 183.0
54.2495 157.0
54.2593 154.0
54.2692 157.0
54.279 172.0
54.2889 168.0
54.2987 164.0
54.3085 192.0
54.3184 164.0
54.3282 174.0
54.3381 155.0
54.3479 151.0
54.3578 194.0
54.3676 164.0
54.3775 139.0
54.3873 172.0
54.3972 166.0
54.407 153.0
54.4169 157.0
54.4267 145.0
54.4366 144.0
54.4464 156.0
54.4563 145.0
54.4661 159.0
54.476 161.0
54.4858 161.0
54.4957 167.0
54.5055 151.0
54.5154 161.0
54.5252 171.0
54.535 175.0
54.5449 156.0
54.5547 170.0
54.5646 138.0
54.5744 144.0
54.5843 170.0
54.5941 154.0
54.604 169.0
54.6138 138.0
54.6237 159.0
54.6335 169.0
54.6434 135.0
54.6532 146.0
54.6631 160.0
54.6729 150.0
54.6828 151.0
54.6926 125.0
54.7025 161.0
54.7123 154.0
54.7222 142.0
54.732 158.0
54.7418 148.0
54.7517 156.0
54.7615 163.0
54.7714 146.0
54.7812 150.0
54.7911 136.0
54.8009 143.0
54.8108 142.0
54.8206 149.0
54.8305 175.0
54.8403 132.0
54.8502 124.0
54.86 146.0
54.8699 156.0
54.8797 142.0
54.8896 127.0
54.8994 147.0
54.9093 156.0
54.9191 167.0
54.929 138.0
54.9388 147.0
54.9487 156.0
54.9585 150.0
54.9683 133.0
54.9782 161.0
54.988 134.0
54.9979 133.0