File: data/W6904m/XRD_Omega/scan_omega_4deg_step_0.005deg0_C5_2.xy
29.90670 74.0
29.91170 81.0
29.91670 74.0
29.92170 67.0
29.92670 103.0
29.93170 85.0
29.93670 95.0
29.94170 85.0
29.94670 85.0
29.95170 80.0
29.95670 76.0
29.96170 74.0
29.96670 85.0
29.97170 78.0
29.97670 72.0
29.98170 75.0
29.98670 88.0
29.99170 80.0
29.99670 86.0
30.00170 95.0
30.00670 91.0
30.01170 87.0
30.01670 75.0
30.02170 74.0
30.02670 83.0
30.03170 84.0
30.03670 87.0
30.04170 92.0
30.04670 69.0
30.05170 71.0
30.05670 66.0
30.06170 96.0
30.06670 88.0
30.07170 73.0
30.07670 90.0
30.08170 74.0
30.08670 88.0
30.09170 78.0
30.09670 81.0
30.10170 90.0
30.10670 85.0
30.11170 90.0
30.11670 82.0
30.12170 99.0
30.12670 92.0
30.13170 60.0
30.13670 81.0
30.14170 80.0
30.14670 78.0
30.15170 83.0
30.15670 74.0
30.16170 82.0
30.16670 81.0
30.17170 84.0
30.17670 104.0
30.18170 76.0
30.18670 100.0
30.19170 91.0
30.19670 79.0
30.20170 85.0
30.20670 99.0
30.21170 98.0
30.21670 94.0
30.22170 97.0
30.22670 93.0
30.23170 85.0
30.23670 81.0
30.24170 91.0
30.24670 94.0
30.25170 79.0
30.25670 111.0
30.26170 97.0
30.26670 88.0
30.27170 80.0
30.27670 89.0
30.28170 77.0
30.28670 89.0
30.29170 81.0
30.29670 89.0
30.30170 93.0
30.30670 85.0
30.31170 98.0
30.31670 84.0
30.32170 88.0
30.32670 75.0
30.33170 77.0
30.33670 85.0
30.34170 75.0
30.34670 98.0
30.35170 86.0
30.35670 90.0
30.36170 85.0
30.36670 79.0
30.37170 91.0
30.37670 94.0
30.38170 99.0
30.38670 84.0
30.39170 82.0
30.39670 73.0
30.40170 80.0
30.40670 102.0
30.41170 78.0
30.41670 72.0
30.42170 81.0
30.42670 103.0
30.43170 81.0
30.43670 90.0
30.44170 83.0
30.44670 79.0
30.45170 101.0
30.45670 96.0
30.46170 84.0
30.46670 90.0
30.47170 96.0
30.47670 93.0
30.48170 91.0
30.48670 94.0
30.49170 77.0
30.49670 112.0
30.50170 76.0
30.50670 107.0
30.51170 85.0
30.51670 89.0
30.52170 77.0
30.52670 110.0
30.53170 94.0
30.53670 91.0
30.54170 76.0
30.54670 78.0
30.55170 99.0
30.55670 92.0
30.56170 89.0
30.56670 76.0
30.57170 100.0
30.57670 87.0
30.58170 76.0
30.58670 121.0
30.59170 87.0
30.59670 85.0
30.60170 103.0
30.60670 85.0
30.61170 80.0
30.61670 98.0
30.62170 91.0
30.62670 102.0
30.63170 73.0
30.63670 91.0
30.64170 93.0
30.64670 110.0
30.65170 118.0
30.65670 76.0
30.66170 92.0
30.66670 107.0
30.67170 109.0
30.67670 118.0
30.68170 94.0
30.68670 85.0
30.69170 91.0
30.69670 101.0
30.70170 100.0
30.70670 100.0
30.71170 96.0
30.71670 95.0
30.72170 84.0
30.72670 103.0
30.73170 104.0
30.73670 75.0
30.74170 93.0
30.74670 97.0
30.75170 96.0
30.75670 100.0
30.76170 120.0
30.76670 112.0
30.77170 97.0
30.77670 93.0
30.78170 103.0
30.78670 115.0
30.79170 104.0
30.79670 89.0
30.80170 105.0
30.80670 107.0
30.81170 87.0
30.81670 121.0
30.82170 134.0
30.82670 119.0
30.83170 116.0
30.83670 92.0
30.84170 129.0
30.84670 123.0
30.85170 91.0
30.85670 110.0
30.86170 121.0
30.86670 100.0
30.87170 121.0
30.87670 96.0
30.88170 106.0
30.88670 103.0
30.89170 119.0
30.89670 91.0
30.90170 115.0
30.90670 115.0
30.91170 112.0
30.91670 111.0
30.92170 109.0
30.92670 113.0
30.93170 107.0
30.93670 126.0
30.94170 128.0
30.94670 111.0
30.95170 125.0
30.95670 111.0
30.96170 101.0
30.96670 125.0
30.97170 129.0
30.97670 126.0
30.98170 128.0
30.98670 111.0
30.99170 114.0
30.99670 117.0
31.00170 147.0
31.00670 137.0
31.01170 154.0
31.01670 121.0
31.02170 146.0
31.02670 166.0
31.03170 118.0
31.03670 135.0
31.04170 126.0
31.04670 147.0
31.05170 148.0
31.05670 136.0
31.06170 146.0
31.06670 148.0
31.07170 144.0
31.07670 146.0
31.08170 137.0
31.08670 140.0
31.09170 161.0
31.09670 149.0
31.10170 151.0
31.10670 155.0
31.11170 142.0
31.11670 149.0
31.12170 154.0
31.12670 158.0
31.13170 169.0
31.13670 159.0
31.14170 183.0
31.14670 173.0
31.15170 158.0
31.15670 142.0
31.16170 159.0
31.16670 168.0
31.17170 186.0
31.17670 191.0
31.18170 203.0
31.18670 175.0
31.19170 186.0
31.19670 190.0
31.20170 185.0
31.20670 199.0
31.21170 191.0
31.21670 174.0
31.22170 176.0
31.22670 212.0
31.23170 204.0
31.23670 188.0
31.24170 219.0
31.24670 219.0
31.25170 201.0
31.25670 205.0
31.26170 228.0
31.26670 214.0
31.27170 217.0
31.27670 222.0
31.28170 216.0
31.28670 210.0
31.29170 257.0
31.29670 218.0
31.30170 277.0
31.30670 256.0
31.31170 271.0
31.31670 270.0
31.32170 303.0
31.32670 280.0
31.33170 268.0
31.33670 285.0
31.34170 280.0
31.34670 295.0
31.35170 298.0
31.35670 321.0
31.36170 265.0
31.36670 313.0
31.37170 325.0
31.37670 304.0
31.38170 342.0
31.38670 337.0
31.39170 333.0
31.39670 337.0
31.40170 322.0
31.40670 355.0
31.41170 359.0
31.41670 340.0
31.42170 336.0
31.42670 365.0
31.43170 355.0
31.43670 355.0
31.44170 390.0
31.44670 398.0
31.45170 411.0
31.45670 426.0
31.46170 438.0
31.46670 446.0
31.47170 425.0
31.47670 439.0
31.48170 450.0
31.48670 399.0
31.49170 444.0
31.49670 518.0
31.50170 463.0
31.50670 492.0
31.51170 501.0
31.51670 498.0
31.52170 464.0
31.52670 516.0
31.53170 517.0
31.53670 518.0
31.54170 530.0
31.54670 548.0
31.55170 510.0
31.55670 581.0
31.56170 553.0
31.56670 599.0
31.57170 516.0
31.57670 571.0
31.58170 579.0
31.58670 587.0
31.59170 627.0
31.59670 643.0
31.60170 631.0
31.60670 659.0
31.61170 624.0
31.61670 627.0
31.62170 672.0
31.62670 664.0
31.63170 664.0
31.63670 708.0
31.64170 697.0
31.64670 710.0
31.65170 669.0
31.65670 723.0
31.66170 728.0
31.66670 714.0
31.67170 714.0
31.67670 709.0
31.68170 749.0
31.68670 752.0
31.69170 758.0
31.69670 734.0
31.70170 795.0
31.70670 730.0
31.71170 785.0
31.71670 766.0
31.72170 773.0
31.72670 851.0
31.73170 778.0
31.73670 830.0
31.74170 823.0
31.74670 867.0
31.75170 862.0
31.75670 798.0
31.76170 892.0
31.76670 867.0
31.77170 831.0
31.77670 820.0
31.78170 877.0
31.78670 864.0
31.79170 896.0
31.79670 844.0
31.80170 914.0
31.80670 892.0
31.81170 941.0
31.81670 897.0
31.82170 914.0
31.82670 849.0
31.83170 871.0
31.83670 873.0
31.84170 916.0
31.84670 910.0
31.85170 883.0
31.85670 941.0
31.86170 928.0
31.86670 956.0
31.87170 905.0
31.87670 944.0
31.88170 919.0
31.88670 939.0
31.89170 905.0
31.89670 863.0
31.90170 912.0
31.90670 849.0
31.91170 927.0
31.91670 870.0
31.92170 856.0
31.92670 922.0
31.93170 856.0
31.93670 871.0
31.94170 911.0
31.94670 890.0
31.95170 897.0
31.95670 887.0
31.96170 881.0
31.96670 810.0
31.97170 875.0
31.97670 802.0
31.98170 819.0
31.98670 838.0
31.99170 852.0
31.99670 797.0
32.00170 837.0
32.00670 879.0
32.01170 789.0
32.01670 841.0
32.02170 805.0
32.02670 829.0
32.03170 857.0
32.03670 775.0
32.04170 798.0
32.04670 772.0
32.05170 773.0
32.05670 802.0
32.06170 874.0
32.06670 833.0
32.07170 795.0
32.07670 775.0
32.08170 757.0
32.08670 802.0
32.09170 791.0
32.09670 748.0
32.10170 747.0
32.10670 747.0
32.11170 764.0
32.11670 800.0
32.12170 737.0
32.12670 732.0
32.13170 701.0
32.13670 749.0
32.14170 772.0
32.14670 765.0
32.15170 727.0
32.15670 733.0
32.16170 759.0
32.16670 687.0
32.17170 717.0
32.17670 677.0
32.18170 665.0
32.18670 695.0
32.19170 705.0
32.19670 666.0
32.20170 715.0
32.20670 698.0
32.21170 693.0
32.21670 651.0
32.22170 686.0
32.22670 686.0
32.23170 652.0
32.23670 697.0
32.24170 636.0
32.24670 649.0
32.25170 620.0
32.25670 677.0
32.26170 689.0
32.26670 650.0
32.27170 645.0
32.27670 615.0
32.28170 611.0
32.28670 591.0
32.29170 647.0
32.29670 637.0
32.30170 575.0
32.30670 644.0
32.31170 616.0
32.31670 610.0
32.32170 635.0
32.32670 585.0
32.33170 581.0
32.33670 584.0
32.34170 586.0
32.34670 542.0
32.35170 561.0
32.35670 576.0
32.36170 579.0
32.36670 538.0
32.37170 565.0
32.37670 586.0
32.38170 594.0
32.38670 564.0
32.39170 521.0
32.39670 554.0
32.40170 540.0
32.40670 529.0
32.41170 527.0
32.41670 529.0
32.42170 486.0
32.42670 486.0
32.43170 515.0
32.43670 473.0
32.44170 474.0
32.44670 518.0
32.45170 433.0
32.45670 437.0
32.46170 425.0
32.46670 459.0
32.47170 450.0
32.47670 456.0
32.48170 385.0
32.48670 412.0
32.49170 389.0
32.49670 387.0
32.50170 392.0
32.50670 347.0
32.51170 369.0
32.51670 333.0
32.52170 331.0
32.52670 344.0
32.53170 363.0
32.53670 339.0
32.54170 343.0
32.54670 337.0
32.55170 319.0
32.55670 314.0
32.56170 317.0
32.56670 295.0
32.57170 259.0
32.57670 306.0
32.58170 296.0
32.58670 283.0
32.59170 309.0
32.59670 305.0
32.60170 334.0
32.60670 271.0
32.61170 284.0
32.61670 295.0
32.62170 242.0
32.62670 241.0
32.63170 262.0
32.63670 272.0
32.64170 236.0
32.64670 261.0
32.65170 246.0
32.65670 270.0
32.66170 256.0
32.66670 260.0
32.67170 238.0
32.67670 239.0
32.68170 239.0
32.68670 240.0
32.69170 260.0
32.69670 240.0
32.70170 235.0
32.70670 212.0
32.71170 210.0
32.71670 198.0
32.72170 212.0
32.72670 215.0
32.73170 226.0
32.73670 225.0
32.74170 200.0
32.74670 197.0
32.75170 189.0
32.75670 186.0
32.76170 205.0
32.76670 201.0
32.77170 178.0
32.77670 178.0
32.78170 186.0
32.78670 190.0
32.79170 196.0
32.79670 185.0
32.80170 167.0
32.80670 167.0
32.81170 179.0
32.81670 190.0
32.82170 157.0
32.82670 166.0
32.83170 190.0
32.83670 186.0
32.84170 157.0
32.84670 165.0
32.85170 143.0
32.85670 164.0
32.86170 174.0
32.86670 187.0
32.87170 180.0
32.87670 165.0
32.88170 169.0
32.88670 171.0
32.89170 163.0
32.89670 157.0
32.90170 146.0
32.90670 146.0
32.91170 165.0
32.91670 159.0
32.92170 153.0
32.92670 164.0
32.93170 150.0
32.93670 166.0
32.94170 151.0
32.94670 146.0
32.95170 153.0
32.95670 146.0
32.96170 165.0
32.96670 132.0
32.97170 146.0
32.97670 135.0
32.98170 153.0
32.98670 129.0
32.99170 129.0
32.99670 131.0
33.00170 147.0
33.00670 126.0
33.01170 128.0
33.01670 147.0
33.02170 128.0
33.02670 148.0
33.03170 126.0
33.03670 121.0
33.04170 121.0
33.04670 133.0
33.05170 124.0
33.05670 120.0
33.06170 110.0
33.06670 135.0
33.07170 109.0
33.07670 125.0
33.08170 152.0
33.08670 109.0
33.09170 100.0
33.09670 127.0
33.10170 89.0
33.10670 117.0
33.11170 109.0
33.11670 121.0
33.12170 96.0
33.12670 115.0
33.13170 105.0
33.13670 130.0
33.14170 92.0
33.14670 102.0
33.15170 106.0
33.15670 96.0
33.16170 121.0
33.16670 115.0
33.17170 121.0
33.17670 107.0
33.18170 110.0
33.18670 103.0
33.19170 104.0
33.19670 118.0
33.20170 114.0
33.20670 110.0
33.21170 79.0
33.21670 115.0
33.22170 133.0
33.22670 98.0
33.23170 93.0
33.23670 115.0
33.24170 105.0
33.24670 114.0
33.25170 93.0
33.25670 115.0
33.26170 104.0
33.26670 92.0
33.27170 111.0
33.27670 82.0
33.28170 88.0
33.28670 82.0
33.29170 82.0
33.29670 108.0
33.30170 115.0
33.30670 75.0
33.31170 88.0
33.31670 97.0
33.32170 101.0
33.32670 86.0
33.33170 96.0
33.33670 98.0
33.34170 97.0
33.34670 93.0
33.35170 88.0
33.35670 69.0
33.36170 94.0
33.36670 102.0
33.37170 101.0
33.37670 92.0
33.38170 94.0
33.38670 97.0
33.39170 88.0
33.39670 91.0
33.40170 79.0
33.40670 97.0
33.41170 74.0
33.41670 96.0
33.42170 102.0
33.42670 93.0
33.43170 93.0
33.43670 96.0
33.44170 76.0
33.44670 101.0
33.45170 82.0
33.45670 96.0
33.46170 71.0
33.46670 76.0
33.47170 72.0
33.47670 101.0
33.48170 88.0
33.48670 108.0
33.49170 80.0
33.49670 88.0
33.50170 91.0
33.50670 86.0
33.51170 84.0
33.51670 83.0
33.52170 82.0
33.52670 80.0
33.53170 92.0
33.53670 70.0
33.54170 78.0
33.54670 91.0
33.55170 93.0
33.55670 77.0
33.56170 102.0
33.56670 79.0
33.57170 93.0
33.57670 76.0
33.58170 98.0
33.58670 76.0
33.59170 84.0
33.59670 78.0
33.60170 87.0
33.60670 87.0
33.61170 96.0
33.61670 84.0
33.62170 84.0
33.62670 67.0
33.63170 80.0
33.63670 74.0
33.64170 95.0
33.64670 76.0
33.65170 87.0
33.65670 81.0
33.66170 93.0
33.66670 77.0
33.67170 85.0
33.67670 95.0
33.68170 80.0
33.68670 81.0
33.69170 82.0
33.69670 85.0
33.70170 95.0
33.70670 75.0
33.71170 85.0
33.71670 83.0
33.72170 62.0
33.72670 85.0
33.73170 77.0
33.73670 89.0
33.74170 76.0
33.74670 57.0
33.75170 78.0
33.75670 84.0
33.76170 72.0
33.76670 78.0
33.77170 64.0
33.77670 86.0
33.78170 79.0
33.78670 67.0
33.79170 87.0
33.79670 74.0
33.80170 95.0
33.80670 82.0
33.81170 83.0
33.81670 79.0
33.82170 81.0
33.82670 83.0
33.83170 87.0
33.83670 77.0
33.84170 86.0
33.84670 80.0
33.85170 66.0
33.85670 81.0
33.86170 86.0
33.86670 70.0