File: data/w6931m/XRD_Omega/film_m_can_omega_4deg_step_0.005deg0.xy
30.89520 39.0
30.90020 33.0
30.90520 42.0
30.91020 39.0
30.91520 48.0
30.92020 47.0
30.92520 42.0
30.93020 34.0
30.93520 41.0
30.94020 32.0
30.94520 38.0
30.95020 31.0
30.95520 44.0
30.96020 37.0
30.96520 39.0
30.97020 43.0
30.97520 44.0
30.98020 30.0
30.98520 36.0
30.99020 37.0
30.99520 43.0
31.00020 38.0
31.00520 46.0
31.01020 42.0
31.01520 49.0
31.02020 36.0
31.02520 41.0
31.03020 42.0
31.03520 36.0
31.04020 37.0
31.04520 40.0
31.05020 38.0
31.05520 44.0
31.06020 34.0
31.06520 44.0
31.07020 38.0
31.07520 42.0
31.08020 37.0
31.08520 38.0
31.09020 43.0
31.09520 35.0
31.10020 40.0
31.10520 46.0
31.11020 49.0
31.11520 45.0
31.12020 51.0
31.12520 57.0
31.13020 41.0
31.13520 48.0
31.14020 34.0
31.14520 48.0
31.15020 44.0
31.15520 39.0
31.16020 48.0
31.16520 39.0
31.17020 40.0
31.17520 48.0
31.18020 49.0
31.18520 47.0
31.19020 47.0
31.19520 47.0
31.20020 43.0
31.20520 39.0
31.21020 46.0
31.21520 42.0
31.22020 52.0
31.22520 39.0
31.23020 52.0
31.23520 55.0
31.24020 41.0
31.24520 42.0
31.25020 43.0
31.25520 41.0
31.26020 43.0
31.26520 58.0
31.27020 34.0
31.27520 56.0
31.28020 51.0
31.28520 51.0
31.29020 39.0
31.29520 41.0
31.30020 51.0
31.30520 35.0
31.31020 45.0
31.31520 45.0
31.32020 47.0
31.32520 49.0
31.33020 50.0
31.33520 48.0
31.34020 53.0
31.34520 49.0
31.35020 32.0
31.35520 32.0
31.36020 51.0
31.36520 56.0
31.37020 48.0
31.37520 48.0
31.38020 45.0
31.38520 52.0
31.39020 48.0
31.39520 58.0
31.40020 45.0
31.40520 49.0
31.41020 48.0
31.41520 41.0
31.42020 42.0
31.42520 56.0
31.43020 45.0
31.43520 50.0
31.44020 46.0
31.44520 49.0
31.45020 54.0
31.45520 43.0
31.46020 44.0
31.46520 57.0
31.47020 65.0
31.47520 59.0
31.48020 55.0
31.48520 71.0
31.49020 56.0
31.49520 53.0
31.50020 70.0
31.50520 46.0
31.51020 49.0
31.51520 56.0
31.52020 49.0
31.52520 59.0
31.53020 58.0
31.53520 70.0
31.54020 62.0
31.54520 68.0
31.55020 51.0
31.55520 51.0
31.56020 59.0
31.56520 57.0
31.57020 60.0
31.57520 57.0
31.58020 57.0
31.58520 70.0
31.59020 69.0
31.59520 52.0
31.60020 53.0
31.60520 76.0
31.61020 69.0
31.61520 68.0
31.62020 64.0
31.62520 68.0
31.63020 74.0
31.63520 77.0
31.64020 52.0
31.64520 81.0
31.65020 80.0
31.65520 75.0
31.66020 67.0
31.66520 70.0
31.67020 84.0
31.67520 77.0
31.68020 81.0
31.68520 84.0
31.69020 80.0
31.69520 77.0
31.70020 78.0
31.70520 73.0
31.71020 65.0
31.71520 83.0
31.72020 85.0
31.72520 81.0
31.73020 91.0
31.73520 97.0
31.74020 91.0
31.74520 90.0
31.75020 73.0
31.75520 97.0
31.76020 80.0
31.76520 90.0
31.77020 90.0
31.77520 96.0
31.78020 85.0
31.78520 80.0
31.79020 89.0
31.79520 103.0
31.80020 89.0
31.80520 105.0
31.81020 92.0
31.81520 88.0
31.82020 98.0
31.82520 91.0
31.83020 110.0
31.83520 91.0
31.84020 102.0
31.84520 107.0
31.85020 94.0
31.85520 101.0
31.86020 124.0
31.86520 122.0
31.87020 98.0
31.87520 112.0
31.88020 124.0
31.88520 106.0
31.89020 128.0
31.89520 102.0
31.90020 141.0
31.90520 128.0
31.91020 124.0
31.91520 111.0
31.92020 114.0
31.92520 150.0
31.93020 122.0
31.93520 135.0
31.94020 127.0
31.94520 115.0
31.95020 122.0
31.95520 143.0
31.96020 145.0
31.96520 152.0
31.97020 168.0
31.97520 151.0
31.98020 166.0
31.98520 139.0
31.99020 162.0
31.99520 157.0
32.00020 149.0
32.00520 155.0
32.01020 166.0
32.01520 161.0
32.02020 180.0
32.02520 186.0
32.03020 184.0
32.03520 161.0
32.04020 189.0
32.04520 192.0
32.05020 215.0
32.05520 239.0
32.06020 197.0
32.06520 181.0
32.07020 225.0
32.07520 200.0
32.08020 239.0
32.08520 212.0
32.09020 227.0
32.09520 235.0
32.10020 227.0
32.10520 243.0
32.11020 248.0
32.11520 240.0
32.12020 295.0
32.12520 259.0
32.13020 257.0
32.13520 270.0
32.14020 278.0
32.14520 294.0
32.15020 302.0
32.15520 284.0
32.16020 283.0
32.16520 329.0
32.17020 304.0
32.17520 322.0
32.18020 312.0
32.18520 365.0
32.19020 345.0
32.19520 332.0
32.20020 379.0
32.20520 377.0
32.21020 378.0
32.21520 380.0
32.22020 400.0
32.22520 412.0
32.23020 417.0
32.23520 414.0
32.24020 400.0
32.24520 442.0
32.25020 428.0
32.25520 396.0
32.26020 448.0
32.26520 483.0
32.27020 482.0
32.27520 460.0
32.28020 511.0
32.28520 511.0
32.29020 493.0
32.29520 523.0
32.30020 549.0
32.30520 512.0
32.31020 586.0
32.31520 602.0
32.32020 604.0
32.32520 635.0
32.33020 651.0
32.33520 640.0
32.34020 636.0
32.34520 689.0
32.35020 668.0
32.35520 703.0
32.36020 751.0
32.36520 755.0
32.37020 734.0
32.37520 780.0
32.38020 814.0
32.38520 872.0
32.39020 790.0
32.39520 836.0
32.40020 856.0
32.40520 869.0
32.41020 890.0
32.41520 838.0
32.42020 920.0
32.42520 964.0
32.43020 901.0
32.43520 907.0
32.44020 968.0
32.44520 913.0
32.45020 1029.0
32.45520 1052.0
32.46020 1072.0
32.46520 1120.0
32.47020 1132.0
32.47520 1094.0
32.48020 1138.0
32.48520 1150.0
32.49020 1234.0
32.49520 1225.0
32.50020 1227.0
32.50520 1195.0
32.51020 1232.0
32.51520 1379.0
32.52020 1293.0
32.52520 1351.0
32.53020 1430.0
32.53520 1374.0
32.54020 1447.0
32.54520 1429.0
32.55020 1472.0
32.55520 1524.0
32.56020 1619.0
32.56520 1577.0
32.57020 1677.0
32.57520 1659.0
32.58020 1665.0
32.58520 1786.0
32.59020 1760.0
32.59520 1861.0
32.60020 1838.0
32.60520 1843.0
32.61020 1866.0
32.61520 1980.0
32.62020 2005.0
32.62520 2019.0
32.63020 2077.0
32.63520 2090.0
32.64020 2084.0
32.64520 2177.0
32.65020 2179.0
32.65520 2192.0
32.66020 2280.0
32.66520 2273.0
32.67020 2433.0
32.67520 2384.0
32.68020 2342.0
32.68520 2430.0
32.69020 2497.0
32.69520 2438.0
32.70020 2566.0
32.70520 2550.0
32.71020 2608.0
32.71520 2642.0
32.72020 2734.0
32.72520 2784.0
32.73020 2759.0
32.73520 2822.0
32.74020 2862.0
32.74520 2957.0
32.75020 2910.0
32.75520 2957.0
32.76020 3000.0
32.76520 3016.0
32.77020 3069.0
32.77520 3023.0
32.78020 3077.0
32.78520 3135.0
32.79020 3169.0
32.79520 3219.0
32.80020 3146.0
32.80520 3280.0
32.81020 3302.0
32.81520 3306.0
32.82020 3283.0
32.82520 3301.0
32.83020 3364.0
32.83520 3401.0
32.84020 3262.0
32.84520 3507.0
32.85020 3419.0
32.85520 3369.0
32.86020 3486.0
32.86520 3445.0
32.87020 3354.0
32.87520 3363.0
32.88020 3386.0
32.88520 3475.0
32.89020 3427.0
32.89520 3440.0
32.90020 3450.0
32.90520 3503.0
32.91020 3370.0
32.91520 3273.0
32.92020 3423.0
32.92520 3426.0
32.93020 3531.0
32.93520 3397.0
32.94020 3332.0
32.94520 3257.0
32.95020 3458.0
32.95520 3227.0
32.96020 3266.0
32.96520 3185.0
32.97020 3258.0
32.97520 3199.0
32.98020 3144.0
32.98520 3242.0
32.99020 3193.0
32.99520 3074.0
33.00020 3085.0
33.00520 3018.0
33.01020 2976.0
33.01520 2987.0
33.02020 2902.0
33.02520 2779.0
33.03020 2783.0
33.03520 2716.0
33.04020 2727.0
33.04520 2676.0
33.05020 2511.0
33.05520 2497.0
33.06020 2578.0
33.06520 2395.0
33.07020 2341.0
33.07520 2313.0
33.08020 2245.0
33.08520 2222.0
33.09020 2093.0
33.09520 2099.0
33.10020 2041.0
33.10520 1904.0
33.11020 1901.0
33.11520 1868.0
33.12020 1801.0
33.12520 1692.0
33.13020 1719.0
33.13520 1649.0
33.14020 1633.0
33.14520 1626.0
33.15020 1510.0
33.15520 1438.0
33.16020 1431.0
33.16520 1347.0
33.17020 1382.0
33.17520 1242.0
33.18020 1303.0
33.18520 1311.0
33.19020 1206.0
33.19520 1120.0
33.20020 1068.0
33.20520 1022.0
33.21020 1086.0
33.21520 968.0
33.22020 954.0
33.22520 917.0
33.23020 906.0
33.23520 824.0
33.24020 804.0
33.24520 820.0
33.25020 766.0
33.25520 765.0
33.26020 786.0
33.26520 710.0
33.27020 681.0
33.27520 707.0
33.28020 650.0
33.28520 645.0
33.29020 639.0
33.29520 597.0
33.30020 554.0
33.30520 556.0
33.31020 505.0
33.31520 546.0
33.32020 516.0
33.32520 471.0
33.33020 441.0
33.33520 449.0
33.34020 434.0
33.34520 443.0
33.35020 473.0
33.35520 409.0
33.36020 372.0
33.36520 382.0
33.37020 372.0
33.37520 343.0
33.38020 357.0
33.38520 369.0
33.39020 332.0
33.39520 322.0
33.40020 317.0
33.40520 307.0
33.41020 290.0
33.41520 277.0
33.42020 295.0
33.42520 281.0
33.43020 274.0
33.43520 275.0
33.44020 248.0
33.44520 281.0
33.45020 256.0
33.45520 222.0
33.46020 204.0
33.46520 243.0
33.47020 226.0
33.47520 232.0
33.48020 203.0
33.48520 237.0
33.49020 203.0
33.49520 165.0
33.50020 212.0
33.50520 188.0
33.51020 163.0
33.51520 190.0
33.52020 183.0
33.52520 195.0
33.53020 177.0
33.53520 181.0
33.54020 174.0
33.54520 146.0
33.55020 163.0
33.55520 159.0
33.56020 162.0
33.56520 152.0
33.57020 145.0
33.57520 142.0
33.58020 141.0
33.58520 147.0
33.59020 142.0
33.59520 155.0
33.60020 136.0
33.60520 140.0
33.61020 129.0
33.61520 125.0
33.62020 120.0
33.62520 124.0
33.63020 127.0
33.63520 125.0
33.64020 130.0
33.64520 116.0
33.65020 120.0
33.65520 105.0
33.66020 103.0
33.66520 110.0
33.67020 98.0
33.67520 104.0
33.68020 137.0
33.68520 110.0
33.69020 96.0
33.69520 101.0
33.70020 96.0
33.70520 96.0
33.71020 101.0
33.71520 98.0
33.72020 101.0
33.72520 91.0
33.73020 87.0
33.73520 84.0
33.74020 84.0
33.74520 93.0
33.75020 76.0
33.75520 77.0
33.76020 91.0
33.76520 99.0
33.77020 66.0
33.77520 93.0
33.78020 87.0
33.78520 80.0
33.79020 95.0
33.79520 67.0
33.80020 83.0
33.80520 66.0
33.81020 75.0
33.81520 90.0
33.82020 71.0
33.82520 63.0
33.83020 64.0
33.83520 79.0
33.84020 74.0
33.84520 69.0
33.85020 64.0
33.85520 61.0
33.86020 67.0
33.86520 65.0
33.87020 56.0
33.87520 55.0
33.88020 73.0
33.88520 59.0
33.89020 73.0
33.89520 72.0
33.90020 56.0
33.90520 56.0
33.91020 62.0
33.91520 64.0
33.92020 66.0
33.92520 48.0
33.93020 64.0
33.93520 65.0
33.94020 58.0
33.94520 63.0
33.95020 66.0
33.95520 61.0
33.96020 55.0
33.96520 59.0
33.97020 60.0
33.97520 58.0
33.98020 64.0
33.98520 52.0
33.99020 52.0
33.99520 59.0
34.00020 60.0
34.00520 54.0
34.01020 55.0
34.01520 60.0
34.02020 46.0
34.02520 49.0
34.03020 58.0
34.03520 62.0
34.04020 46.0
34.04520 40.0
34.05020 49.0
34.05520 54.0
34.06020 47.0
34.06520 41.0
34.07020 50.0
34.07520 46.0
34.08020 53.0
34.08520 55.0
34.09020 66.0
34.09520 50.0
34.10020 38.0
34.10520 56.0
34.11020 43.0
34.11520 39.0
34.12020 49.0
34.12520 47.0
34.13020 46.0
34.13520 49.0
34.14020 52.0
34.14520 47.0
34.15020 46.0
34.15520 53.0
34.16020 47.0
34.16520 47.0
34.17020 42.0
34.17520 56.0
34.18020 49.0
34.18520 41.0
34.19020 39.0
34.19520 48.0
34.20020 48.0
34.20520 43.0
34.21020 45.0
34.21520 36.0
34.22020 48.0
34.22520 37.0
34.23020 42.0
34.23520 43.0
34.24020 34.0
34.24520 35.0
34.25020 44.0
34.25520 40.0
34.26020 44.0
34.26520 46.0
34.27020 49.0
34.27520 40.0
34.28020 47.0
34.28520 57.0
34.29020 46.0
34.29520 39.0
34.30020 29.0
34.30520 35.0
34.31020 42.0
34.31520 58.0
34.32020 39.0
34.32520 42.0
34.33020 44.0
34.33520 54.0
34.34020 45.0
34.34520 41.0
34.35020 31.0
34.35520 45.0
34.36020 43.0
34.36520 43.0
34.37020 37.0
34.37520 33.0
34.38020 34.0
34.38520 47.0
34.39020 44.0
34.39520 43.0
34.40020 45.0
34.40520 54.0
34.41020 44.0
34.41520 44.0
34.42020 31.0
34.42520 47.0
34.43020 37.0
34.43520 34.0
34.44020 37.0
34.44520 34.0
34.45020 36.0
34.45520 33.0
34.46020 42.0
34.46520 46.0
34.47020 33.0
34.47520 38.0
34.48020 39.0
34.48520 39.0
34.49020 34.0
34.49520 41.0
34.50020 33.0
34.50520 46.0
34.51020 44.0
34.51520 36.0
34.52020 30.0
34.52520 26.0
34.53020 41.0
34.53520 42.0
34.54020 31.0
34.54520 47.0
34.55020 44.0
34.55520 31.0
34.56020 34.0
34.56520 33.0
34.57020 36.0
34.57520 41.0
34.58020 27.0
34.58520 40.0
34.59020 45.0
34.59520 31.0
34.60020 32.0
34.60520 37.0
34.61020 42.0
34.61520 37.0
34.62020 28.0
34.62520 33.0
34.63020 34.0
34.63520 33.0
34.64020 31.0
34.64520 41.0
34.65020 29.0
34.65520 23.0
34.66020 35.0
34.66520 36.0
34.67020 39.0
34.67520 35.0
34.68020 22.0
34.68520 40.0
34.69020 31.0
34.69520 33.0
34.70020 36.0
34.70520 34.0
34.71020 32.0
34.71520 33.0
34.72020 44.0
34.72520 38.0
34.73020 34.0
34.73520 36.0
34.74020 22.0
34.74520 26.0
34.75020 35.0
34.75520 46.0
34.76020 36.0
34.76520 29.0
34.77020 21.0
34.77520 33.0
34.78020 31.0
34.78520 25.0
34.79020 35.0
34.79520 27.0
34.80020 38.0
34.80520 28.0
34.81020 31.0
34.81520 26.0
34.82020 34.0
34.82520 31.0
34.83020 43.0
34.83520 35.0
34.84020 42.0
34.84520 35.0
34.85020 34.0
34.85520 43.0