File: data/W6854a/XRD_2ThetaOmega/W6854a_absolute_2th-om_10-130deg_PIXscan_17min_11.xy
10.0035 23.0
10.0872 24.0
10.1709 20.0
10.2546 21.0
10.3383 22.0
10.422 22.0
10.5057 21.0
10.5894 26.0
10.6731 23.0
10.7568 23.0
10.8405 22.0
10.9242 24.0
11.0079 18.0
11.0916 24.0
11.1753 15.0
11.259 22.0
11.3428 19.0
11.4265 20.0
11.5102 19.0
11.5939 22.0
11.6776 19.0
11.7613 23.0
11.845 22.0
11.9287 18.0
12.0124 21.0
12.0961 13.0
12.1798 15.0
12.2635 22.0
12.3472 23.0
12.4309 24.0
12.5146 25.0
12.5983 24.0
12.682 17.0
12.7657 15.0
12.8495 21.0
12.9332 24.0
13.0169 20.0
13.1006 23.0
13.1843 23.0
13.268 21.0
13.3517 17.0
13.4354 22.0
13.5191 16.0
13.6028 18.0
13.6865 27.0
13.7702 16.0
13.8539 14.0
13.9376 19.0
14.0213 13.0
14.105 22.0
14.1887 23.0
14.2724 15.0
14.3562 13.0
14.4399 21.0
14.5236 16.0
14.6073 27.0
14.691 21.0
14.7747 25.0
14.8584 16.0
14.9421 16.0
15.0258 27.0
15.1095 20.0
15.1932 19.0
15.2769 11.0
15.3606 20.0
15.4443 21.0
15.528 23.0
15.6117 15.0
15.6954 17.0
15.7791 17.0
15.8629 5.0
15.9466 14.0
16.0303 23.0
16.114 18.0
16.1977 21.0
16.2814 20.0
16.3651 21.0
16.4488 20.0
16.5325 14.0
16.6162 19.0
16.6999 19.0
16.7836 8.0
16.8673 26.0
16.951 10.0
17.0347 22.0
17.1184 21.0
17.2021 19.0
17.2858 15.0
17.3696 26.0
17.4533 17.0
17.537 6.0
17.6207 23.0
17.7044 18.0
17.7881 22.0
17.8718 16.0
17.9555 10.0
18.0392 18.0
18.1229 20.0
18.2066 16.0
18.2903 18.0
18.374 13.0
18.4577 11.0
18.5414 12.0
18.6251 18.0
18.7088 15.0
18.7925 20.0
18.8763 14.0
18.96 17.0
19.0437 8.0
19.1274 17.0
19.2111 13.0
19.2948 18.0
19.3785 14.0
19.4622 17.0
19.5459 16.0
19.6296 25.0
19.7133 13.0
19.797 18.0
19.8807 14.0
19.9644 16.0
20.0481 12.0
20.1318 14.0
20.2155 16.0
20.2992 14.0
20.383 11.0
20.4667 13.0
20.5504 17.0
20.6341 11.0
20.7178 15.0
20.8015 11.0
20.8852 18.0
20.9689 20.0
21.0526 11.0
21.1363 18.0
21.22 16.0
21.3037 20.0
21.3874 13.0
21.4711 10.0
21.5548 16.0
21.6385 14.0
21.7222 24.0
21.8059 19.0
21.8897 10.0
21.9734 15.0
22.0571 14.0
22.1408 17.0
22.2245 16.0
22.3082 6.0
22.3919 7.0
22.4756 20.0
22.5593 14.0
22.643 10.0
22.7267 14.0
22.8104 15.0
22.8941 15.0
22.9778 23.0
23.0615 16.0
23.1452 13.0
23.2289 12.0
23.3126 16.0
23.3964 12.0
23.4801 12.0
23.5638 14.0
23.6475 26.0
23.7312 10.0
23.8149 16.0
23.8986 18.0
23.9823 13.0
24.066 7.0
24.1497 15.0
24.2334 18.0
24.3171 10.0
24.4008 19.0
24.4845 16.0
24.5682 11.0
24.6519 15.0
24.7356 14.0
24.8193 15.0
24.9031 14.0
24.9868 15.0
25.0705 13.0
25.1542 17.0
25.2379 13.0
25.3216 13.0
25.4053 11.0
25.489 13.0
25.5727 19.0
25.6564 12.0
25.7401 14.0
25.8238 15.0
25.9075 17.0
25.9912 18.0
26.0749 11.0
26.1586 12.0
26.2423 13.0
26.326 14.0
26.4098 18.0
26.4935 13.0
26.5772 15.0
26.6609 7.0
26.7446 13.0
26.8283 19.0
26.912 10.0
26.9957 8.0
27.0794 14.0
27.1631 8.0
27.2468 10.0
27.3305 10.0
27.4142 15.0
27.4979 15.0
27.5816 7.0
27.6653 12.0
27.749 17.0
27.8327 11.0
27.9165 11.0
28.0002 10.0
28.0839 17.0
28.1676 9.0
28.2513 8.0
28.335 10.0
28.4187 11.0
28.5024 8.0
28.5861 12.0
28.6698 9.0
28.7535 5.0
28.8372 12.0
28.9209 7.0
29.0046 10.0
29.0883 12.0
29.172 9.0
29.2557 9.0
29.3394 17.0
29.4232 12.0
29.5069 10.0
29.5906 14.0
29.6743 15.0
29.758 11.0
29.8417 14.0
29.9254 16.0
30.0091 11.0
30.0928 12.0
30.1765 13.0
30.2602 11.0
30.3439 10.0
30.4276 14.0
30.5113 8.0
30.595 14.0
30.6787 9.0
30.7624 12.0
30.8461 18.0
30.9298 11.0
31.0136 12.0
31.0973 5.0
31.181 15.0
31.2647 14.0
31.3484 5.0
31.4321 20.0
31.5158 12.0
31.5995 10.0
31.6832 15.0
31.7669 14.0
31.8506 16.0
31.9343 9.0
32.018 12.0
32.1017 17.0
32.1854 11.0
32.2691 9.0
32.3528 11.0
32.4365 14.0
32.5203 17.0
32.604 10.0
32.6877 12.0
32.7714 14.0
32.8551 9.0
32.9388 12.0
33.0225 15.0
33.1062 10.0
33.1899 11.0
33.2736 11.0
33.3573 12.0
33.441 8.0
33.5247 12.0
33.6084 23.0
33.6921 15.0
33.7758 19.0
33.8595 17.0
33.9432 56.0
34.027 37.0
34.1107 31.0
34.1944 16.0
34.2781 18.0
34.3618 28.0
34.4455 23.0
34.5292 39.0
34.6129 35.0
34.6966 31.0
34.7803 41.0
34.864 58.0
34.9477 84.0
35.0314 184.0
35.1151 355.0
35.1988 836.0
35.2825 1164.0
35.3662 1259.0
35.4499 869.0
35.5337 608.0
35.6174 429.0
35.7011 315.0
35.7848 230.0
35.8685 165.0
35.9522 145.0
36.0359 133.0
36.1196 260.0
36.2033 83.0
36.287 88.0
36.3707 88.0
36.4544 49.0
36.5381 44.0
36.6218 42.0
36.7055 47.0
36.7892 33.0
36.8729 35.0
36.9566 42.0
37.0404 42.0
37.1241 60.0
37.2078 56.0
37.2915 75.0
37.3752 88.0
37.4589 109.0
37.5426 380.0
37.6263 643.0
37.71 31889.0
37.7937 12059.0
37.8774 1453.0
37.9611 357.0
38.0448 189.0
38.1285 144.0
38.2122 112.0
38.2959 108.0
38.3796 94.0
38.4633 91.0
38.5471 70.0
38.6308 62.0
38.7145 56.0
38.7982 48.0
38.8819 49.0
38.9656 35.0
39.0493 22.0
39.133 20.0
39.2167 27.0
39.3004 20.0
39.3841 23.0
39.4678 25.0
39.5515 17.0
39.6352 15.0
39.7189 21.0
39.8026 17.0
39.8863 16.0
39.97 13.0
40.0538 21.0
40.1375 20.0
40.2212 16.0
40.3049 13.0
40.3886 13.0
40.4723 16.0
40.556 17.0
40.6397 14.0
40.7234 26.0
40.8071 15.0
40.8908 11.0
40.9745 11.0
41.0582 12.0
41.1419 14.0
41.2256 25.0
41.3093 11.0
41.393 19.0
41.4767 9.0
41.5605 16.0
41.6442 10.0
41.7279 16.0
41.8116 21.0
41.8953 16.0
41.979 6.0
42.0627 10.0
42.1464 16.0
42.2301 5.0
42.3138 9.0
42.3975 12.0
42.4812 13.0
42.5649 11.0
42.6486 11.0
42.7323 8.0
42.816 16.0
42.8997 7.0
42.9834 15.0
43.0672 11.0
43.1509 10.0
43.2346 12.0
43.3183 9.0
43.402 11.0
43.4857 11.0
43.5694 15.0
43.6531 7.0
43.7368 15.0
43.8205 8.0
43.9042 17.0
43.9879 22.0
44.0716 17.0
44.1553 18.0
44.239 23.0
44.3227 15.0
44.4064 29.0
44.4901 29.0
44.5739 16.0
44.6576 15.0
44.7413 17.0
44.825 14.0
44.9087 17.0
44.9924 11.0
45.0761 16.0
45.1598 14.0
45.2435 14.0
45.3272 13.0
45.4109 9.0
45.4946 16.0
45.5783 11.0
45.662 8.0
45.7457 14.0
45.8294 15.0
45.9131 12.0
45.9968 15.0
46.0806 11.0
46.1643 15.0
46.248 8.0
46.3317 8.0
46.4154 6.0
46.4991 9.0
46.5828 11.0
46.6665 16.0
46.7502 12.0
46.8339 6.0
46.9176 9.0
47.0013 14.0
47.085 14.0
47.1687 9.0
47.2524 7.0
47.3361 13.0
47.4198 15.0
47.5035 15.0
47.5873 7.0
47.671 18.0
47.7547 13.0
47.8384 16.0
47.9221 15.0
48.0058 13.0
48.0895 12.0
48.1732 10.0
48.2569 12.0
48.3406 18.0
48.4243 23.0
48.508 14.0
48.5917 13.0
48.6754 10.0
48.7591 9.0
48.8428 13.0
48.9265 8.0
49.0102 11.0
49.094 13.0
49.1777 9.0
49.2614 4.0
49.3451 8.0
49.4288 10.0
49.5125 13.0
49.5962 15.0
49.6799 12.0
49.7636 15.0
49.8473 13.0
49.931 10.0
50.0147 12.0
50.0984 15.0
50.1821 11.0
50.2658 12.0
50.3495 14.0
50.4332 11.0
50.5169 8.0
50.6007 13.0
50.6844 9.0
50.7681 15.0
50.8518 9.0
50.9355 18.0
51.0192 11.0
51.1029 17.0
51.1866 12.0
51.2703 11.0
51.354 11.0
51.4377 9.0
51.5214 14.0
51.6051 10.0
51.6888 20.0
51.7725 12.0
51.8562 12.0
51.9399 9.0
52.0236 12.0
52.1074 11.0
52.1911 11.0
52.2748 11.0
52.3585 10.0
52.4422 13.0
52.5259 17.0
52.6096 9.0
52.6933 10.0
52.777 9.0
52.8607 8.0
52.9444 13.0
53.0281 17.0
53.1118 15.0
53.1955 10.0
53.2792 9.0
53.3629 14.0
53.4466 10.0
53.5303 15.0
53.6141 15.0
53.6978 8.0
53.7815 16.0
53.8652 13.0
53.9489 15.0
54.0326 17.0
54.1163 7.0
54.2 18.0
54.2837 16.0
54.3674 9.0
54.4511 11.0
54.5348 11.0
54.6185 16.0
54.7022 8.0
54.7859 12.0
54.8696 9.0
54.9533 15.0
55.037 11.0
55.1208 14.0
55.2045 13.0
55.2882 13.0
55.3719 13.0
55.4556 4.0
55.5393 13.0
55.623 3.0
55.7067 13.0
55.7904 10.0
55.8741 14.0
55.9578 7.0
56.0415 10.0
56.1252 12.0
56.2089 12.0
56.2926 11.0
56.3763 7.0
56.46 10.0
56.5437 14.0
56.6275 10.0
56.7112 11.0
56.7949 11.0
56.8786 11.0
56.9623 19.0
57.046 9.0
57.1297 9.0
57.2134 8.0
57.2971 15.0
57.3808 12.0
57.4645 9.0
57.5482 7.0
57.6319 11.0
57.7156 7.0
57.7993 15.0
57.883 15.0
57.9667 12.0
58.0504 10.0
58.1342 10.0
58.2179 14.0
58.3016 11.0
58.3853 15.0
58.469 14.0
58.5527 9.0
58.6364 13.0
58.7201 13.0
58.8038 6.0
58.8875 13.0
58.9712 8.0
59.0549 10.0
59.1386 18.0
59.2223 8.0
59.306 4.0
59.3897 14.0
59.4734 14.0
59.5571 8.0
59.6409 10.0
59.7246 7.0
59.8083 10.0
59.892 10.0
59.9757 11.0
60.0594 12.0
60.1431 9.0
60.2268 11.0
60.3105 13.0
60.3942 13.0
60.4779 7.0
60.5616 9.0
60.6453 15.0
60.729 14.0
60.8127 12.0
60.8964 15.0
60.9801 15.0
61.0638 13.0
61.1476 12.0
61.2313 13.0
61.315 13.0
61.3987 12.0
61.4824 12.0
61.5661 11.0
61.6498 17.0
61.7335 13.0
61.8172 11.0
61.9009 9.0
61.9846 14.0
62.0683 10.0
62.152 14.0
62.2357 8.0
62.3194 14.0
62.4031 12.0
62.4868 13.0
62.5705 9.0
62.6543 11.0
62.738 15.0
62.8217 10.0
62.9054 16.0
62.9891 12.0
63.0728 12.0
63.1565 10.0
63.2402 7.0
63.3239 19.0
63.4076 14.0
63.4913 9.0
63.575 12.0
63.6587 11.0
63.7424 11.0
63.8261 14.0
63.9098 11.0
63.9935 15.0
64.0772 12.0
64.161 7.0
64.2447 15.0
64.3284 10.0
64.4121 12.0
64.4958 15.0
64.5795 17.0
64.6632 15.0
64.7469 7.0
64.8306 10.0
64.9143 16.0
64.998 11.0
65.0817 13.0
65.1654 13.0
65.2491 12.0
65.3328 11.0
65.4165 13.0
65.5002 13.0
65.5839 19.0
65.6677 11.0
65.7514 14.0
65.8351 6.0
65.9188 16.0
66.0025 12.0
66.0862 15.0
66.1699 12.0
66.2536 7.0
66.3373 11.0
66.421 12.0
66.5047 11.0
66.5884 14.0
66.6721 9.0
66.7558 24.0
66.8395 10.0
66.9232 14.0
67.0069 8.0
67.0906 12.0
67.1744 19.0
67.2581 13.0
67.3418 11.0
67.4255 10.0
67.5092 10.0
67.5929 8.0
67.6766 13.0
67.7603 8.0
67.844 7.0
67.9277 10.0
68.0114 14.0
68.0951 7.0
68.1788 19.0
68.2625 12.0
68.3462 6.0
68.4299 12.0
68.5136 14.0
68.5973 11.0
68.6811 13.0
68.7648 11.0
68.8485 14.0
68.9322 7.0
69.0159 17.0
69.0996 10.0
69.1833 9.0
69.267 15.0
69.3507 8.0
69.4344 9.0
69.5181 10.0
69.6018 9.0
69.6855 10.0
69.7692 13.0
69.8529 9.0
69.9366 13.0
70.0203 13.0
70.104 10.0
70.1878 9.0
70.2715 11.0
70.3552 15.0
70.4389 15.0
70.5226 8.0
70.6063 14.0
70.69 10.0
70.7737 12.0
70.8574 13.0
70.9411 11.0
71.0248 17.0
71.1085 15.0
71.1922 11.0
71.2759 15.0
71.3596 13.0
71.4433 5.0
71.527 31.0
71.6107 28.0
71.6945 19.0
71.7782 18.0
71.8619 9.0
71.9456 11.0
72.0293 15.0
72.113 10.0
72.1967 17.0
72.2804 12.0
72.3641 20.0
72.4478 10.0
72.5315 16.0
72.6152 12.0
72.6989 11.0
72.7826 11.0
72.8663 16.0
72.95 8.0
73.0337 12.0
73.1174 13.0
73.2012 10.0
73.2849 16.0
73.3686 14.0
73.4523 17.0
73.536 11.0
73.6197 21.0
73.7034 20.0
73.7871 15.0
73.8708 18.0
73.9545 19.0
74.0382 15.0
74.1219 26.0
74.2056 20.0
74.2893 21.0
74.373 27.0
74.4567 32.0
74.5404 49.0
74.6241 51.0
74.7079 38.0
74.7916 63.0
74.8753 60.0
74.959 60.0
75.0427 53.0
75.1264 49.0
75.2101 39.0
75.2938 34.0
75.3775 39.0
75.4612 41.0
75.5449 38.0
75.6286 34.0
75.7123 26.0
75.796 27.0
75.8797 21.0
75.9634 27.0
76.0471 20.0
76.1308 26.0
76.2146 16.0
76.2983 16.0
76.382 17.0
76.4657 15.0
76.5494 18.0
76.6331 44.0
76.7168 35.0
76.8005 19.0
76.8842 19.0
76.9679 11.0
77.0516 12.0
77.1353 20.0
77.219 11.0
77.3027 15.0
77.3864 17.0
77.4701 14.0
77.5538 13.0
77.6375 16.0
77.7213 12.0
77.805 8.0
77.8887 14.0
77.9724 17.0
78.0561 19.0
78.1398 9.0
78.2235 13.0
78.3072 16.0
78.3909 17.0
78.4746 18.0
78.5583 14.0
78.642 14.0
78.7257 12.0
78.8094 11.0
78.8931 18.0
78.9768 16.0
79.0605 18.0
79.1442 13.0
79.228 15.0
79.3117 21.0
79.3954 19.0
79.4791 11.0
79.5628 10.0
79.6465 16.0
79.7302 20.0
79.8139 27.0
79.8976 24.0
79.9813 25.0
80.065 31.0
80.1487 38.0
80.2324 56.0
80.3161 59.0
80.3998 84.0
80.4835 111.0
80.5672 498.0
80.6509 8148.0
80.7347 849.0
80.8184 476.0
80.9021 4398.0
80.9858 411.0
81.0695 107.0
81.1532 81.0
81.2369 47.0
81.3206 58.0
81.4043 35.0
81.488 34.0
81.5717 29.0
81.6554 40.0
81.7391 36.0
81.8228 29.0
81.9065 22.0
81.9902 28.0
82.0739 26.0
82.1576 27.0
82.2414 32.0
82.3251 15.0
82.4088 20.0
82.4925 25.0
82.5762 12.0
82.6599 19.0
82.7436 19.0
82.8273 16.0
82.911 18.0
82.9947 20.0
83.0784 10.0
83.1621 21.0
83.2458 17.0
83.3295 19.0
83.4132 12.0
83.4969 12.0
83.5806 17.0
83.6643 11.0
83.7481 10.0
83.8318 12.0
83.9155 21.0
83.9992 19.0
84.0829 5.0
84.1666 16.0
84.2503 11.0
84.334 12.0
84.4177 12.0
84.5014 13.0
84.5851 14.0
84.6688 10.0
84.7525 15.0
84.8362 10.0
84.9199 14.0
85.0036 9.0
85.0873 19.0
85.171 20.0
85.2548 11.0
85.3385 13.0
85.4222 15.0
85.5059 10.0
85.5896 14.0
85.6733 19.0
85.757 6.0
85.8407 15.0
85.9244 14.0
86.0081 12.0
86.0918 14.0
86.1755 10.0
86.2592 12.0
86.3429 9.0
86.4266 19.0
86.5103 17.0
86.594 13.0
86.6777 16.0
86.7615 14.0
86.8452 10.0
86.9289 11.0
87.0126 9.0
87.0963 8.0
87.18 12.0
87.2637 16.0
87.3474 14.0
87.4311 15.0
87.5148 11.0
87.5985 14.0
87.6822 13.0
87.7659 7.0
87.8496 14.0
87.9333 12.0
88.017 17.0
88.1007 10.0
88.1844 11.0
88.2682 9.0
88.3519 7.0
88.4356 12.0
88.5193 15.0
88.603 12.0
88.6867 10.0
88.7704 11.0
88.8541 12.0
88.9378 11.0
89.0215 11.0
89.1052 13.0
89.1889 12.0
89.2726 9.0
89.3563 10.0
89.44 11.0
89.5237 15.0
89.6074 13.0
89.6911 14.0
89.7749 19.0
89.8586 10.0
89.9423 12.0
90.026 11.0
90.1097 11.0
90.1934 9.0
90.2771 12.0
90.3608 14.0
90.4445 8.0
90.5282 20.0
90.6119 18.0
90.6956 18.0
90.7793 16.0
90.863 7.0
90.9467 7.0
91.0304 16.0
91.1141 8.0
91.1978 20.0
91.2816 6.0
91.3653 15.0
91.449 6.0
91.5327 15.0
91.6164 12.0
91.7001 8.0
91.7838 7.0
91.8675 8.0
91.9512 15.0
92.0349 13.0
92.1186 13.0
92.2023 19.0
92.286 9.0
92.3697 11.0
92.4534 11.0
92.5371 7.0
92.6208 7.0
92.7045 13.0
92.7883 11.0
92.872 14.0
92.9557 12.0
93.0394 12.0
93.1231 13.0
93.2068 11.0
93.2905 15.0
93.3742 14.0
93.4579 7.0
93.5416 11.0
93.6253 10.0
93.709 12.0
93.7927 9.0
93.8764 16.0
93.9601 17.0
94.0438 14.0
94.1275 9.0
94.2112 14.0
94.295 13.0
94.3787 17.0
94.4624 15.0
94.5461 14.0
94.6298 16.0
94.7135 7.0
94.7972 19.0
94.8809 12.0
94.9646 12.0
95.0483 14.0
95.132 11.0
95.2157 9.0
95.2994 9.0
95.3831 12.0
95.4668 14.0
95.5505 10.0
95.6342 10.0
95.7179 10.0
95.8017 8.0
95.8854 24.0
95.9691 11.0
96.0528 7.0
96.1365 12.0
96.2202 8.0
96.3039 10.0
96.3876 17.0
96.4713 15.0
96.555 10.0
96.6387 11.0
96.7224 11.0
96.8061 13.0
96.8898 20.0
96.9735 7.0
97.0572 11.0
97.1409 10.0
97.2246 14.0
97.3084 13.0
97.3921 11.0
97.4758 10.0
97.5595 13.0
97.6432 17.0
97.7269 9.0
97.8106 21.0
97.8943 15.0
97.978 16.0
98.0617 11.0
98.1454 11.0
98.2291 7.0
98.3128 7.0
98.3965 10.0
98.4802 11.0
98.5639 16.0
98.6476 12.0
98.7313 8.0
98.8151 11.0
98.8988 14.0
98.9825 12.0
99.0662 16.0
99.1499 14.0
99.2336 14.0
99.3173 13.0
99.401 12.0
99.4847 13.0
99.5684 9.0
99.6521 15.0
99.7358 15.0
99.8195 13.0
99.9032 19.0
99.9869 20.0
100.071 15.0
100.154 9.0
100.238 14.0
100.322 10.0
100.405 18.0
100.489 9.0
100.573 14.0
100.657 14.0
100.74 13.0
100.824 10.0
100.908 10.0
100.991 15.0
101.075 16.0
101.159 14.0
101.243 16.0
101.326 14.0
101.41 15.0
101.494 13.0
101.577 19.0
101.661 9.0
101.745 8.0
101.828 16.0
101.912 8.0
101.996 6.0
102.08 18.0
102.163 5.0
102.247 19.0
102.331 13.0
102.414 19.0
102.498 17.0
102.582 11.0
102.666 5.0
102.749 10.0
102.833 11.0
102.917 11.0
103 4.0
103.084 15.0
103.168 15.0
103.251 11.0
103.335 18.0
103.419 14.0
103.503 11.0
103.586 13.0
103.67 9.0
103.754 13.0
103.837 14.0
103.921 19.0
104.005 12.0
104.089 19.0
104.172 17.0
104.256 14.0
104.34 17.0
104.423 14.0
104.507 10.0
104.591 12.0
104.674 18.0
104.758 12.0
104.842 10.0
104.926 10.0
105.009 12.0
105.093 15.0
105.177 14.0
105.26 14.0
105.344 18.0
105.428 7.0
105.511 17.0
105.595 15.0
105.679 11.0
105.763 19.0
105.846 11.0
105.93 11.0
106.014 14.0
106.097 21.0
106.181 17.0
106.265 12.0
106.349 17.0
106.432 15.0
106.516 15.0
106.6 21.0
106.683 9.0
106.767 16.0
106.851 10.0
106.934 14.0
107.018 8.0
107.102 11.0
107.186 10.0
107.269 15.0
107.353 13.0
107.437 15.0
107.52 17.0
107.604 14.0
107.688 14.0
107.772 17.0
107.855 18.0
107.939 20.0
108.023 18.0
108.106 13.0
108.19 7.0
108.274 11.0
108.357 17.0
108.441 9.0
108.525 7.0
108.609 13.0
108.692 12.0
108.776 11.0
108.86 14.0
108.943 17.0
109.027 14.0
109.111 17.0
109.195 11.0
109.278 10.0
109.362 18.0
109.446 16.0
109.529 15.0
109.613 13.0
109.697 16.0
109.78 11.0
109.864 12.0
109.948 16.0
110.032 13.0
110.115 8.0
110.199 8.0
110.283 15.0
110.366 19.0
110.45 17.0
110.534 17.0
110.618 10.0
110.701 13.0
110.785 15.0
110.869 8.0
110.952 11.0
111.036 11.0
111.12 17.0
111.203 16.0
111.287 17.0
111.371 10.0
111.455 12.0
111.538 8.0
111.622 13.0
111.706 12.0
111.789 11.0
111.873 16.0
111.957 14.0
112.041 26.0
112.124 8.0
112.208 14.0
112.292 17.0
112.375 14.0
112.459 15.0
112.543 11.0
112.626 11.0
112.71 7.0
112.794 10.0
112.878 18.0
112.961 12.0
113.045 12.0
113.129 21.0
113.212 13.0
113.296 10.0
113.38 8.0
113.464 13.0
113.547 13.0
113.631 10.0
113.715 5.0
113.798 15.0
113.882 15.0
113.966 5.0
114.049 10.0
114.133 12.0
114.217 11.0
114.301 14.0
114.384 7.0
114.468 18.0
114.552 14.0
114.635 11.0
114.719 17.0
114.803 14.0
114.887 12.0
114.97 21.0
115.054 17.0
115.138 14.0
115.221 22.0
115.305 17.0
115.389 15.0
115.472 6.0
115.556 10.0
115.64 9.0
115.724 14.0
115.807 6.0
115.891 12.0
115.975 16.0
116.058 14.0
116.142 15.0
116.226 19.0
116.31 17.0
116.393 12.0
116.477 8.0
116.561 14.0
116.644 5.0
116.728 13.0
116.812 11.0
116.895 12.0
116.979 10.0
117.063 10.0
117.147 14.0
117.23 19.0
117.314 9.0
117.398 18.0
117.481 14.0
117.565 7.0
117.649 14.0
117.733 11.0
117.816 12.0
117.9 18.0
117.984 21.0
118.067 8.0
118.151 14.0
118.235 12.0
118.318 15.0
118.402 15.0
118.486 10.0
118.57 15.0
118.653 15.0
118.737 14.0
118.821 16.0
118.904 16.0
118.988 7.0
119.072 8.0
119.156 12.0
119.239 7.0
119.323 9.0
119.407 9.0
119.49 14.0
119.574 10.0
119.658 11.0
119.741 9.0
119.825 12.0
119.909 18.0
119.993 15.0
120.076 7.0
120.16 12.0
120.244 13.0
120.327 14.0
120.411 8.0
120.495 8.0
120.578 7.0
120.662 5.0
120.746 14.0
120.83 12.0
120.913 9.0
120.997 14.0
121.081 13.0
121.164 13.0
121.248 6.0
121.332 15.0
121.416 20.0
121.499 10.0
121.583 11.0
121.667 5.0
121.75 11.0
121.834 9.0
121.918 16.0
122.001 12.0
122.085 20.0
122.169 11.0
122.253 14.0
122.336 18.0
122.42 16.0
122.504 16.0
122.587 13.0
122.671 28.0
122.755 40.0
122.839 16.0
122.922 16.0
123.006 20.0
123.09 16.0
123.173 15.0
123.257 13.0
123.341 12.0
123.424 14.0
123.508 12.0
123.592 23.0
123.676 5.0
123.759 16.0
123.843 16.0
123.927 12.0
124.01 17.0
124.094 17.0
124.178 13.0
124.262 11.0
124.345 15.0
124.429 12.0
124.513 13.0
124.596 10.0
124.68 13.0
124.764 15.0
124.847 15.0
124.931 17.0
125.015 20.0
125.099 12.0
125.182 13.0
125.266 15.0
125.35 10.0
125.433 11.0
125.517 14.0
125.601 13.0
125.685 7.0
125.768 15.0
125.852 16.0
125.936 17.0
126.019 10.0
126.103 14.0
126.187 16.0
126.27 14.0
126.354 15.0
126.438 11.0
126.522 16.0
126.605 18.0
126.689 11.0
126.773 7.0
126.856 11.0
126.94 14.0
127.024 10.0
127.108 15.0
127.191 14.0
127.275 15.0
127.359 13.0
127.442 17.0
127.526 22.0
127.61 8.0
127.693 17.0
127.777 11.0
127.861 7.0
127.945 14.0
128.028 13.0
128.112 8.0
128.196 15.0
128.279 17.0
128.363 14.0
128.447 11.0
128.531 14.0
128.614 13.0
128.698 12.0
128.782 21.0
128.865 17.0
128.949 9.0
129.033 15.0
129.116 17.0
129.2 17.0
129.284 13.0
129.368 20.0
129.451 17.0
129.535 11.0
129.619 12.0
129.702 17.0
129.786 17.0
129.87 18.0
129.954 9.0
129.998 19.0