File: data/W6726/XRD_2ThetaOmega/W6726_absolute_2th-om_10-130deg_17min.xy
10.0035 28.0
10.0872 29.0
10.1709 25.0
10.2546 27.0
10.3383 34.0
10.422 16.0
10.5057 32.0
10.5894 26.0
10.6731 17.0
10.7568 17.0
10.8405 26.0
10.9242 33.0
11.0079 25.0
11.0916 25.0
11.1753 26.0
11.259 11.0
11.3428 24.0
11.4265 25.0
11.5102 22.0
11.5939 29.0
11.6776 25.0
11.7613 29.0
11.845 16.0
11.9287 31.0
12.0124 23.0
12.0961 26.0
12.1798 18.0
12.2635 34.0
12.3472 19.0
12.4309 16.0
12.5146 27.0
12.5983 31.0
12.682 24.0
12.7657 14.0
12.8495 20.0
12.9332 21.0
13.0169 27.0
13.1006 24.0
13.1843 19.0
13.268 18.0
13.3517 20.0
13.4354 18.0
13.5191 21.0
13.6028 18.0
13.6865 17.0
13.7702 23.0
13.8539 22.0
13.9376 22.0
14.0213 25.0
14.105 12.0
14.1887 17.0
14.2724 19.0
14.3562 24.0
14.4399 16.0
14.5236 15.0
14.6073 17.0
14.691 18.0
14.7747 22.0
14.8584 12.0
14.9421 27.0
15.0258 19.0
15.1095 18.0
15.1932 20.0
15.2769 17.0
15.3606 15.0
15.4443 13.0
15.528 19.0
15.6117 16.0
15.6954 16.0
15.7791 16.0
15.8629 17.0
15.9466 9.0
16.0303 20.0
16.114 12.0
16.1977 12.0
16.2814 18.0
16.3651 12.0
16.4488 15.0
16.5325 26.0
16.6162 16.0
16.6999 20.0
16.7836 18.0
16.8673 14.0
16.951 10.0
17.0347 17.0
17.1184 15.0
17.2021 13.0
17.2858 23.0
17.3696 11.0
17.4533 17.0
17.537 9.0
17.6207 18.0
17.7044 16.0
17.7881 18.0
17.8718 14.0
17.9555 15.0
18.0392 19.0
18.1229 9.0
18.2066 18.0
18.2903 14.0
18.374 10.0
18.4577 17.0
18.5414 12.0
18.6251 19.0
18.7088 12.0
18.7925 12.0
18.8763 12.0
18.96 8.0
19.0437 18.0
19.1274 8.0
19.2111 8.0
19.2948 11.0
19.3785 16.0
19.4622 10.0
19.5459 16.0
19.6296 19.0
19.7133 12.0
19.797 17.0
19.8807 10.0
19.9644 9.0
20.0481 14.0
20.1318 11.0
20.2155 13.0
20.2992 13.0
20.383 8.0
20.4667 10.0
20.5504 5.0
20.6341 9.0
20.7178 15.0
20.8015 9.0
20.8852 9.0
20.9689 9.0
21.0526 11.0
21.1363 10.0
21.22 16.0
21.3037 10.0
21.3874 7.0
21.4711 11.0
21.5548 11.0
21.6385 5.0
21.7222 11.0
21.8059 8.0
21.8897 12.0
21.9734 7.0
22.0571 11.0
22.1408 9.0
22.2245 15.0
22.3082 17.0
22.3919 16.0
22.4756 13.0
22.5593 9.0
22.643 11.0
22.7267 12.0
22.8104 12.0
22.8941 10.0
22.9778 15.0
23.0615 6.0
23.1452 10.0
23.2289 9.0
23.3126 10.0
23.3964 7.0
23.4801 7.0
23.5638 8.0
23.6475 8.0
23.7312 5.0
23.8149 8.0
23.8986 11.0
23.9823 13.0
24.066 9.0
24.1497 7.0
24.2334 7.0
24.3171 9.0
24.4008 13.0
24.4845 7.0
24.5682 8.0
24.6519 6.0
24.7356 8.0
24.8193 5.0
24.9031 6.0
24.9868 8.0
25.0705 7.0
25.1542 11.0
25.2379 7.0
25.3216 8.0
25.4053 6.0
25.489 5.0
25.5727 8.0
25.6564 7.0
25.7401 5.0
25.8238 2.0
25.9075 7.0
25.9912 9.0
26.0749 3.0
26.1586 6.0
26.2423 4.0
26.326 5.0
26.4098 5.0
26.4935 3.0
26.5772 8.0
26.6609 6.0
26.7446 7.0
26.8283 4.0
26.912 9.0
26.9957 7.0
27.0794 4.0
27.1631 4.0
27.2468 13.0
27.3305 3.0
27.4142 10.0
27.4979 11.0
27.5816 9.0
27.6653 6.0
27.749 7.0
27.8327 8.0
27.9165 9.0
28.0002 12.0
28.0839 8.0
28.1676 8.0
28.2513 5.0
28.335 11.0
28.4187 2.0
28.5024 7.0
28.5861 5.0
28.6698 7.0
28.7535 7.0
28.8372 6.0
28.9209 6.0
29.0046 5.0
29.0883 9.0
29.172 10.0
29.2557 9.0
29.3394 8.0
29.4232 5.0
29.5069 4.0
29.5906 9.0
29.6743 9.0
29.758 5.0
29.8417 7.0
29.9254 7.0
30.0091 9.0
30.0928 6.0
30.1765 8.0
30.2602 1.0
30.3439 6.0
30.4276 6.0
30.5113 9.0
30.595 4.0
30.6787 3.0
30.7624 8.0
30.8461 4.0
30.9298 8.0
31.0136 5.0
31.0973 9.0
31.181 13.0
31.2647 7.0
31.3484 5.0
31.4321 8.0
31.5158 11.0
31.5995 5.0
31.6832 3.0
31.7669 5.0
31.8506 3.0
31.9343 7.0
32.018 7.0
32.1017 3.0
32.1854 4.0
32.2691 5.0
32.3528 5.0
32.4365 6.0
32.5203 6.0
32.604 5.0
32.6877 6.0
32.7714 5.0
32.8551 6.0
32.9388 8.0
33.0225 6.0
33.1062 7.0
33.1899 9.0
33.2736 8.0
33.3573 8.0
33.441 6.0
33.5247 7.0
33.6084 6.0
33.6921 7.0
33.7758 9.0
33.8595 6.0
33.9432 3.0
34.027 7.0
34.1107 4.0
34.1944 3.0
34.2781 9.0
34.3618 3.0
34.4455 4.0
34.5292 2.0
34.6129 4.0
34.6966 5.0
34.7803 6.0
34.864 5.0
34.9477 4.0
35.0314 3.0
35.1151 1.0
35.1988 9.0
35.2825 1.0
35.3662 6.0
35.4499 5.0
35.5337 4.0
35.6174 5.0
35.7011 6.0
35.7848 7.0
35.8685 3.0
35.9522 1.0
36.0359 4.0
36.1196 4.0
36.2033 4.0
36.287 2.0
36.3707 2.0
36.4544 7.0
36.5381 2.0
36.6218 8.0
36.7055 4.0
36.7892 5.0
36.8729 5.0
36.9566 2.0
37.0404 4.0
37.1241 8.0
37.2078 3.0
37.2915 1.0
37.3752 6.0
37.4589 1.0
37.5426 10.0
37.6263 3.0
37.71 7.0
37.7937 3.0
37.8774 1.0
37.9611 5.0
38.0448 2.0
38.1285 4.0
38.2122 3.0
38.2959 2.0
38.3796 5.0
38.4633 3.0
38.5471 4.0
38.6308 2.0
38.7145 5.0
38.7982 8.0
38.8819 4.0
38.9656 6.0
39.0493 6.0
39.133 1.0
39.2167 8.0
39.3004 3.0
39.3841 1.0
39.4678 7.0
39.5515 4.0
39.6352 8.0
39.7189 4.0
39.8026 0.0
39.8863 4.0
39.97 1.0
40.0538 4.0
40.1375 0.0
40.2212 3.0
40.3049 1.0
40.3886 6.0
40.4723 6.0
40.556 0.0
40.6397 9.0
40.7234 4.0
40.8071 11.0
40.8908 1.0
40.9745 8.0
41.0582 4.0
41.1419 3.0
41.2256 4.0
41.3093 1.0
41.393 6.0
41.4767 1.0
41.5605 2.0
41.6442 6.0
41.7279 4.0
41.8116 4.0
41.8953 5.0
41.979 2.0
42.0627 4.0
42.1464 5.0
42.2301 4.0
42.3138 3.0
42.3975 5.0
42.4812 4.0
42.5649 5.0
42.6486 1.0
42.7323 5.0
42.816 6.0
42.8997 1.0
42.9834 2.0
43.0672 5.0
43.1509 8.0
43.2346 5.0
43.3183 5.0
43.402 7.0
43.4857 2.0
43.5694 1.0
43.6531 3.0
43.7368 5.0
43.8205 5.0
43.9042 3.0
43.9879 2.0
44.0716 5.0
44.1553 0.0
44.239 3.0
44.3227 2.0
44.4064 7.0
44.4901 7.0
44.5739 2.0
44.6576 5.0
44.7413 2.0
44.825 3.0
44.9087 6.0
44.9924 3.0
45.0761 6.0
45.1598 2.0
45.2435 5.0
45.3272 4.0
45.4109 4.0
45.4946 1.0
45.5783 11.0
45.662 3.0
45.7457 5.0
45.8294 3.0
45.9131 3.0
45.9968 3.0
46.0806 2.0
46.1643 6.0
46.248 1.0
46.3317 3.0
46.4154 2.0
46.4991 2.0
46.5828 2.0
46.6665 5.0
46.7502 1.0
46.8339 2.0
46.9176 2.0
47.0013 8.0
47.085 3.0
47.1687 2.0
47.2524 1.0
47.3361 5.0
47.4198 1.0
47.5035 7.0
47.5873 8.0
47.671 1.0
47.7547 12.0
47.8384 1.0
47.9221 4.0
48.0058 6.0
48.0895 1.0
48.1732 4.0
48.2569 7.0
48.3406 4.0
48.4243 2.0
48.508 2.0
48.5917 2.0
48.6754 1.0
48.7591 4.0
48.8428 3.0
48.9265 2.0
49.0102 4.0
49.094 4.0
49.1777 2.0
49.2614 6.0
49.3451 3.0
49.4288 4.0
49.5125 2.0
49.5962 5.0
49.6799 5.0
49.7636 3.0
49.8473 4.0
49.931 5.0
50.0147 7.0
50.0984 0.0
50.1821 3.0
50.2658 9.0
50.3495 5.0
50.4332 2.0
50.5169 2.0
50.6007 4.0
50.6844 4.0
50.7681 5.0
50.8518 4.0
50.9355 1.0
51.0192 1.0
51.1029 2.0
51.1866 0.0
51.2703 2.0
51.354 8.0
51.4377 8.0
51.5214 4.0
51.6051 1.0
51.6888 2.0
51.7725 6.0
51.8562 5.0
51.9399 2.0
52.0236 7.0
52.1074 5.0
52.1911 8.0
52.2748 3.0
52.3585 7.0
52.4422 3.0
52.5259 6.0
52.6096 7.0
52.6933 5.0
52.777 3.0
52.8607 8.0
52.9444 1.0
53.0281 6.0
53.1118 4.0
53.1955 4.0
53.2792 6.0
53.3629 5.0
53.4466 3.0
53.5303 4.0
53.6141 3.0
53.6978 5.0
53.7815 13.0
53.8652 7.0
53.9489 5.0
54.0326 6.0
54.1163 3.0
54.2 8.0
54.2837 5.0
54.3674 8.0
54.4511 0.0
54.5348 2.0
54.6185 1.0
54.7022 10.0
54.7859 5.0
54.8696 4.0
54.9533 5.0
55.037 5.0
55.1208 5.0
55.2045 2.0
55.2882 3.0
55.3719 6.0
55.4556 11.0
55.5393 25.0
55.623 13.0
55.7067 15.0
55.7904 5.0
55.8741 2.0
55.9578 2.0
56.0415 4.0
56.1252 5.0
56.2089 4.0
56.2926 7.0
56.3763 8.0
56.46 7.0
56.5437 3.0
56.6275 6.0
56.7112 2.0
56.7949 4.0
56.8786 3.0
56.9623 8.0
57.046 3.0
57.1297 2.0
57.2134 5.0
57.2971 3.0
57.3808 6.0
57.4645 7.0
57.5482 9.0
57.6319 8.0
57.7156 7.0
57.7993 5.0
57.883 2.0
57.9667 5.0
58.0504 4.0
58.1342 6.0
58.2179 5.0
58.3016 7.0
58.3853 1.0
58.469 3.0
58.5527 5.0
58.6364 3.0
58.7201 0.0
58.8038 4.0
58.8875 3.0
58.9712 4.0
59.0549 10.0
59.1386 5.0
59.2223 1.0
59.306 3.0
59.3897 3.0
59.4734 4.0
59.5571 5.0
59.6409 3.0
59.7246 4.0
59.8083 8.0
59.892 4.0
59.9757 7.0
60.0594 6.0
60.1431 7.0
60.2268 5.0
60.3105 5.0
60.3942 11.0
60.4779 7.0
60.5616 3.0
60.6453 7.0
60.729 10.0
60.8127 106.0
60.8964 48.0
60.9801 20.0
61.0638 9.0
61.1476 9.0
61.2313 12.0
61.315 9.0
61.3987 11.0
61.4824 13.0
61.5661 8.0
61.6498 15.0
61.7335 9.0
61.8172 10.0
61.9009 12.0
61.9846 10.0
62.0683 13.0
62.152 8.0
62.2357 10.0
62.3194 8.0
62.4031 10.0
62.4868 14.0
62.5705 5.0
62.6543 8.0
62.738 6.0
62.8217 13.0
62.9054 12.0
62.9891 12.0
63.0728 12.0
63.1565 14.0
63.2402 26.0
63.3239 25.0
63.4076 30.0
63.4913 24.0
63.575 42.0
63.6587 41.0
63.7424 74.0
63.8261 61.0
63.9098 112.0
63.9935 180.0
64.0772 279.0
64.161 429.0
64.2447 622.0
64.3284 777.0
64.4121 833.0
64.4958 721.0
64.5795 588.0
64.6632 426.0
64.7469 281.0
64.8306 204.0
64.9143 288.0
64.998 213.0
65.0817 104.0
65.1654 62.0
65.2491 60.0
65.3328 48.0
65.4165 38.0
65.5002 84.0
65.5839 41.0
65.6677 37.0
65.7514 25.0
65.8351 30.0
65.9188 15.0
66.0025 23.0
66.0862 15.0
66.1699 25.0
66.2536 32.0
66.3373 25.0
66.421 11.0
66.5047 31.0
66.5884 30.0
66.6721 33.0
66.7558 35.0
66.8395 29.0
66.9232 51.0
67.0069 42.0
67.0906 39.0
67.1744 44.0
67.2581 64.0
67.3418 61.0
67.4255 73.0
67.5092 97.0
67.5929 112.0
67.6766 127.0
67.7603 223.0
67.844 423.0
67.9277 433.0
68.0114 782.0
68.0951 4336.0
68.1788 32733.0
68.2625 2369.0
68.3462 21141.0
68.4299 1701.0
68.5136 544.0
68.5973 309.0
68.6811 150.0
68.7648 136.0
68.8485 120.0
68.9322 85.0
69.0159 63.0
69.0996 70.0
69.1833 53.0
69.267 62.0
69.3507 64.0
69.4344 41.0
69.5181 34.0
69.6018 28.0
69.6855 38.0
69.7692 34.0
69.8529 24.0
69.9366 26.0
70.0203 17.0
70.104 22.0
70.1878 17.0
70.2715 9.0
70.3552 10.0
70.4389 16.0
70.5226 12.0
70.6063 15.0
70.69 10.0
70.7737 8.0
70.8574 6.0
70.9411 8.0
71.0248 14.0
71.1085 11.0
71.1922 18.0
71.2759 4.0
71.3596 4.0
71.4433 5.0
71.527 3.0
71.6107 5.0
71.6945 4.0
71.7782 7.0
71.8619 9.0
71.9456 2.0
72.0293 5.0
72.113 9.0
72.1967 5.0
72.2804 8.0
72.3641 5.0
72.4478 3.0
72.5315 5.0
72.6152 4.0
72.6989 2.0
72.7826 6.0
72.8663 5.0
72.95 7.0
73.0337 7.0
73.1174 6.0
73.2012 8.0
73.2849 9.0
73.3686 9.0
73.4523 4.0
73.536 5.0
73.6197 3.0
73.7034 4.0
73.7871 5.0
73.8708 6.0
73.9545 2.0
74.0382 2.0
74.1219 3.0
74.2056 7.0
74.2893 6.0
74.373 5.0
74.4567 3.0
74.5404 4.0
74.6241 8.0
74.7079 3.0
74.7916 2.0
74.8753 0.0
74.959 0.0
75.0427 10.0
75.1264 3.0
75.2101 9.0
75.2938 6.0
75.3775 3.0
75.4612 1.0
75.5449 5.0
75.6286 2.0
75.7123 3.0
75.796 6.0
75.8797 4.0
75.9634 2.0
76.0471 3.0
76.1308 3.0
76.2146 0.0
76.2983 4.0
76.382 3.0
76.4657 1.0
76.5494 1.0
76.6331 4.0
76.7168 4.0
76.8005 1.0
76.8842 5.0
76.9679 3.0
77.0516 2.0
77.1353 7.0
77.219 4.0
77.3027 0.0
77.3864 4.0
77.4701 1.0
77.5538 2.0
77.6375 1.0
77.7213 2.0
77.805 2.0
77.8887 4.0
77.9724 3.0
78.0561 3.0
78.1398 0.0
78.2235 1.0
78.3072 4.0
78.3909 2.0
78.4746 7.0
78.5583 4.0
78.642 2.0
78.7257 3.0
78.8094 1.0
78.8931 5.0
78.9768 5.0
79.0605 4.0
79.1442 3.0
79.228 3.0
79.3117 4.0
79.3954 3.0
79.4791 0.0
79.5628 2.0
79.6465 1.0
79.7302 2.0
79.8139 2.0
79.8976 2.0
79.9813 2.0
80.065 3.0
80.1487 0.0
80.2324 5.0
80.3161 4.0
80.3998 4.0
80.4835 4.0
80.5672 3.0
80.6509 5.0
80.7347 0.0
80.8184 0.0
80.9021 3.0
80.9858 3.0
81.0695 1.0
81.1532 1.0
81.2369 4.0
81.3206 1.0
81.4043 1.0
81.488 1.0
81.5717 3.0
81.6554 7.0
81.7391 2.0
81.8228 1.0
81.9065 3.0
81.9902 1.0
82.0739 3.0
82.1576 1.0
82.2414 0.0
82.3251 4.0
82.4088 4.0
82.4925 2.0
82.5762 6.0
82.6599 5.0
82.7436 1.0
82.8273 3.0
82.911 7.0
82.9947 4.0
83.0784 4.0
83.1621 3.0
83.2458 0.0
83.3295 2.0
83.4132 0.0
83.4969 6.0
83.5806 0.0
83.6643 3.0
83.7481 1.0
83.8318 3.0
83.9155 3.0
83.9992 3.0
84.0829 4.0
84.1666 2.0
84.2503 3.0
84.334 1.0
84.4177 0.0
84.5014 1.0
84.5851 1.0
84.6688 0.0
84.7525 3.0
84.8362 1.0
84.9199 2.0
85.0036 5.0
85.0873 1.0
85.171 3.0
85.2548 2.0
85.3385 2.0
85.4222 0.0
85.5059 6.0
85.5896 0.0
85.6733 2.0
85.757 1.0
85.8407 0.0
85.9244 2.0
86.0081 0.0
86.0918 3.0
86.1755 4.0
86.2592 7.0
86.3429 3.0
86.4266 2.0
86.5103 3.0
86.594 4.0
86.6777 3.0
86.7615 2.0
86.8452 5.0
86.9289 2.0
87.0126 7.0
87.0963 1.0
87.18 3.0
87.2637 0.0
87.3474 3.0
87.4311 5.0
87.5148 3.0
87.5985 1.0
87.6822 2.0
87.7659 1.0
87.8496 3.0
87.9333 0.0
88.017 3.0
88.1007 1.0
88.1844 6.0
88.2682 0.0
88.3519 6.0
88.4356 1.0
88.5193 6.0
88.603 2.0
88.6867 2.0
88.7704 6.0
88.8541 0.0
88.9378 2.0
89.0215 0.0
89.1052 3.0
89.1889 2.0
89.2726 5.0
89.3563 1.0
89.44 2.0
89.5237 1.0
89.6074 7.0
89.6911 1.0
89.7749 0.0
89.8586 2.0
89.9423 2.0
90.026 4.0
90.1097 3.0
90.1934 3.0
90.2771 2.0
90.3608 1.0
90.4445 0.0
90.5282 2.0
90.6119 0.0
90.6956 5.0
90.7793 0.0
90.863 5.0
90.9467 1.0
91.0304 1.0
91.1141 1.0
91.1978 3.0
91.2816 3.0
91.3653 0.0
91.449 0.0
91.5327 6.0
91.6164 0.0
91.7001 0.0
91.7838 1.0
91.8675 2.0
91.9512 0.0
92.0349 5.0
92.1186 2.0
92.2023 2.0
92.286 4.0
92.3697 3.0
92.4534 2.0
92.5371 3.0
92.6208 3.0
92.7045 3.0
92.7883 5.0
92.872 1.0
92.9557 2.0
93.0394 3.0
93.1231 6.0
93.2068 4.0
93.2905 0.0
93.3742 2.0
93.4579 2.0
93.5416 2.0
93.6253 2.0
93.709 2.0
93.7927 0.0
93.8764 1.0
93.9601 2.0
94.0438 5.0
94.1275 1.0
94.2112 1.0
94.295 0.0
94.3787 1.0
94.4624 1.0
94.5461 2.0
94.6298 1.0
94.7135 1.0
94.7972 1.0
94.8809 0.0
94.9646 2.0
95.0483 6.0
95.132 1.0
95.2157 1.0
95.2994 2.0
95.3831 4.0
95.4668 3.0
95.5505 6.0
95.6342 3.0
95.7179 1.0
95.8017 2.0
95.8854 2.0
95.9691 4.0
96.0528 4.0
96.1365 0.0
96.2202 1.0
96.3039 2.0
96.3876 1.0
96.4713 3.0
96.555 0.0
96.6387 3.0
96.7224 0.0
96.8061 1.0
96.8898 2.0
96.9735 4.0
97.0572 3.0
97.1409 1.0
97.2246 2.0
97.3084 1.0
97.3921 1.0
97.4758 7.0
97.5595 0.0
97.6432 4.0
97.7269 1.0
97.8106 3.0
97.8943 1.0
97.978 2.0
98.0617 5.0
98.1454 3.0
98.2291 3.0
98.3128 3.0
98.3965 1.0
98.4802 3.0
98.5639 1.0
98.6476 3.0
98.7313 2.0
98.8151 0.0
98.8988 0.0
98.9825 7.0
99.0662 3.0
99.1499 1.0
99.2336 4.0
99.3173 3.0
99.401 1.0
99.4847 3.0
99.5684 4.0
99.6521 1.0
99.7358 4.0
99.8195 5.0
99.9032 1.0
99.9869 0.0
100.071 3.0
100.154 0.0
100.238 3.0
100.322 0.0
100.405 1.0
100.489 2.0
100.573 2.0
100.657 2.0
100.74 7.0
100.824 3.0
100.908 0.0
100.991 0.0
101.075 2.0
101.159 2.0
101.243 2.0
101.326 4.0
101.41 4.0
101.494 0.0
101.577 3.0
101.661 0.0
101.745 0.0
101.828 1.0
101.912 1.0
101.996 3.0
102.08 0.0
102.163 3.0
102.247 2.0
102.331 3.0
102.414 2.0
102.498 2.0
102.582 1.0
102.666 2.0
102.749 4.0
102.833 4.0
102.917 0.0
103 3.0
103.084 0.0
103.168 5.0
103.251 2.0
103.335 1.0
103.419 4.0
103.503 3.0
103.586 3.0
103.67 4.0
103.754 3.0
103.837 2.0
103.921 3.0
104.005 3.0
104.089 1.0
104.172 5.0
104.256 0.0
104.34 5.0
104.423 3.0
104.507 5.0
104.591 0.0
104.674 0.0
104.758 0.0
104.842 3.0
104.926 3.0
105.009 2.0
105.093 1.0
105.177 4.0
105.26 0.0
105.344 0.0
105.428 7.0
105.511 0.0
105.595 0.0
105.679 2.0
105.763 0.0
105.846 1.0
105.93 3.0
106.014 2.0
106.097 2.0
106.181 2.0
106.265 2.0
106.349 3.0
106.432 1.0
106.516 4.0
106.6 3.0
106.683 3.0
106.767 3.0
106.851 1.0
106.934 1.0
107.018 3.0
107.102 4.0
107.186 1.0
107.269 6.0
107.353 1.0
107.437 2.0
107.52 4.0
107.604 1.0
107.688 4.0
107.772 4.0
107.855 2.0
107.939 2.0
108.023 1.0
108.106 4.0
108.19 3.0
108.274 5.0
108.357 1.0
108.441 0.0
108.525 1.0
108.609 3.0
108.692 2.0
108.776 2.0
108.86 2.0
108.943 0.0
109.027 0.0
109.111 4.0
109.195 1.0
109.278 3.0
109.362 5.0
109.446 1.0
109.529 1.0
109.613 0.0
109.697 0.0
109.78 2.0
109.864 2.0
109.948 0.0
110.032 1.0
110.115 0.0
110.199 1.0
110.283 0.0
110.366 0.0
110.45 4.0
110.534 0.0
110.618 4.0
110.701 0.0
110.785 1.0
110.869 4.0
110.952 3.0
111.036 6.0
111.12 2.0
111.203 0.0
111.287 3.0
111.371 2.0
111.455 4.0
111.538 0.0
111.622 2.0
111.706 4.0
111.789 3.0
111.873 0.0
111.957 1.0
112.041 5.0
112.124 2.0
112.208 1.0
112.292 1.0
112.375 3.0
112.459 2.0
112.543 3.0
112.626 7.0
112.71 3.0
112.794 4.0
112.878 5.0
112.961 4.0
113.045 2.0
113.129 2.0
113.212 1.0
113.296 1.0
113.38 1.0
113.464 2.0
113.547 0.0
113.631 0.0
113.715 2.0
113.798 3.0
113.882 2.0
113.966 3.0
114.049 1.0
114.133 0.0
114.217 2.0
114.301 0.0
114.384 2.0
114.468 2.0
114.552 2.0
114.635 1.0
114.719 4.0
114.803 3.0
114.887 0.0
114.97 0.0
115.054 2.0
115.138 1.0
115.221 6.0
115.305 7.0
115.389 1.0
115.472 2.0
115.556 2.0
115.64 0.0
115.724 1.0
115.807 2.0
115.891 1.0
115.975 3.0
116.058 2.0
116.142 6.0
116.226 0.0
116.31 2.0
116.393 0.0
116.477 3.0
116.561 5.0
116.644 5.0
116.728 3.0
116.812 0.0
116.895 2.0
116.979 4.0
117.063 1.0
117.147 0.0
117.23 0.0
117.314 1.0
117.398 3.0
117.481 0.0
117.565 4.0
117.649 4.0
117.733 2.0
117.816 4.0
117.9 3.0
117.984 4.0
118.067 3.0
118.151 2.0
118.235 1.0
118.318 4.0
118.402 3.0
118.486 0.0
118.57 1.0
118.653 2.0
118.737 1.0
118.821 1.0
118.904 4.0
118.988 3.0
119.072 2.0
119.156 5.0
119.239 3.0
119.323 0.0
119.407 4.0
119.49 2.0
119.574 3.0
119.658 2.0
119.741 1.0
119.825 2.0
119.909 2.0
119.993 3.0
120.076 1.0
120.16 0.0
120.244 3.0
120.327 3.0
120.411 3.0
120.495 1.0
120.578 1.0
120.662 1.0
120.746 2.0
120.83 3.0
120.913 0.0
120.997 1.0
121.081 6.0
121.164 0.0
121.248 2.0
121.332 4.0
121.416 3.0
121.499 4.0
121.583 5.0
121.667 4.0
121.75 1.0
121.834 1.0
121.918 1.0
122.001 0.0
122.085 2.0
122.169 0.0
122.253 2.0
122.336 3.0
122.42 1.0
122.504 6.0
122.587 4.0
122.671 3.0
122.755 2.0
122.839 2.0
122.922 1.0
123.006 0.0
123.09 2.0
123.173 3.0
123.257 6.0
123.341 2.0
123.424 3.0
123.508 6.0
123.592 0.0
123.676 2.0
123.759 2.0
123.843 3.0
123.927 1.0
124.01 4.0
124.094 0.0
124.178 3.0
124.262 1.0
124.345 2.0
124.429 3.0
124.513 1.0
124.596 2.0
124.68 4.0
124.764 2.0
124.847 3.0
124.931 2.0
125.015 0.0
125.099 3.0
125.182 2.0
125.266 2.0
125.35 1.0
125.433 3.0
125.517 5.0
125.601 4.0
125.685 4.0
125.768 3.0
125.852 2.0
125.936 2.0
126.019 0.0
126.103 2.0
126.187 2.0
126.27 1.0
126.354 3.0
126.438 4.0
126.522 0.0
126.605 4.0
126.689 2.0
126.773 1.0
126.856 0.0
126.94 0.0
127.024 1.0
127.108 0.0
127.191 2.0
127.275 2.0
127.359 5.0
127.442 4.0
127.526 5.0
127.61 2.0
127.693 5.0
127.777 2.0
127.861 8.0
127.945 0.0
128.028 3.0
128.112 1.0
128.196 0.0
128.279 4.0
128.363 2.0
128.447 0.0
128.531 2.0
128.614 3.0
128.698 3.0
128.782 0.0
128.865 4.0
128.949 2.0
129.033 5.0
129.116 3.0
129.2 1.0
129.284 3.0
129.368 2.0
129.451 0.0
129.535 2.0
129.619 3.0
129.702 0.0
129.786 3.0
129.87 6.0
129.954 2.0
129.998 6.0