File: data/W6726/XRD_2ThetaOmega/W6726_absolute_2th-om_58-72deg-20min_6.xy
58.0028 287.0
58.0127 286.0
58.0225 302.0
58.0324 285.0
58.0422 308.0
58.0521 278.0
58.0619 279.0
58.0718 267.0
58.0816 290.0
58.0915 305.0
58.1013 295.0
58.1112 295.0
58.121 289.0
58.1309 280.0
58.1407 266.0
58.1505 285.0
58.1604 300.0
58.1702 261.0
58.1801 332.0
58.1899 286.0
58.1998 292.0
58.2096 308.0
58.2195 237.0
58.2293 265.0
58.2392 294.0
58.249 272.0
58.2589 306.0
58.2687 276.0
58.2786 250.0
58.2884 286.0
58.2983 270.0
58.3081 291.0
58.318 266.0
58.3278 308.0
58.3377 265.0
58.3475 298.0
58.3573 274.0
58.3672 287.0
58.377 307.0
58.3869 293.0
58.3967 287.0
58.4066 336.0
58.4164 244.0
58.4263 262.0
58.4361 283.0
58.446 247.0
58.4558 297.0
58.4657 312.0
58.4755 296.0
58.4854 297.0
58.4952 277.0
58.5051 295.0
58.5149 283.0
58.5248 273.0
58.5346 264.0
58.5445 286.0
58.5543 272.0
58.5642 257.0
58.574 286.0
58.5838 303.0
58.5937 301.0
58.6035 298.0
58.6134 288.0
58.6232 280.0
58.6331 302.0
58.6429 308.0
58.6528 269.0
58.6626 276.0
58.6725 283.0
58.6823 274.0
58.6922 275.0
58.702 294.0
58.7119 315.0
58.7217 255.0
58.7316 255.0
58.7414 267.0
58.7513 297.0
58.7611 245.0
58.771 256.0
58.7808 276.0
58.7906 307.0
58.8005 319.0
58.8103 297.0
58.8202 296.0
58.83 279.0
58.8399 322.0
58.8497 302.0
58.8596 274.0
58.8694 263.0
58.8793 256.0
58.8891 296.0
58.899 309.0
58.9088 297.0
58.9187 292.0
58.9285 288.0
58.9384 260.0
58.9482 290.0
58.9581 320.0
58.9679 263.0
58.9778 284.0
58.9876 267.0
58.9974 278.0
59.0073 276.0
59.0171 265.0
59.027 290.0
59.0368 292.0
59.0467 273.0
59.0565 277.0
59.0664 279.0
59.0762 279.0
59.0861 315.0
59.0959 264.0
59.1058 276.0
59.1156 282.0
59.1255 293.0
59.1353 269.0
59.1452 261.0
59.155 235.0
59.1649 264.0
59.1747 292.0
59.1846 274.0
59.1944 286.0
59.2043 275.0
59.2141 258.0
59.2239 245.0
59.2338 280.0
59.2436 275.0
59.2535 260.0
59.2633 265.0
59.2732 318.0
59.283 267.0
59.2929 322.0
59.3027 281.0
59.3126 262.0
59.3224 293.0
59.3323 268.0
59.3421 300.0
59.352 274.0
59.3618 269.0
59.3717 265.0
59.3815 267.0
59.3914 309.0
59.4012 288.0
59.4111 292.0
59.4209 283.0
59.4307 273.0
59.4406 255.0
59.4504 292.0
59.4603 293.0
59.4701 266.0
59.48 265.0
59.4898 304.0
59.4997 307.0
59.5095 266.0
59.5194 297.0
59.5292 265.0
59.5391 277.0
59.5489 285.0
59.5588 279.0
59.5686 291.0
59.5785 272.0
59.5883 274.0
59.5982 302.0
59.608 277.0
59.6179 320.0
59.6277 281.0
59.6376 285.0
59.6474 291.0
59.6572 277.0
59.6671 316.0
59.6769 286.0
59.6868 283.0
59.6966 272.0
59.7065 298.0
59.7163 290.0
59.7262 302.0
59.736 280.0
59.7459 287.0
59.7557 292.0
59.7656 290.0
59.7754 267.0
59.7853 279.0
59.7951 258.0
59.805 295.0
59.8148 281.0
59.8247 245.0
59.8345 284.0
59.8444 290.0
59.8542 263.0
59.864 304.0
59.8739 296.0
59.8837 278.0
59.8936 248.0
59.9034 279.0
59.9133 282.0
59.9231 255.0
59.933 294.0
59.9428 281.0
59.9527 294.0
59.9625 287.0
59.9724 309.0
59.9822 294.0
59.9921 303.0
60.0019 294.0
60.0118 298.0
60.0216 285.0
60.0315 270.0
60.0413 245.0
60.0512 272.0
60.061 287.0
60.0709 268.0
60.0807 284.0
60.0905 280.0
60.1004 299.0
60.1102 307.0
60.1201 282.0
60.1299 294.0
60.1398 296.0
60.1496 287.0
60.1595 290.0
60.1693 288.0
60.1792 303.0
60.189 286.0
60.1989 320.0
60.2087 282.0
60.2186 282.0
60.2284 271.0
60.2383 321.0
60.2481 321.0
60.258 305.0
60.2678 324.0
60.2777 318.0
60.2875 299.0
60.2973 334.0
60.3072 321.0
60.317 331.0
60.3269 290.0
60.3367 298.0
60.3466 342.0
60.3564 344.0
60.3663 282.0
60.3761 329.0
60.386 307.0
60.3958 317.0
60.4057 292.0
60.4155 311.0
60.4254 299.0
60.4352 311.0
60.4451 280.0
60.4549 281.0
60.4648 267.0
60.4746 327.0
60.4845 276.0
60.4943 292.0
60.5041 323.0
60.514 336.0
60.5238 317.0
60.5337 289.0
60.5435 323.0
60.5534 289.0
60.5632 297.0
60.5731 315.0
60.5829 327.0
60.5928 318.0
60.6026 329.0
60.6125 340.0
60.6223 323.0
60.6322 321.0
60.642 339.0
60.6519 363.0
60.6617 348.0
60.6716 358.0
60.6814 343.0
60.6913 392.0
60.7011 417.0
60.711 423.0
60.7208 437.0
60.7306 469.0
60.7405 600.0
60.7503 674.0
60.7602 834.0
60.77 969.0
60.7799 1385.0
60.7897 1673.0
60.7996 2114.0
60.8094 2409.0
60.8193 2537.0
60.8291 2455.0
60.839 2346.0
60.8488 2075.0
60.8587 1683.0
60.8685 1496.0
60.8784 1394.0
60.8882 1363.0
60.8981 1209.0
60.9079 1135.0
60.9178 1030.0
60.9276 956.0
60.9374 849.0
60.9473 750.0
60.9571 608.0
60.967 526.0
60.9768 499.0
60.9867 527.0
60.9965 496.0
61.0064 469.0
61.0162 516.0
61.0261 435.0
61.0359 437.0
61.0458 471.0
61.0556 435.0
61.0655 409.0
61.0753 431.0
61.0852 434.0
61.095 455.0
61.1049 436.0
61.1147 419.0
61.1246 407.0
61.1344 432.0
61.1443 441.0
61.1541 426.0
61.1639 454.0
61.1738 437.0
61.1836 450.0
61.1935 419.0
61.2033 415.0
61.2132 483.0
61.223 457.0
61.2329 469.0
61.2427 469.0
61.2526 491.0
61.2624 440.0
61.2723 441.0
61.2821 485.0
61.292 485.0
61.3018 471.0
61.3117 475.0
61.3215 494.0
61.3314 510.0
61.3412 524.0
61.3511 474.0
61.3609 470.0
61.3707 520.0
61.3806 484.0
61.3904 493.0
61.4003 498.0
61.4101 507.0
61.42 479.0
61.4298 480.0
61.4397 470.0
61.4495 491.0
61.4594 491.0
61.4692 495.0
61.4791 436.0
61.4889 483.0
61.4988 487.0
61.5086 442.0
61.5185 434.0
61.5283 418.0
61.5382 418.0
61.548 429.0
61.5579 444.0
61.5677 413.0
61.5776 415.0
61.5874 404.0
61.5972 380.0
61.6071 408.0
61.6169 393.0
61.6268 396.0
61.6366 387.0
61.6465 402.0
61.6563 347.0
61.6662 382.0
61.676 370.0
61.6859 373.0
61.6957 408.0
61.7056 375.0
61.7154 392.0
61.7253 379.0
61.7351 394.0
61.745 360.0
61.7548 409.0
61.7647 355.0
61.7745 405.0
61.7844 393.0
61.7942 360.0
61.804 390.0
61.8139 375.0
61.8237 369.0
61.8336 387.0
61.8434 404.0
61.8533 337.0
61.8631 396.0
61.873 396.0
61.8828 392.0
61.8927 403.0
61.9025 401.0
61.9124 409.0
61.9222 370.0
61.9321 424.0
61.9419 366.0
61.9518 407.0
61.9616 384.0
61.9715 375.0
61.9813 392.0
61.9912 410.0
62.001 400.0
62.0108 387.0
62.0207 368.0
62.0305 355.0
62.0404 379.0
62.0502 368.0
62.0601 380.0
62.0699 374.0
62.0798 413.0
62.0896 371.0
62.0995 402.0
62.1093 358.0
62.1192 382.0
62.129 390.0
62.1389 372.0
62.1487 393.0
62.1586 363.0
62.1684 365.0
62.1783 424.0
62.1881 363.0
62.198 433.0
62.2078 377.0
62.2177 373.0
62.2275 366.0
62.2373 378.0
62.2472 357.0
62.257 391.0
62.2669 357.0
62.2767 372.0
62.2866 404.0
62.2964 377.0
62.3063 401.0
62.3161 398.0
62.326 339.0
62.3358 385.0
62.3457 406.0
62.3555 391.0
62.3654 354.0
62.3752 365.0
62.3851 377.0
62.3949 396.0
62.4048 370.0
62.4146 367.0
62.4245 371.0
62.4343 400.0
62.4441 363.0
62.454 383.0
62.4638 379.0
62.4737 359.0
62.4835 401.0
62.4934 383.0
62.5032 384.0
62.5131 363.0
62.5229 409.0
62.5328 394.0
62.5426 408.0
62.5525 390.0
62.5623 428.0
62.5722 412.0
62.582 396.0
62.5919 408.0
62.6017 381.0
62.6116 385.0
62.6214 382.0
62.6313 405.0
62.6411 410.0
62.651 397.0
62.6608 411.0
62.6706 406.0
62.6805 408.0
62.6903 377.0
62.7002 382.0
62.71 392.0
62.7199 377.0
62.7297 418.0
62.7396 416.0
62.7494 403.0
62.7593 422.0
62.7691 421.0
62.779 414.0
62.7888 408.0
62.7987 439.0
62.8085 437.0
62.8184 439.0
62.8282 433.0
62.8381 464.0
62.8479 468.0
62.8578 436.0
62.8676 467.0
62.8774 449.0
62.8873 468.0
62.8971 423.0
62.907 444.0
62.9168 459.0
62.9267 497.0
62.9365 470.0
62.9464 460.0
62.9562 441.0
62.9661 474.0
62.9759 481.0
62.9858 454.0
62.9956 477.0
63.0055 480.0
63.0153 490.0
63.0252 439.0
63.035 518.0
63.0449 533.0
63.0547 529.0
63.0646 502.0
63.0744 514.0
63.0843 531.0
63.0941 494.0
63.1039 494.0
63.1138 546.0
63.1236 579.0
63.1335 537.0
63.1433 538.0
63.1532 544.0
63.163 584.0
63.1729 539.0
63.1827 572.0
63.1926 537.0
63.2024 561.0
63.2123 606.0
63.2221 565.0
63.232 579.0
63.2418 579.0
63.2517 561.0
63.2615 598.0
63.2714 554.0
63.2812 586.0
63.2911 599.0
63.3009 657.0
63.3107 668.0
63.3206 651.0
63.3304 644.0
63.3403 648.0
63.3501 631.0
63.36 687.0
63.3698 682.0
63.3797 702.0
63.3895 706.0
63.3994 720.0
63.4092 685.0
63.4191 727.0
63.4289 793.0
63.4388 768.0
63.4486 761.0
63.4585 782.0
63.4683 826.0
63.4782 806.0
63.488 851.0
63.4979 831.0
63.5077 832.0
63.5175 904.0
63.5274 876.0
63.5372 903.0
63.5471 924.0
63.5569 947.0
63.5668 989.0
63.5766 1011.0
63.5865 1054.0
63.5963 1038.0
63.6062 1029.0
63.616 1066.0
63.6259 1099.0
63.6357 1108.0
63.6456 1170.0
63.6554 1255.0
63.6653 1203.0
63.6751 1359.0
63.685 1351.0
63.6948 1311.0
63.7047 1438.0
63.7145 1463.0
63.7244 1580.0
63.7342 1559.0
63.744 1549.0
63.7539 1693.0
63.7637 1767.0
63.7736 1783.0
63.7834 1913.0
63.7933 1958.0
63.8031 2077.0
63.813 2067.0
63.8228 2248.0
63.8327 2307.0
63.8425 2390.0
63.8524 2496.0
63.8622 2694.0
63.8721 2727.0
63.8819 2888.0
63.8918 3048.0
63.9016 3072.0
63.9115 3425.0
63.9213 3497.0
63.9312 3576.0
63.941 3783.0
63.9508 4026.0
63.9607 4321.0
63.9705 4429.0
63.9804 4686.0
63.9902 4974.0
64.0001 5269.0
64.0099 5505.0
64.0198 5846.0
64.0296 6205.0
64.0395 6371.0
64.0493 6932.0
64.0592 7169.0
64.069 7627.0
64.0789 7978.0
64.0887 8493.0
64.0986 9181.0
64.1084 9502.0
64.1183 9932.0
64.1281 10513.0
64.138 10890.0
64.1478 11530.0
64.1577 12077.0
64.1675 13028.0
64.1773 13332.0
64.1872 14015.0
64.197 14582.0
64.2069 15236.0
64.2167 15850.0
64.2266 16499.0
64.2364 17065.0
64.2463 17767.0
64.2561 18124.0
64.266 18815.0
64.2758 19525.0
64.2857 19919.0
64.2955 20525.0
64.3054 21066.0
64.3152 21356.0
64.3251 21758.0
64.3349 22330.0
64.3448 23014.0
64.3546 22985.0
64.3645 23692.0
64.3743 23807.0
64.3841 24155.0
64.394 23965.0
64.4038 24318.0
64.4137 24305.0
64.4235 24160.0
64.4334 24220.0
64.4432 23683.0
64.4531 23357.0
64.4629 22998.0
64.4728 22513.0
64.4826 22246.0
64.4925 21256.0
64.5023 20568.0
64.5122 20326.0
64.522 19608.0
64.5319 18897.0
64.5417 18379.0
64.5516 18090.0
64.5614 17525.0
64.5713 17099.0
64.5811 16565.0
64.591 15914.0
64.6008 15498.0
64.6106 14936.0
64.6205 14395.0
64.6303 13764.0
64.6402 13175.0
64.65 12569.0
64.6599 11953.0
64.6697 11390.0
64.6796 10906.0
64.6894 10402.0
64.6993 9883.0
64.7091 9332.0
64.719 8712.0
64.7288 8375.0
64.7387 7982.0
64.7485 7713.0
64.7584 7366.0
64.7682 6887.0
64.7781 6594.0
64.7879 6371.0
64.7978 6169.0
64.8076 5838.0
64.8174 5684.0
64.8273 5559.0
64.8371 5284.0
64.847 5383.0
64.8568 5161.0
64.8667 5214.0
64.8765 5309.0
64.8864 5479.0
64.8962 5764.0
64.9061 6281.0
64.9159 6847.0
64.9258 7253.0
64.9356 7319.0
64.9455 7382.0
64.9553 7044.0
64.9652 6376.0
64.975 5854.0
64.9849 5081.0
64.9947 4517.0
65.0046 4119.0
65.0144 3654.0
65.0242 3368.0
65.0341 3119.0
65.0439 3047.0
65.0538 2681.0
65.0636 2745.0
65.0735 2390.0
65.0833 2395.0
65.0932 2342.0
65.103 2216.0
65.1129 2281.0
65.1227 2031.0
65.1326 1969.0
65.1424 1877.0
65.1523 1870.0
65.1621 1849.0
65.172 1813.0
65.1818 1765.0
65.1917 1673.0
65.2015 1645.0
65.2114 1611.0
65.2212 1609.0
65.2311 1472.0
65.2409 1488.0
65.2507 1438.0
65.2606 1412.0
65.2704 1393.0
65.2803 1434.0
65.2901 1322.0
65.3 1331.0
65.3098 1299.0
65.3197 1267.0
65.3295 1265.0
65.3394 1207.0
65.3492 1221.0
65.3591 1157.0
65.3689 1190.0
65.3788 1100.0
65.3886 1176.0
65.3985 1191.0
65.4083 1123.0
65.4182 1237.0
65.428 1194.0
65.4379 1290.0
65.4477 1363.0
65.4575 1481.0
65.4674 1603.0
65.4772 1730.0
65.4871 1792.0
65.4969 1726.0
65.5068 1555.0
65.5166 1450.0
65.5265 1349.0
65.5363 1251.0
65.5462 1187.0
65.556 1046.0
65.5659 1013.0
65.5757 971.0
65.5856 861.0
65.5954 883.0
65.6053 846.0
65.6151 844.0
65.625 823.0
65.6348 834.0
65.6447 756.0
65.6545 793.0
65.6644 775.0
65.6742 719.0
65.684 734.0
65.6939 741.0
65.7037 762.0
65.7136 778.0
65.7234 764.0
65.7333 750.0
65.7431 777.0
65.753 664.0
65.7628 711.0
65.7727 744.0
65.7825 714.0
65.7924 706.0
65.8022 728.0
65.8121 693.0
65.8219 667.0
65.8318 707.0
65.8416 645.0
65.8515 650.0
65.8613 657.0
65.8712 743.0
65.881 663.0
65.8908 691.0
65.9007 652.0
65.9105 668.0
65.9204 658.0
65.9302 641.0
65.9401 675.0
65.9499 663.0
65.9598 686.0
65.9696 661.0
65.9795 627.0
65.9893 648.0
65.9992 667.0
66.009 648.0
66.0189 639.0
66.0287 688.0
66.0386 665.0
66.0484 617.0
66.0583 654.0
66.0681 658.0
66.078 636.0
66.0878 612.0
66.0977 659.0
66.1075 689.0
66.1173 654.0
66.1272 754.0
66.137 764.0
66.1469 748.0
66.1567 703.0
66.1666 690.0
66.1764 679.0
66.1863 680.0
66.1961 688.0
66.206 681.0
66.2158 623.0
66.2257 609.0
66.2355 637.0
66.2454 708.0
66.2552 658.0
66.2651 675.0
66.2749 648.0
66.2848 688.0
66.2946 674.0
66.3045 688.0
66.3143 691.0
66.3241 636.0
66.334 672.0
66.3438 665.0
66.3537 629.0
66.3635 661.0
66.3734 676.0
66.3832 694.0
66.3931 681.0
66.4029 729.0
66.4128 699.0
66.4226 700.0
66.4325 672.0
66.4423 713.0
66.4522 728.0
66.462 703.0
66.4719 739.0
66.4817 707.0
66.4916 711.0
66.5014 724.0
66.5113 723.0
66.5211 749.0
66.5309 712.0
66.5408 750.0
66.5506 701.0
66.5605 736.0
66.5703 757.0
66.5802 694.0
66.59 749.0
66.5999 770.0
66.6097 770.0
66.6196 780.0
66.6294 781.0
66.6393 782.0
66.6491 840.0
66.659 764.0
66.6688 821.0
66.6787 756.0
66.6885 767.0
66.6984 817.0
66.7082 797.0
66.7181 854.0
66.7279 781.0
66.7378 797.0
66.7476 797.0
66.7574 832.0
66.7673 826.0
66.7771 852.0
66.787 838.0
66.7968 829.0
66.8067 854.0
66.8165 835.0
66.8264 861.0
66.8362 900.0
66.8461 910.0
66.8559 844.0
66.8658 867.0
66.8756 900.0
66.8855 894.0
66.8953 936.0
66.9052 912.0
66.915 935.0
66.9249 935.0
66.9347 908.0
66.9446 938.0
66.9544 947.0
66.9642 943.0
66.9741 926.0
66.9839 937.0
66.9938 959.0
67.0036 984.0
67.0135 956.0
67.0233 1037.0
67.0332 987.0
67.043 1015.0
67.0529 971.0
67.0627 1012.0
67.0726 1040.0
67.0824 1077.0
67.0923 1064.0
67.1021 1069.0
67.112 1055.0
67.1218 1055.0
67.1317 1134.0
67.1415 1094.0
67.1514 1124.0
67.1612 1109.0
67.1711 1141.0
67.1809 1138.0
67.1907 1186.0
67.2006 1149.0
67.2104 1225.0
67.2203 1179.0
67.2301 1168.0
67.24 1167.0
67.2498 1192.0
67.2597 1243.0
67.2695 1212.0
67.2794 1249.0
67.2892 1324.0
67.2991 1317.0
67.3089 1336.0
67.3188 1322.0
67.3286 1329.0
67.3385 1381.0
67.3483 1390.0
67.3582 1406.0
67.368 1411.0
67.3779 1502.0
67.3877 1487.0
67.3975 1472.0
67.4074 1483.0
67.4172 1542.0
67.4271 1528.0
67.4369 1558.0
67.4468 1570.0
67.4566 1624.0
67.4665 1645.0
67.4763 1627.0
67.4862 1678.0
67.496 1738.0
67.5059 1753.0
67.5157 1768.0
67.5256 1785.0
67.5354 1827.0
67.5453 1897.0
67.5551 1914.0
67.565 1903.0
67.5748 1890.0
67.5847 1966.0
67.5945 2071.0
67.6044 2112.0
67.6142 2150.0
67.624 2193.0
67.6339 2249.0
67.6437 2422.0
67.6536 2385.0
67.6634 2532.0
67.6733 2700.0
67.6831 2704.0
67.693 2815.0
67.7028 2997.0
67.7127 3353.0
67.7225 3647.0
67.7324 3824.0
67.7422 4181.0
67.7521 4692.0
67.7619 4991.0
67.7718 5530.0
67.7816 5794.0
67.7915 6117.0
67.8013 6466.0
67.8112 6656.0
67.821 6956.0
67.8308 6800.0
67.8407 7099.0
67.8505 6891.0
67.8604 6802.0
67.8702 6834.0
67.8801 6685.0
67.8899 6649.0
67.8998 6770.0
67.9096 6771.0
67.9195 7087.0
67.9293 7397.0
67.9392 7779.0
67.949 8422.0
67.9589 9071.0
67.9687 9791.0
67.9786 10604.0
67.9884 11845.0
67.9983 13175.0
68.0081 15040.0
68.018 17418.0
68.0278 20235.0
68.0376 23754.0
68.0475 28534.0
68.0573 36311.0
68.0672 46866.0
68.077 63911.0
68.0869 93235.0
68.0967 150860.0
68.1066 272927.0
68.1164 452213.0
68.1263 585021.0
68.1361 652358.0
68.146 669513.0
68.1558 626376.0
68.1657 495457.0
68.1755 315110.0
68.1854 192426.0
68.1952 124878.0
68.2051 84397.0
68.2149 61832.0
68.2248 48600.0
68.2346 41734.0
68.2445 39022.0
68.2543 39408.0
68.2641 44071.0
68.274 53827.0
68.2838 74647.0
68.2937 114135.0
68.3035 183991.0
68.3134 258791.0
68.3232 312138.0
68.3331 335291.0
68.3429 330932.0
68.3528 292185.0
68.3626 219023.0
68.3725 144776.0
68.3823 92754.0
68.3922 60159.0
68.402 42153.0
68.4119 31538.0
68.4217 24271.0
68.4316 19555.0
68.4414 16545.0
68.4513 14335.0
68.4611 12762.0
68.4709 11687.0
68.4808 10620.0
68.4906 9767.0
68.5005 8914.0
68.5103 8534.0
68.5202 7688.0
68.53 7213.0
68.5399 7100.0
68.5497 6710.0
68.5596 6196.0
68.5694 5866.0
68.5793 5756.0
68.5891 5558.0
68.599 5136.0
68.6088 4921.0
68.6187 4748.0
68.6285 4628.0
68.6384 4528.0
68.6482 4251.0
68.6581 4011.0
68.6679 4085.0
68.6778 4067.0
68.6876 3874.0
68.6974 3710.0
68.7073 3630.0
68.7171 3465.0
68.727 3364.0
68.7368 3248.0
68.7467 3253.0
68.7565 3089.0
68.7664 3136.0
68.7762 3136.0
68.7861 2876.0
68.7959 2823.0
68.8058 2831.0
68.8156 2730.0
68.8255 2670.0
68.8353 2611.0
68.8452 2562.0
68.855 2598.0
68.8649 2506.0
68.8747 2471.0
68.8846 2335.0
68.8944 2227.0
68.9042 2311.0
68.9141 2304.0
68.9239 2190.0
68.9338 2263.0
68.9436 2218.0
68.9535 2126.0
68.9633 2132.0
68.9732 2091.0
68.983 2003.0
68.9929 2034.0
69.0027 1963.0
69.0126 2005.0
69.0224 1969.0
69.0323 1918.0
69.0421 1884.0
69.052 1884.0
69.0618 1802.0
69.0717 1835.0
69.0815 1806.0
69.0914 1770.0
69.1012 1727.0
69.1111 1696.0
69.1209 1716.0
69.1307 1674.0
69.1406 1638.0
69.1504 1641.0
69.1603 1687.0
69.1701 1546.0
69.18 1567.0
69.1898 1538.0
69.1997 1524.0
69.2095 1472.0
69.2194 1496.0
69.2292 1472.0
69.2391 1484.0
69.2489 1500.0
69.2588 1449.0
69.2686 1412.0
69.2785 1374.0
69.2883 1359.0
69.2982 1292.0
69.308 1280.0
69.3179 1314.0
69.3277 1385.0
69.3375 1282.0
69.3474 1257.0
69.3572 1292.0
69.3671 1218.0
69.3769 1316.0
69.3868 1218.0
69.3966 1240.0
69.4065 1220.0
69.4163 1111.0
69.4262 1151.0
69.436 1119.0
69.4459 1099.0
69.4557 1110.0
69.4656 1125.0
69.4754 1088.0
69.4853 1062.0
69.4951 1081.0
69.505 1075.0
69.5148 1009.0
69.5247 996.0
69.5345 1011.0
69.5443 996.0
69.5542 1072.0
69.564 991.0
69.5739 989.0
69.5837 965.0
69.5936 981.0
69.6034 987.0
69.6133 985.0
69.6231 929.0
69.633 919.0
69.6428 923.0
69.6527 884.0
69.6625 925.0
69.6724 870.0
69.6822 906.0
69.6921 865.0
69.7019 907.0
69.7118 868.0
69.7216 860.0
69.7315 886.0
69.7413 818.0
69.7512 868.0
69.761 847.0
69.7708 831.0
69.7807 810.0
69.7905 813.0
69.8004 801.0
69.8102 757.0
69.8201 812.0
69.8299 705.0
69.8398 733.0
69.8496 745.0
69.8595 777.0
69.8693 791.0
69.8792 736.0
69.889 695.0
69.8989 756.0
69.9087 724.0
69.9186 749.0
69.9284 735.0
69.9383 749.0
69.9481 652.0
69.958 692.0
69.9678 760.0
69.9776 692.0
69.9875 642.0
69.9973 652.0
70.0072 650.0
70.017 631.0
70.0269 680.0
70.0367 671.0
70.0466 672.0
70.0564 630.0
70.0663 661.0
70.0761 610.0
70.086 614.0
70.0958 634.0
70.1057 655.0
70.1155 677.0
70.1254 628.0
70.1352 620.0
70.1451 651.0
70.1549 550.0
70.1648 644.0
70.1746 587.0
70.1845 599.0
70.1943 609.0
70.2041 600.0
70.214 584.0
70.2238 590.0
70.2337 559.0
70.2435 569.0
70.2534 577.0
70.2632 586.0
70.2731 537.0
70.2829 555.0
70.2928 521.0
70.3026 583.0
70.3125 536.0
70.3223 564.0
70.3322 547.0
70.342 579.0
70.3519 529.0
70.3617 538.0
70.3716 550.0
70.3814 523.0
70.3913 555.0
70.4011 512.0
70.4109 534.0
70.4208 493.0
70.4306 508.0
70.4405 521.0
70.4503 487.0
70.4602 468.0
70.47 492.0
70.4799 495.0
70.4897 499.0
70.4996 501.0
70.5094 481.0
70.5193 474.0
70.5291 472.0
70.539 494.0
70.5488 484.0
70.5587 480.0
70.5685 483.0
70.5784 462.0
70.5882 487.0
70.5981 461.0
70.6079 434.0
70.6178 458.0
70.6276 485.0
70.6374 436.0
70.6473 463.0
70.6571 481.0
70.667 464.0
70.6768 446.0
70.6867 476.0
70.6965 464.0
70.7064 434.0
70.7162 467.0
70.7261 444.0
70.7359 407.0
70.7458 440.0
70.7556 428.0
70.7655 479.0
70.7753 434.0
70.7852 447.0
70.795 429.0
70.8049 478.0
70.8147 480.0
70.8246 418.0
70.8344 420.0
70.8442 433.0
70.8541 431.0
70.8639 448.0
70.8738 411.0
70.8836 440.0
70.8935 459.0
70.9033 411.0
70.9132 404.0
70.923 418.0
70.9329 369.0
70.9427 410.0
70.9526 425.0
70.9624 390.0
70.9723 423.0
70.9821 441.0
70.992 439.0
71.0018 420.0
71.0117 392.0
71.0215 389.0
71.0314 398.0
71.0412 416.0
71.051 382.0
71.0609 409.0
71.0707 393.0
71.0806 438.0
71.0904 401.0
71.1003 405.0
71.1101 414.0
71.12 371.0
71.1298 407.0
71.1397 386.0
71.1495 393.0
71.1594 394.0
71.1692 354.0
71.1791 381.0
71.1889 359.0
71.1988 413.0
71.2086 385.0
71.2185 406.0
71.2283 348.0
71.2382 356.0
71.248 371.0
71.2579 389.0
71.2677 336.0
71.2775 350.0
71.2874 430.0
71.2972 389.0
71.3071 382.0
71.3169 369.0
71.3268 403.0
71.3366 364.0
71.3465 354.0
71.3563 408.0
71.3662 393.0
71.376 356.0
71.3859 379.0
71.3957 381.0
71.4056 363.0
71.4154 353.0
71.4253 367.0
71.4351 366.0
71.445 349.0
71.4548 378.0
71.4647 363.0
71.4745 404.0
71.4843 387.0
71.4942 380.0
71.504 316.0
71.5139 362.0
71.5237 376.0
71.5336 347.0
71.5434 339.0
71.5533 361.0
71.5631 345.0
71.573 374.0
71.5828 374.0
71.5927 356.0
71.6025 351.0
71.6124 350.0
71.6222 353.0
71.6321 353.0
71.6419 357.0
71.6518 350.0
71.6616 358.0
71.6715 380.0
71.6813 361.0
71.6912 332.0
71.701 377.0
71.7108 327.0
71.7207 313.0
71.7305 323.0
71.7404 335.0
71.7502 346.0
71.7601 324.0
71.7699 334.0
71.7798 356.0
71.7896 343.0
71.7995 348.0
71.8093 375.0
71.8192 317.0
71.829 314.0
71.8389 333.0
71.8487 341.0
71.8586 343.0
71.8684 324.0
71.8783 311.0
71.8881 332.0
71.898 355.0
71.9078 348.0
71.9176 384.0
71.9275 373.0
71.9373 343.0
71.9472 341.0
71.957 348.0
71.9669 304.0
71.9767 342.0
71.9866 344.0
71.9964 341.0
71.9989 325.0