File: data/W6815r2/XRD_2ThetaOmega/W6815r2_absolute_2th-om_10-130deg_PIXscan_17min_6.xy
10.0035 20.0
10.0872 27.0
10.1709 20.0
10.2546 21.0
10.3383 28.0
10.422 27.0
10.5057 27.0
10.5894 19.0
10.6731 14.0
10.7568 26.0
10.8405 25.0
10.9242 24.0
11.0079 24.0
11.0916 32.0
11.1753 34.0
11.259 26.0
11.3428 19.0
11.4265 24.0
11.5102 26.0
11.5939 29.0
11.6776 24.0
11.7613 24.0
11.845 16.0
11.9287 33.0
12.0124 17.0
12.0961 21.0
12.1798 17.0
12.2635 23.0
12.3472 21.0
12.4309 21.0
12.5146 27.0
12.5983 15.0
12.682 21.0
12.7657 16.0
12.8495 20.0
12.9332 14.0
13.0169 20.0
13.1006 16.0
13.1843 24.0
13.268 20.0
13.3517 13.0
13.4354 17.0
13.5191 14.0
13.6028 16.0
13.6865 24.0
13.7702 15.0
13.8539 15.0
13.9376 16.0
14.0213 14.0
14.105 18.0
14.1887 13.0
14.2724 15.0
14.3562 11.0
14.4399 19.0
14.5236 10.0
14.6073 20.0
14.691 21.0
14.7747 14.0
14.8584 24.0
14.9421 25.0
15.0258 10.0
15.1095 21.0
15.1932 15.0
15.2769 13.0
15.3606 11.0
15.4443 17.0
15.528 15.0
15.6117 13.0
15.6954 16.0
15.7791 23.0
15.8629 21.0
15.9466 16.0
16.0303 17.0
16.114 18.0
16.1977 15.0
16.2814 16.0
16.3651 13.0
16.4488 15.0
16.5325 9.0
16.6162 21.0
16.6999 10.0
16.7836 17.0
16.8673 15.0
16.951 9.0
17.0347 10.0
17.1184 17.0
17.2021 17.0
17.2858 12.0
17.3696 11.0
17.4533 13.0
17.537 15.0
17.6207 9.0
17.7044 9.0
17.7881 12.0
17.8718 8.0
17.9555 9.0
18.0392 15.0
18.1229 10.0
18.2066 16.0
18.2903 12.0
18.374 14.0
18.4577 10.0
18.5414 19.0
18.6251 15.0
18.7088 11.0
18.7925 7.0
18.8763 13.0
18.96 15.0
19.0437 12.0
19.1274 4.0
19.2111 15.0
19.2948 16.0
19.3785 12.0
19.4622 10.0
19.5459 7.0
19.6296 12.0
19.7133 6.0
19.797 16.0
19.8807 9.0
19.9644 16.0
20.0481 7.0
20.1318 15.0
20.2155 9.0
20.2992 13.0
20.383 6.0
20.4667 14.0
20.5504 13.0
20.6341 11.0
20.7178 11.0
20.8015 10.0
20.8852 6.0
20.9689 9.0
21.0526 12.0
21.1363 12.0
21.22 14.0
21.3037 9.0
21.3874 11.0
21.4711 9.0
21.5548 13.0
21.6385 13.0
21.7222 10.0
21.8059 8.0
21.8897 18.0
21.9734 14.0
22.0571 7.0
22.1408 10.0
22.2245 10.0
22.3082 6.0
22.3919 14.0
22.4756 15.0
22.5593 10.0
22.643 10.0
22.7267 11.0
22.8104 25.0
22.8941 14.0
22.9778 43.0
23.0615 16.0
23.1452 14.0
23.2289 14.0
23.3126 18.0
23.3964 14.0
23.4801 20.0
23.5638 16.0
23.6475 22.0
23.7312 18.0
23.8149 32.0
23.8986 30.0
23.9823 53.0
24.066 92.0
24.1497 179.0
24.2334 362.0
24.3171 498.0
24.4008 479.0
24.4845 145.0
24.5682 80.0
24.6519 59.0
24.7356 44.0
24.8193 51.0
24.9031 42.0
24.9868 57.0
25.0705 70.0
25.1542 74.0
25.2379 125.0
25.3216 213.0
25.4053 797.0
25.489 42225.0
25.5727 24413.0
25.6564 750.0
25.7401 350.0
25.8238 282.0
25.9075 210.0
25.9912 145.0
26.0749 109.0
26.1586 76.0
26.2423 70.0
26.326 45.0
26.4098 37.0
26.4935 45.0
26.5772 27.0
26.6609 21.0
26.7446 20.0
26.8283 17.0
26.912 18.0
26.9957 23.0
27.0794 18.0
27.1631 19.0
27.2468 12.0
27.3305 9.0
27.4142 13.0
27.4979 21.0
27.5816 18.0
27.6653 13.0
27.749 17.0
27.8327 8.0
27.9165 10.0
28.0002 13.0
28.0839 16.0
28.1676 13.0
28.2513 10.0
28.335 8.0
28.4187 6.0
28.5024 10.0
28.5861 7.0
28.6698 10.0
28.7535 12.0
28.8372 7.0
28.9209 18.0
29.0046 9.0
29.0883 12.0
29.172 18.0
29.2557 7.0
29.3394 14.0
29.4232 16.0
29.5069 14.0
29.5906 13.0
29.6743 10.0
29.758 7.0
29.8417 11.0
29.9254 9.0
30.0091 13.0
30.0928 14.0
30.1765 15.0
30.2602 10.0
30.3439 8.0
30.4276 11.0
30.5113 6.0
30.595 9.0
30.6787 9.0
30.7624 12.0
30.8461 13.0
30.9298 10.0
31.0136 13.0
31.0973 7.0
31.181 3.0
31.2647 4.0
31.3484 10.0
31.4321 14.0
31.5158 8.0
31.5995 9.0
31.6832 10.0
31.7669 13.0
31.8506 11.0
31.9343 11.0
32.018 13.0
32.1017 18.0
32.1854 7.0
32.2691 11.0
32.3528 11.0
32.4365 15.0
32.5203 7.0
32.604 8.0
32.6877 7.0
32.7714 7.0
32.8551 4.0
32.9388 13.0
33.0225 10.0
33.1062 8.0
33.1899 3.0
33.2736 15.0
33.3573 10.0
33.441 9.0
33.5247 6.0
33.6084 6.0
33.6921 8.0
33.7758 6.0
33.8595 6.0
33.9432 7.0
34.027 9.0
34.1107 9.0
34.1944 8.0
34.2781 14.0
34.3618 12.0
34.4455 8.0
34.5292 4.0
34.6129 10.0
34.6966 10.0
34.7803 10.0
34.864 8.0
34.9477 10.0
35.0314 6.0
35.1151 9.0
35.1988 5.0
35.2825 4.0
35.3662 7.0
35.4499 3.0
35.5337 10.0
35.6174 6.0
35.7011 9.0
35.7848 10.0
35.8685 10.0
35.9522 11.0
36.0359 12.0
36.1196 10.0
36.2033 8.0
36.287 5.0
36.3707 7.0
36.4544 11.0
36.5381 8.0
36.6218 7.0
36.7055 14.0
36.7892 10.0
36.8729 11.0
36.9566 5.0
37.0404 4.0
37.1241 7.0
37.2078 7.0
37.2915 9.0
37.3752 5.0
37.4589 7.0
37.5426 11.0
37.6263 4.0
37.71 8.0
37.7937 8.0
37.8774 6.0
37.9611 7.0
38.0448 8.0
38.1285 5.0
38.2122 8.0
38.2959 8.0
38.3796 8.0
38.4633 9.0
38.5471 4.0
38.6308 13.0
38.7145 8.0
38.7982 9.0
38.8819 8.0
38.9656 11.0
39.0493 8.0
39.133 8.0
39.2167 10.0
39.3004 7.0
39.3841 10.0
39.4678 6.0
39.5515 11.0
39.6352 14.0
39.7189 5.0
39.8026 7.0
39.8863 10.0
39.97 13.0
40.0538 9.0
40.1375 10.0
40.2212 11.0
40.3049 10.0
40.3886 7.0
40.4723 7.0
40.556 8.0
40.6397 12.0
40.7234 12.0
40.8071 6.0
40.8908 10.0
40.9745 8.0
41.0582 8.0
41.1419 7.0
41.2256 9.0
41.3093 14.0
41.393 14.0
41.4767 9.0
41.5605 10.0
41.6442 11.0
41.7279 14.0
41.8116 10.0
41.8953 5.0
41.979 14.0
42.0627 7.0
42.1464 7.0
42.2301 13.0
42.3138 7.0
42.3975 7.0
42.4812 12.0
42.5649 10.0
42.6486 5.0
42.7323 10.0
42.816 10.0
42.8997 6.0
42.9834 7.0
43.0672 8.0
43.1509 15.0
43.2346 12.0
43.3183 9.0
43.402 10.0
43.4857 16.0
43.5694 14.0
43.6531 12.0
43.7368 5.0
43.8205 13.0
43.9042 10.0
43.9879 12.0
44.0716 12.0
44.1553 16.0
44.239 12.0
44.3227 22.0
44.4064 15.0
44.4901 32.0
44.5739 19.0
44.6576 12.0
44.7413 9.0
44.825 11.0
44.9087 11.0
44.9924 7.0
45.0761 10.0
45.1598 13.0
45.2435 8.0
45.3272 6.0
45.4109 10.0
45.4946 10.0
45.5783 12.0
45.662 10.0
45.7457 14.0
45.8294 11.0
45.9131 6.0
45.9968 9.0
46.0806 10.0
46.1643 8.0
46.248 9.0
46.3317 12.0
46.4154 11.0
46.4991 6.0
46.5828 6.0
46.6665 13.0
46.7502 14.0
46.8339 20.0
46.9176 11.0
47.0013 13.0
47.085 72.0
47.1687 18.0
47.2524 10.0
47.3361 12.0
47.4198 13.0
47.5035 15.0
47.5873 16.0
47.671 11.0
47.7547 9.0
47.8384 8.0
47.9221 9.0
48.0058 12.0
48.0895 10.0
48.1732 14.0
48.2569 13.0
48.3406 14.0
48.4243 13.0
48.508 23.0
48.5917 17.0
48.6754 14.0
48.7591 23.0
48.8428 16.0
48.9265 12.0
49.0102 13.0
49.094 14.0
49.1777 22.0
49.2614 9.0
49.3451 23.0
49.4288 25.0
49.5125 35.0
49.5962 48.0
49.6799 48.0
49.7636 88.0
49.8473 144.0
49.931 203.0
50.0147 162.0
50.0984 185.0
50.1821 176.0
50.2658 43.0
50.3495 28.0
50.4332 28.0
50.5169 39.0
50.6007 32.0
50.6844 22.0
50.7681 23.0
50.8518 21.0
50.9355 12.0
51.0192 23.0
51.1029 18.0
51.1866 13.0
51.2703 43.0
51.354 36.0
51.4377 31.0
51.5214 33.0
51.6051 43.0
51.6888 38.0
51.7725 40.0
51.8562 57.0
51.9399 57.0
52.0236 78.0
52.1074 108.0
52.1911 274.0
52.2748 431.0
52.3585 734.0
52.4422 10300.0
52.5259 8313.0
52.6096 20096.0
52.6933 1511.0
52.777 456.0
52.8607 287.0
52.9444 173.0
53.0281 155.0
53.1118 122.0
53.1955 117.0
53.2792 107.0
53.3629 96.0
53.4466 82.0
53.5303 65.0
53.6141 62.0
53.6978 70.0
53.7815 60.0
53.8652 43.0
53.9489 36.0
54.0326 45.0
54.1163 30.0
54.2 35.0
54.2837 28.0
54.3674 27.0
54.4511 18.0
54.5348 21.0
54.6185 35.0
54.7022 18.0
54.7859 24.0
54.8696 19.0
54.9533 17.0
55.037 12.0
55.1208 17.0
55.2045 25.0
55.2882 18.0
55.3719 22.0
55.4556 20.0
55.5393 12.0
55.623 15.0
55.7067 17.0
55.7904 15.0
55.8741 14.0
55.9578 9.0
56.0415 16.0
56.1252 12.0
56.2089 15.0
56.2926 16.0
56.3763 14.0
56.46 14.0
56.5437 18.0
56.6275 11.0
56.7112 14.0
56.7949 12.0
56.8786 16.0
56.9623 17.0
57.046 15.0
57.1297 8.0
57.2134 13.0
57.2971 9.0
57.3808 8.0
57.4645 14.0
57.5482 18.0
57.6319 15.0
57.7156 9.0
57.7993 13.0
57.883 9.0
57.9667 14.0
58.0504 15.0
58.1342 11.0
58.2179 19.0
58.3016 19.0
58.3853 11.0
58.469 11.0
58.5527 12.0
58.6364 15.0
58.7201 10.0
58.8038 9.0
58.8875 15.0
58.9712 10.0
59.0549 14.0
59.1386 11.0
59.2223 14.0
59.306 5.0
59.3897 11.0
59.4734 13.0
59.5571 5.0
59.6409 11.0
59.7246 14.0
59.8083 10.0
59.892 11.0
59.9757 11.0
60.0594 11.0
60.1431 10.0
60.2268 8.0
60.3105 7.0
60.3942 13.0
60.4779 13.0
60.5616 8.0
60.6453 12.0
60.729 6.0
60.8127 12.0
60.8964 11.0
60.9801 7.0
61.0638 15.0
61.1476 5.0
61.2313 13.0
61.315 12.0
61.3987 15.0
61.4824 13.0
61.5661 17.0
61.6498 14.0
61.7335 16.0
61.8172 14.0
61.9009 8.0
61.9846 11.0
62.0683 11.0
62.152 7.0
62.2357 11.0
62.3194 15.0
62.4031 14.0
62.4868 16.0
62.5705 10.0
62.6543 7.0
62.738 13.0
62.8217 16.0
62.9054 11.0
62.9891 7.0
63.0728 8.0
63.1565 11.0
63.2402 14.0
63.3239 14.0
63.4076 11.0
63.4913 16.0
63.575 12.0
63.6587 12.0
63.7424 16.0
63.8261 16.0
63.9098 12.0
63.9935 17.0
64.0772 10.0
64.161 17.0
64.2447 9.0
64.3284 11.0
64.4121 6.0
64.4958 10.0
64.5795 20.0
64.6632 17.0
64.7469 10.0
64.8306 5.0
64.9143 11.0
64.998 8.0
65.0817 14.0
65.1654 14.0
65.2491 7.0
65.3328 4.0
65.4165 6.0
65.5002 7.0
65.5839 18.0
65.6677 8.0
65.7514 5.0
65.8351 11.0
65.9188 10.0
66.0025 11.0
66.0862 11.0
66.1699 7.0
66.2536 10.0
66.3373 8.0
66.421 10.0
66.5047 12.0
66.5884 6.0
66.6721 14.0
66.7558 10.0
66.8395 12.0
66.9232 11.0
67.0069 13.0
67.0906 9.0
67.1744 15.0
67.2581 10.0
67.3418 13.0
67.4255 11.0
67.5092 7.0
67.5929 13.0
67.6766 10.0
67.7603 9.0
67.844 12.0
67.9277 8.0
68.0114 9.0
68.0951 10.0
68.1788 8.0
68.2625 8.0
68.3462 12.0
68.4299 13.0
68.5136 8.0
68.5973 14.0
68.6811 12.0
68.7648 13.0
68.8485 12.0
68.9322 6.0
69.0159 7.0
69.0996 13.0
69.1833 14.0
69.267 17.0
69.3507 13.0
69.4344 13.0
69.5181 9.0
69.6018 12.0
69.6855 7.0
69.7692 11.0
69.8529 11.0
69.9366 10.0
70.0203 13.0
70.104 10.0
70.1878 11.0
70.2715 12.0
70.3552 17.0
70.4389 17.0
70.5226 13.0
70.6063 7.0
70.69 18.0
70.7737 9.0
70.8574 11.0
70.9411 16.0
71.0248 12.0
71.1085 11.0
71.1922 9.0
71.2759 12.0
71.3596 8.0
71.4433 7.0
71.527 11.0
71.6107 11.0
71.6945 8.0
71.7782 11.0
71.8619 11.0
71.9456 13.0
72.0293 9.0
72.113 12.0
72.1967 4.0
72.2804 12.0
72.3641 6.0
72.4478 11.0
72.5315 11.0
72.6152 18.0
72.6989 13.0
72.7826 11.0
72.8663 8.0
72.95 12.0
73.0337 13.0
73.1174 8.0
73.2012 7.0
73.2849 9.0
73.3686 15.0
73.4523 7.0
73.536 11.0
73.6197 15.0
73.7034 18.0
73.7871 11.0
73.8708 14.0
73.9545 10.0
74.0382 8.0
74.1219 5.0
74.2056 12.0
74.2893 10.0
74.373 12.0
74.4567 14.0
74.5404 11.0
74.6241 9.0
74.7079 10.0
74.7916 10.0
74.8753 12.0
74.959 7.0
75.0427 16.0
75.1264 12.0
75.2101 11.0
75.2938 10.0
75.3775 6.0
75.4612 13.0
75.5449 10.0
75.6286 15.0
75.7123 7.0
75.796 18.0
75.8797 10.0
75.9634 10.0
76.0471 10.0
76.1308 16.0
76.2146 13.0
76.2983 9.0
76.382 16.0
76.4657 7.0
76.5494 4.0
76.6331 13.0
76.7168 12.0
76.8005 11.0
76.8842 18.0
76.9679 5.0
77.0516 10.0
77.1353 5.0
77.219 7.0
77.3027 14.0
77.3864 13.0
77.4701 12.0
77.5538 9.0
77.6375 10.0
77.7213 6.0
77.805 10.0
77.8887 14.0
77.9724 13.0
78.0561 16.0
78.1398 15.0
78.2235 16.0
78.3072 9.0
78.3909 14.0
78.4746 22.0
78.5583 17.0
78.642 17.0
78.7257 14.0
78.8094 17.0
78.8931 15.0
78.9768 20.0
79.0605 19.0
79.1442 12.0
79.228 21.0
79.3117 11.0
79.3954 18.0
79.4791 13.0
79.5628 7.0
79.6465 17.0
79.7302 16.0
79.8139 12.0
79.8976 14.0
79.9813 10.0
80.065 11.0
80.1487 19.0
80.2324 9.0
80.3161 8.0
80.3998 19.0
80.4835 14.0
80.5672 14.0
80.6509 8.0
80.7347 14.0
80.8184 9.0
80.9021 13.0
80.9858 9.0
81.0695 8.0
81.1532 12.0
81.2369 11.0
81.3206 13.0
81.4043 9.0
81.488 9.0
81.5717 11.0
81.6554 9.0
81.7391 15.0
81.8228 13.0
81.9065 11.0
81.9902 12.0
82.0739 14.0
82.1576 14.0
82.2414 14.0
82.3251 20.0
82.4088 21.0
82.4925 18.0
82.5762 13.0
82.6599 18.0
82.7436 20.0
82.8273 25.0
82.911 21.0
82.9947 34.0
83.0784 133.0
83.1621 1810.0
83.2458 147.0
83.3295 89.0
83.4132 911.0
83.4969 110.0
83.5806 43.0
83.6643 27.0
83.7481 17.0
83.8318 25.0
83.9155 19.0
83.9992 14.0
84.0829 17.0
84.1666 18.0
84.2503 15.0
84.334 11.0
84.4177 17.0
84.5014 10.0
84.5851 7.0
84.6688 13.0
84.7525 10.0
84.8362 12.0
84.9199 17.0
85.0036 12.0
85.0873 6.0
85.171 9.0
85.2548 15.0
85.3385 12.0
85.4222 12.0
85.5059 10.0
85.5896 7.0
85.6733 7.0
85.757 11.0
85.8407 13.0
85.9244 13.0
86.0081 11.0
86.0918 7.0
86.1755 10.0
86.2592 17.0
86.3429 19.0
86.4266 12.0
86.5103 13.0
86.594 12.0
86.6777 10.0
86.7615 11.0
86.8452 13.0
86.9289 14.0
87.0126 12.0
87.0963 11.0
87.18 9.0
87.2637 9.0
87.3474 12.0
87.4311 9.0
87.5148 8.0
87.5985 9.0
87.6822 12.0
87.7659 11.0
87.8496 15.0
87.9333 13.0
88.017 13.0
88.1007 11.0
88.1844 18.0
88.2682 15.0
88.3519 10.0
88.4356 16.0
88.5193 5.0
88.603 8.0
88.6867 6.0
88.7704 12.0
88.8541 9.0
88.9378 12.0
89.0215 16.0
89.1052 15.0
89.1889 18.0
89.2726 8.0
89.3563 9.0
89.44 10.0
89.5237 12.0
89.6074 7.0
89.6911 15.0
89.7749 17.0
89.8586 7.0
89.9423 8.0
90.026 9.0
90.1097 11.0
90.1934 10.0
90.2771 13.0
90.3608 13.0
90.4445 7.0
90.5282 16.0
90.6119 11.0
90.6956 10.0
90.7793 5.0
90.863 14.0
90.9467 9.0
91.0304 5.0
91.1141 12.0
91.1978 5.0
91.2816 16.0
91.3653 7.0
91.449 13.0
91.5327 14.0
91.6164 13.0
91.7001 8.0
91.7838 9.0
91.8675 13.0
91.9512 24.0
92.0349 14.0
92.1186 13.0
92.2023 13.0
92.286 3.0
92.3697 12.0
92.4534 7.0
92.5371 15.0
92.6208 6.0
92.7045 14.0
92.7883 9.0
92.872 13.0
92.9557 17.0
93.0394 17.0
93.1231 14.0
93.2068 16.0
93.2905 14.0
93.3742 11.0
93.4579 17.0
93.5416 5.0
93.6253 10.0
93.709 9.0
93.7927 11.0
93.8764 16.0
93.9601 12.0
94.0438 8.0
94.1275 10.0
94.2112 15.0
94.295 6.0
94.3787 14.0
94.4624 16.0
94.5461 6.0
94.6298 15.0
94.7135 13.0
94.7972 16.0
94.8809 12.0
94.9646 11.0
95.0483 20.0
95.132 12.0
95.2157 14.0
95.2994 7.0
95.3831 9.0
95.4668 15.0
95.5505 12.0
95.6342 21.0
95.7179 12.0
95.8017 14.0
95.8854 11.0
95.9691 14.0
96.0528 11.0
96.1365 14.0
96.2202 10.0
96.3039 11.0
96.3876 8.0
96.4713 12.0
96.555 9.0
96.6387 11.0
96.7224 17.0
96.8061 8.0
96.8898 10.0
96.9735 11.0
97.0572 6.0
97.1409 14.0
97.2246 13.0
97.3084 16.0
97.3921 15.0
97.4758 14.0
97.5595 9.0
97.6432 20.0
97.7269 16.0
97.8106 12.0
97.8943 9.0
97.978 16.0
98.0617 13.0
98.1454 7.0
98.2291 17.0
98.3128 10.0
98.3965 11.0
98.4802 13.0
98.5639 15.0
98.6476 11.0
98.7313 13.0
98.8151 9.0
98.8988 12.0
98.9825 13.0
99.0662 8.0
99.1499 18.0
99.2336 12.0
99.3173 19.0
99.401 10.0
99.4847 12.0
99.5684 13.0
99.6521 12.0
99.7358 13.0
99.8195 17.0
99.9032 17.0
99.9869 14.0
100.071 10.0
100.154 7.0
100.238 14.0
100.322 8.0
100.405 10.0
100.489 12.0
100.573 13.0
100.657 14.0
100.74 13.0
100.824 11.0
100.908 9.0
100.991 20.0
101.075 19.0
101.159 5.0
101.243 12.0
101.326 9.0
101.41 17.0
101.494 6.0
101.577 12.0
101.661 14.0
101.745 14.0
101.828 20.0
101.912 6.0
101.996 12.0
102.08 14.0
102.163 10.0
102.247 7.0
102.331 13.0
102.414 13.0
102.498 15.0
102.582 17.0
102.666 12.0
102.749 18.0
102.833 10.0
102.917 7.0
103 15.0
103.084 11.0
103.168 10.0
103.251 13.0
103.335 11.0
103.419 10.0
103.503 10.0
103.586 16.0
103.67 18.0
103.754 10.0
103.837 14.0
103.921 12.0
104.005 9.0
104.089 11.0
104.172 10.0
104.256 15.0
104.34 9.0
104.423 15.0
104.507 9.0
104.591 18.0
104.674 9.0
104.758 17.0
104.842 7.0
104.926 19.0
105.009 19.0
105.093 9.0
105.177 12.0
105.26 15.0
105.344 15.0
105.428 11.0
105.511 13.0
105.595 11.0
105.679 12.0
105.763 19.0
105.846 6.0
105.93 11.0
106.014 13.0
106.097 14.0
106.181 29.0
106.265 29.0
106.349 19.0
106.432 13.0
106.516 11.0
106.6 18.0
106.683 14.0
106.767 15.0
106.851 8.0
106.934 13.0
107.018 12.0
107.102 11.0
107.186 13.0
107.269 12.0
107.353 16.0
107.437 13.0
107.52 14.0
107.604 18.0
107.688 15.0
107.772 3.0
107.855 13.0
107.939 19.0
108.023 15.0
108.106 13.0
108.19 17.0
108.274 16.0
108.357 10.0
108.441 13.0
108.525 11.0
108.609 17.0
108.692 9.0
108.776 12.0
108.86 9.0
108.943 15.0
109.027 12.0
109.111 13.0
109.195 13.0
109.278 11.0
109.362 13.0
109.446 13.0
109.529 12.0
109.613 9.0
109.697 15.0
109.78 12.0
109.864 11.0
109.948 19.0
110.032 11.0
110.115 16.0
110.199 8.0
110.283 13.0
110.366 12.0
110.45 17.0
110.534 10.0
110.618 14.0
110.701 8.0
110.785 10.0
110.869 14.0
110.952 17.0
111.036 18.0
111.12 13.0
111.203 25.0
111.287 12.0
111.371 9.0
111.455 16.0
111.538 13.0
111.622 17.0
111.706 16.0
111.789 13.0
111.873 18.0
111.957 12.0
112.041 15.0
112.124 20.0
112.208 15.0
112.292 9.0
112.375 13.0
112.459 5.0
112.543 17.0
112.626 15.0
112.71 12.0
112.794 18.0
112.878 12.0
112.961 13.0
113.045 11.0
113.129 12.0
113.212 10.0
113.296 13.0
113.38 16.0
113.464 9.0
113.547 8.0
113.631 14.0
113.715 7.0
113.798 11.0
113.882 11.0
113.966 17.0
114.049 10.0
114.133 14.0
114.217 7.0
114.301 15.0
114.384 18.0
114.468 14.0
114.552 14.0
114.635 14.0
114.719 11.0
114.803 15.0
114.887 5.0
114.97 15.0
115.054 9.0
115.138 11.0
115.221 16.0
115.305 14.0
115.389 15.0
115.472 14.0
115.556 20.0
115.64 19.0
115.724 15.0
115.807 16.0
115.891 17.0
115.975 20.0
116.058 31.0
116.142 24.0
116.226 25.0
116.31 16.0
116.393 14.0
116.477 15.0
116.561 17.0
116.644 13.0
116.728 14.0
116.812 16.0
116.895 20.0
116.979 15.0
117.063 15.0
117.147 8.0
117.23 16.0
117.314 17.0
117.398 13.0
117.481 20.0
117.565 17.0
117.649 18.0
117.733 11.0
117.816 11.0
117.9 15.0
117.984 9.0
118.067 19.0
118.151 21.0
118.235 14.0
118.318 11.0
118.402 14.0
118.486 16.0
118.57 11.0
118.653 16.0
118.737 14.0
118.821 11.0
118.904 18.0
118.988 9.0
119.072 12.0
119.156 15.0
119.239 9.0
119.323 13.0
119.407 17.0
119.49 11.0
119.574 10.0
119.658 12.0
119.741 7.0
119.825 16.0
119.909 12.0
119.993 12.0
120.076 11.0
120.16 22.0
120.244 19.0
120.327 10.0
120.411 14.0
120.495 12.0
120.578 13.0
120.662 14.0
120.746 14.0
120.83 16.0
120.913 16.0
120.997 13.0
121.081 16.0
121.164 11.0
121.248 14.0
121.332 13.0
121.416 10.0
121.499 17.0
121.583 13.0
121.667 17.0
121.75 9.0
121.834 20.0
121.918 19.0
122.001 12.0
122.085 20.0
122.169 19.0
122.253 14.0
122.336 17.0
122.42 19.0
122.504 14.0
122.587 21.0
122.671 15.0
122.755 13.0
122.839 14.0
122.922 25.0
123.006 22.0
123.09 22.0
123.173 23.0
123.257 24.0
123.341 29.0
123.424 23.0
123.508 35.0
123.592 43.0
123.676 50.0
123.759 49.0
123.843 31.0
123.927 51.0
124.01 43.0
124.094 55.0
124.178 85.0
124.262 127.0
124.345 188.0
124.429 530.0
124.513 2591.0
124.596 6257.0
124.68 1272.0
124.764 418.0
124.847 257.0
124.931 292.0
125.015 713.0
125.099 3390.0
125.182 1726.0
125.266 449.0
125.35 137.0
125.433 105.0
125.517 68.0
125.601 59.0
125.685 58.0
125.768 44.0
125.852 36.0
125.936 40.0
126.019 36.0
126.103 23.0
126.187 23.0
126.27 26.0
126.354 26.0
126.438 22.0
126.522 20.0
126.605 30.0
126.689 25.0
126.773 26.0
126.856 20.0
126.94 20.0
127.024 26.0
127.108 27.0
127.191 24.0
127.275 21.0
127.359 26.0
127.442 19.0
127.526 20.0
127.61 14.0
127.693 21.0
127.777 16.0
127.861 18.0
127.945 13.0
128.028 21.0
128.112 23.0
128.196 12.0
128.279 25.0
128.363 21.0
128.447 22.0
128.531 14.0
128.614 27.0
128.698 23.0
128.782 17.0
128.865 14.0
128.949 25.0
129.033 15.0
129.116 17.0
129.2 20.0
129.284 12.0
129.368 23.0
129.451 16.0
129.535 21.0
129.619 17.0
129.702 12.0
129.786 14.0
129.87 13.0
129.954 19.0
129.998 16.0