File: data/W6904c/XRD_2ThetaOmega/scan_2th-om_c_Cr2O3_35-45deg_PIXscan_4min_C5.xy
35.0021 158.0
35.0119 151.0
35.0218 146.0
35.0316 164.0
35.0415 164.0
35.0513 153.0
35.0611 172.0
35.071 156.0
35.0808 155.0
35.0907 140.0
35.1005 171.0
35.1104 167.0
35.1202 172.0
35.1301 144.0
35.1399 149.0
35.1498 163.0
35.1596 171.0
35.1695 178.0
35.1793 142.0
35.1892 170.0
35.199 164.0
35.2089 160.0
35.2187 156.0
35.2286 148.0
35.2384 163.0
35.2483 162.0
35.2581 165.0
35.268 158.0
35.2778 171.0
35.2876 146.0
35.2975 173.0
35.3073 163.0
35.3172 155.0
35.327 151.0
35.3369 158.0
35.3467 172.0
35.3566 165.0
35.3664 155.0
35.3763 145.0
35.3861 173.0
35.396 165.0
35.4058 166.0
35.4157 177.0
35.4255 146.0
35.4354 143.0
35.4452 158.0
35.4551 152.0
35.4649 143.0
35.4748 168.0
35.4846 140.0
35.4944 174.0
35.5043 148.0
35.5141 162.0
35.524 145.0
35.5338 160.0
35.5437 166.0
35.5535 167.0
35.5634 146.0
35.5732 163.0
35.5831 162.0
35.5929 174.0
35.6028 156.0
35.6126 146.0
35.6225 131.0
35.6323 152.0
35.6422 139.0
35.652 155.0
35.6619 189.0
35.6717 155.0
35.6816 157.0
35.6914 175.0
35.7012 169.0
35.7111 151.0
35.7209 150.0
35.7308 153.0
35.7406 177.0
35.7505 153.0
35.7603 136.0
35.7702 160.0
35.78 152.0
35.7899 159.0
35.7997 142.0
35.8096 164.0
35.8194 136.0
35.8293 162.0
35.8391 147.0
35.849 139.0
35.8588 162.0
35.8687 148.0
35.8785 160.0
35.8884 145.0
35.8982 184.0
35.9081 158.0
35.9179 147.0
35.9277 152.0
35.9376 155.0
35.9474 146.0
35.9573 153.0
35.9671 150.0
35.977 158.0
35.9868 152.0
35.9967 156.0
36.0065 151.0
36.0164 141.0
36.0262 163.0
36.0361 154.0
36.0459 166.0
36.0558 152.0
36.0656 169.0
36.0755 156.0
36.0853 152.0
36.0952 176.0
36.105 154.0
36.1149 159.0
36.1247 134.0
36.1345 136.0
36.1444 150.0
36.1542 129.0
36.1641 161.0
36.1739 149.0
36.1838 173.0
36.1936 146.0
36.2035 172.0
36.2133 150.0
36.2232 142.0
36.233 160.0
36.2429 144.0
36.2527 157.0
36.2626 152.0
36.2724 159.0
36.2823 157.0
36.2921 146.0
36.302 150.0
36.3118 144.0
36.3217 170.0
36.3315 146.0
36.3414 149.0
36.3512 147.0
36.361 129.0
36.3709 162.0
36.3807 142.0
36.3906 141.0
36.4004 124.0
36.4103 141.0
36.4201 156.0
36.43 166.0
36.4398 149.0
36.4497 164.0
36.4595 130.0
36.4694 136.0
36.4792 173.0
36.4891 146.0
36.4989 177.0
36.5088 160.0
36.5186 173.0
36.5285 176.0
36.5383 139.0
36.5482 172.0
36.558 150.0
36.5678 167.0
36.5777 147.0
36.5875 163.0
36.5974 140.0
36.6072 166.0
36.6171 158.0
36.6269 139.0
36.6368 155.0
36.6466 143.0
36.6565 169.0
36.6663 167.0
36.6762 135.0
36.686 138.0
36.6959 153.0
36.7057 151.0
36.7156 141.0
36.7254 138.0
36.7353 167.0
36.7451 169.0
36.755 166.0
36.7648 140.0
36.7747 180.0
36.7845 172.0
36.7943 152.0
36.8042 155.0
36.814 144.0
36.8239 153.0
36.8337 152.0
36.8436 149.0
36.8534 157.0
36.8633 156.0
36.8731 153.0
36.883 148.0
36.8928 141.0
36.9027 159.0
36.9125 157.0
36.9224 141.0
36.9322 128.0
36.9421 155.0
36.9519 134.0
36.9618 165.0
36.9716 143.0
36.9815 142.0
36.9913 172.0
37.0011 177.0
37.011 166.0
37.0208 156.0
37.0307 175.0
37.0405 163.0
37.0504 147.0
37.0602 146.0
37.0701 164.0
37.0799 144.0
37.0898 163.0
37.0996 168.0
37.1095 169.0
37.1193 171.0
37.1292 174.0
37.139 141.0
37.1489 152.0
37.1587 177.0
37.1686 170.0
37.1784 153.0
37.1883 172.0
37.1981 161.0
37.2079 181.0
37.2178 165.0
37.2276 150.0
37.2375 146.0
37.2473 186.0
37.2572 175.0
37.267 147.0
37.2769 149.0
37.2867 147.0
37.2966 155.0
37.3064 165.0
37.3163 150.0
37.3261 176.0
37.336 155.0
37.3458 153.0
37.3557 176.0
37.3655 174.0
37.3754 196.0
37.3852 177.0
37.3951 193.0
37.4049 181.0
37.4148 258.0
37.4246 313.0
37.4344 405.0
37.4443 386.0
37.4541 400.0
37.464 405.0
37.4738 335.0
37.4837 296.0
37.4935 214.0
37.5034 191.0
37.5132 191.0
37.5231 175.0
37.5329 192.0
37.5428 163.0
37.5526 164.0
37.5625 193.0
37.5723 184.0
37.5822 155.0
37.592 171.0
37.6019 161.0
37.6117 159.0
37.6216 155.0
37.6314 164.0
37.6412 192.0
37.6511 180.0
37.6609 157.0
37.6708 196.0
37.6806 178.0
37.6905 176.0
37.7003 187.0
37.7102 177.0
37.72 170.0
37.7299 183.0
37.7397 169.0
37.7496 169.0
37.7594 158.0
37.7693 160.0
37.7791 175.0
37.789 148.0
37.7988 156.0
37.8087 166.0
37.8185 172.0
37.8284 164.0
37.8382 159.0
37.8481 138.0
37.8579 178.0
37.8677 163.0
37.8776 187.0
37.8874 152.0
37.8973 169.0
37.9071 156.0
37.917 180.0
37.9268 156.0
37.9367 180.0
37.9465 205.0
37.9564 175.0
37.9662 178.0
37.9761 154.0
37.9859 193.0
37.9958 217.0
38.0056 178.0
38.0155 174.0
38.0253 163.0
38.0352 168.0
38.045 184.0
38.0549 173.0
38.0647 178.0
38.0745 197.0
38.0844 156.0
38.0942 148.0
38.1041 194.0
38.1139 168.0
38.1238 190.0
38.1336 176.0
38.1435 191.0
38.1533 200.0
38.1632 202.0
38.173 159.0
38.1829 182.0
38.1927 201.0
38.2026 176.0
38.2124 180.0
38.2223 185.0
38.2321 196.0
38.242 188.0
38.2518 219.0
38.2617 193.0
38.2715 207.0
38.2814 219.0
38.2912 234.0
38.301 211.0
38.3109 208.0
38.3207 198.0
38.3306 215.0
38.3404 199.0
38.3503 217.0
38.3601 191.0
38.37 222.0
38.3798 214.0
38.3897 230.0
38.3995 205.0
38.4094 209.0
38.4192 215.0
38.4291 199.0
38.4389 215.0
38.4488 232.0
38.4586 214.0
38.4685 232.0
38.4783 235.0
38.4882 265.0
38.498 273.0
38.5078 226.0
38.5177 229.0
38.5275 272.0
38.5374 288.0
38.5472 263.0
38.5571 308.0
38.5669 327.0
38.5768 337.0
38.5866 308.0
38.5965 351.0
38.6063 314.0
38.6162 332.0
38.626 306.0
38.6359 352.0
38.6457 332.0
38.6556 334.0
38.6654 337.0
38.6753 319.0
38.6851 339.0
38.695 327.0
38.7048 354.0
38.7146 309.0
38.7245 352.0
38.7343 340.0
38.7442 325.0
38.754 380.0
38.7639 373.0
38.7737 352.0
38.7836 364.0
38.7934 384.0
38.8033 429.0
38.8131 390.0
38.823 430.0
38.8328 437.0
38.8427 500.0
38.8525 523.0
38.8624 549.0
38.8722 555.0
38.8821 597.0
38.8919 669.0
38.9018 662.0
38.9116 749.0
38.9215 779.0
38.9313 751.0
38.9411 827.0
38.951 875.0
38.9608 872.0
38.9707 902.0
38.9805 920.0
38.9904 964.0
39.0002 1032.0
39.0101 1044.0
39.0199 1089.0
39.0298 1070.0
39.0396 1134.0
39.0495 1090.0
39.0593 1063.0
39.0692 1077.0
39.079 1088.0
39.0889 1084.0
39.0987 1061.0
39.1086 1090.0
39.1184 1030.0
39.1283 1047.0
39.1381 1017.0
39.1479 994.0
39.1578 903.0
39.1676 926.0
39.1775 942.0
39.1873 850.0
39.1972 865.0
39.207 831.0
39.2169 845.0
39.2267 792.0
39.2366 737.0
39.2464 724.0
39.2563 715.0
39.2661 672.0
39.276 641.0
39.2858 579.0
39.2957 596.0
39.3055 568.0
39.3154 536.0
39.3252 489.0
39.3351 500.0
39.3449 479.0
39.3548 461.0
39.3646 451.0
39.3744 409.0
39.3843 372.0
39.3941 372.0
39.404 369.0
39.4138 377.0
39.4237 372.0
39.4335 312.0
39.4434 309.0
39.4532 327.0
39.4631 307.0
39.4729 311.0
39.4828 293.0
39.4926 287.0
39.5025 242.0
39.5123 217.0
39.5222 263.0
39.532 226.0
39.5419 243.0
39.5517 219.0
39.5616 230.0
39.5714 226.0
39.5812 237.0
39.5911 232.0
39.6009 216.0
39.6108 203.0
39.6206 223.0
39.6305 212.0
39.6403 212.0
39.6502 209.0
39.66 209.0
39.6699 194.0
39.6797 173.0
39.6896 186.0
39.6994 182.0
39.7093 199.0
39.7191 199.0
39.729 175.0
39.7388 184.0
39.7487 178.0
39.7585 166.0
39.7684 173.0
39.7782 168.0
39.788 175.0
39.7979 194.0
39.8077 176.0
39.8176 178.0
39.8274 173.0
39.8373 167.0
39.8471 194.0
39.857 177.0
39.8668 167.0
39.8767 155.0
39.8865 161.0
39.8964 149.0
39.9062 188.0
39.9161 167.0
39.9259 161.0
39.9358 189.0
39.9456 170.0
39.9555 160.0
39.9653 166.0
39.9752 190.0
39.985 156.0
39.9949 162.0
40.0047 163.0
40.0145 165.0
40.0244 160.0
40.0342 182.0
40.0441 173.0
40.0539 180.0
40.0638 131.0
40.0736 184.0
40.0835 171.0
40.0933 175.0
40.1032 172.0
40.113 147.0
40.1229 147.0
40.1327 151.0
40.1426 160.0
40.1524 150.0
40.1623 192.0
40.1721 152.0
40.182 139.0
40.1918 185.0
40.2017 156.0
40.2115 164.0
40.2213 177.0
40.2312 181.0
40.241 170.0
40.2509 158.0
40.2607 169.0
40.2706 148.0
40.2804 175.0
40.2903 151.0
40.3001 168.0
40.31 150.0
40.3198 171.0
40.3297 172.0
40.3395 177.0
40.3494 153.0
40.3592 153.0
40.3691 184.0
40.3789 162.0
40.3888 154.0
40.3986 161.0
40.4085 154.0
40.4183 177.0
40.4282 164.0
40.438 169.0
40.4478 169.0
40.4577 198.0
40.4675 182.0
40.4774 182.0
40.4872 198.0
40.4971 200.0
40.5069 189.0
40.5168 188.0
40.5266 188.0
40.5365 172.0
40.5463 189.0
40.5562 197.0
40.566 202.0
40.5759 182.0
40.5857 188.0
40.5956 198.0
40.6054 190.0
40.6153 185.0
40.6251 199.0
40.635 203.0
40.6448 160.0
40.6546 186.0
40.6645 191.0
40.6743 179.0
40.6842 186.0
40.694 205.0
40.7039 195.0
40.7137 195.0
40.7236 205.0
40.7334 198.0
40.7433 196.0
40.7531 198.0
40.763 195.0
40.7728 187.0
40.7827 207.0
40.7925 230.0
40.8024 209.0
40.8122 200.0
40.8221 237.0
40.8319 190.0
40.8418 220.0
40.8516 257.0
40.8615 221.0
40.8713 220.0
40.8811 227.0
40.891 216.0
40.9008 206.0
40.9107 257.0
40.9205 226.0
40.9304 205.0
40.9402 220.0
40.9501 201.0
40.9599 213.0
40.9698 275.0
40.9796 217.0
40.9895 203.0
40.9993 209.0
41.0092 230.0
41.019 258.0
41.0289 221.0
41.0387 258.0
41.0486 205.0
41.0584 282.0
41.0683 218.0
41.0781 269.0
41.0879 263.0
41.0978 230.0
41.1076 256.0
41.1175 228.0
41.1273 281.0
41.1372 284.0
41.147 282.0
41.1569 256.0
41.1667 296.0
41.1766 300.0
41.1864 327.0
41.1963 306.0
41.2061 325.0
41.216 296.0
41.2258 312.0
41.2357 304.0
41.2455 334.0
41.2554 356.0
41.2652 327.0
41.2751 357.0
41.2849 393.0
41.2947 398.0
41.3046 357.0
41.3144 372.0
41.3243 394.0
41.3341 392.0
41.344 404.0
41.3538 466.0
41.3637 512.0
41.3735 547.0
41.3834 638.0
41.3932 661.0
41.4031 768.0
41.4129 879.0
41.4228 935.0
41.4326 994.0
41.4425 1046.0
41.4523 1095.0
41.4622 1061.0
41.472 1143.0
41.4819 1143.0
41.4917 1142.0
41.5016 1205.0
41.5114 1370.0
41.5212 1476.0
41.5311 1778.0
41.5409 2332.0
41.5508 3074.0
41.5606 4520.0
41.5705 7588.0
41.5803 14070.0
41.5902 28619.0
41.6 52477.0
41.6099 65458.0
41.6197 70545.0
41.6296 70794.0
41.6394 66731.0
41.6493 49962.0
41.6591 24595.0
41.669 12671.0
41.6788 9250.0
41.6887 10319.0
41.6985 16728.0
41.7084 27060.0
41.7182 33557.0
41.728 35933.0
41.7379 35855.0
41.7477 32958.0
41.7576 25142.0
41.7674 13255.0
41.7773 6410.0
41.7871 3677.0
41.797 2411.0
41.8068 1810.0
41.8167 1518.0
41.8265 1283.0
41.8364 1144.0
41.8462 988.0
41.8561 906.0
41.8659 815.0
41.8758 733.0
41.8856 726.0
41.8955 669.0
41.9053 617.0
41.9152 582.0
41.925 582.0
41.9349 528.0
41.9447 490.0
41.9545 473.0
41.9644 446.0
41.9742 411.0
41.9841 404.0
41.9939 420.0
42.0038 369.0
42.0136 378.0
42.0235 370.0
42.0333 367.0
42.0432 347.0
42.053 356.0
42.0629 330.0
42.0727 313.0
42.0826 323.0
42.0924 302.0
42.1023 284.0
42.1121 276.0
42.122 303.0
42.1318 290.0
42.1417 226.0
42.1515 264.0
42.1613 291.0
42.1712 266.0
42.181 223.0
42.1909 266.0
42.2007 258.0
42.2106 276.0
42.2204 258.0
42.2303 231.0
42.2401 209.0
42.25 202.0
42.2598 223.0
42.2697 167.0
42.2795 224.0
42.2894 213.0
42.2992 198.0
42.3091 201.0
42.3189 202.0
42.3288 194.0
42.3386 193.0
42.3485 201.0
42.3583 193.0
42.3682 192.0
42.378 189.0
42.3878 170.0
42.3977 197.0
42.4075 205.0
42.4174 168.0
42.4272 193.0
42.4371 186.0
42.4469 181.0
42.4568 176.0
42.4666 164.0
42.4765 159.0
42.4863 188.0
42.4962 198.0
42.506 184.0
42.5159 168.0
42.5257 178.0
42.5356 165.0
42.5454 170.0
42.5553 167.0
42.5651 173.0
42.575 188.0
42.5848 157.0
42.5946 183.0
42.6045 172.0
42.6143 170.0
42.6242 189.0
42.634 166.0
42.6439 171.0
42.6537 168.0
42.6636 162.0
42.6734 170.0
42.6833 164.0
42.6931 171.0
42.703 152.0
42.7128 168.0
42.7227 156.0
42.7325 150.0
42.7424 163.0
42.7522 159.0
42.7621 200.0
42.7719 149.0
42.7818 163.0
42.7916 158.0
42.8014 148.0
42.8113 161.0
42.8211 147.0
42.831 170.0
42.8408 150.0
42.8507 165.0
42.8605 143.0
42.8704 162.0
42.8802 144.0
42.8901 170.0
42.8999 170.0
42.9098 165.0
42.9196 146.0
42.9295 168.0
42.9393 143.0
42.9492 147.0
42.959 176.0
42.9689 160.0
42.9787 168.0
42.9886 150.0
42.9984 143.0
43.0083 148.0
43.0181 145.0
43.0279 155.0
43.0378 145.0
43.0476 161.0
43.0575 145.0
43.0673 153.0
43.0772 165.0
43.087 151.0
43.0969 135.0
43.1067 166.0
43.1166 177.0
43.1264 149.0
43.1363 175.0
43.1461 148.0
43.156 148.0
43.1658 157.0
43.1757 153.0
43.1855 134.0
43.1954 140.0
43.2052 164.0
43.2151 139.0
43.2249 134.0
43.2347 157.0
43.2446 144.0
43.2544 153.0
43.2643 141.0
43.2741 167.0
43.284 176.0
43.2938 152.0
43.3037 141.0
43.3135 148.0
43.3234 150.0
43.3332 164.0
43.3431 172.0
43.3529 148.0
43.3628 141.0
43.3726 150.0
43.3825 157.0
43.3923 160.0
43.4022 153.0
43.412 138.0
43.4219 145.0
43.4317 154.0
43.4416 154.0
43.4514 136.0
43.4612 170.0
43.4711 134.0
43.4809 159.0
43.4908 146.0
43.5006 158.0
43.5105 144.0
43.5203 144.0
43.5302 145.0
43.54 157.0
43.5499 162.0
43.5597 153.0
43.5696 155.0
43.5794 136.0
43.5893 155.0
43.5991 153.0
43.609 145.0
43.6188 166.0
43.6287 160.0
43.6385 136.0
43.6484 143.0
43.6582 150.0
43.668 166.0
43.6779 159.0
43.6877 141.0
43.6976 165.0
43.7074 171.0
43.7173 171.0
43.7271 164.0
43.737 153.0
43.7468 158.0
43.7567 153.0
43.7665 158.0
43.7764 178.0
43.7862 158.0
43.7961 141.0
43.8059 128.0
43.8158 149.0
43.8256 163.0
43.8355 166.0
43.8453 161.0
43.8552 144.0
43.865 147.0
43.8749 139.0
43.8847 136.0
43.8945 160.0
43.9044 174.0
43.9142 151.0
43.9241 172.0
43.9339 162.0
43.9438 179.0
43.9536 170.0
43.9635 178.0
43.9733 159.0
43.9832 179.0
43.993 162.0
44.0029 167.0
44.0127 155.0
44.0226 171.0
44.0324 177.0
44.0423 163.0
44.0521 158.0
44.062 173.0
44.0718 159.0
44.0817 162.0
44.0915 180.0
44.1013 202.0
44.1112 196.0
44.121 179.0
44.1309 210.0
44.1407 201.0
44.1506 175.0
44.1604 213.0
44.1703 236.0
44.1801 218.0
44.19 242.0
44.1998 210.0
44.2097 223.0
44.2195 216.0
44.2294 259.0
44.2392 237.0
44.2491 225.0
44.2589 244.0
44.2688 261.0
44.2786 264.0
44.2885 241.0
44.2983 305.0
44.3081 262.0
44.318 262.0
44.3278 300.0
44.3377 319.0
44.3475 305.0
44.3574 295.0
44.3672 279.0
44.3771 316.0
44.3869 301.0
44.3968 312.0
44.4066 325.0
44.4165 359.0
44.4263 309.0
44.4362 315.0
44.446 329.0
44.4559 319.0
44.4657 295.0
44.4756 303.0
44.4854 301.0
44.4953 314.0
44.5051 288.0
44.515 300.0
44.5248 241.0
44.5346 255.0
44.5445 265.0
44.5543 241.0
44.5642 237.0
44.574 263.0
44.5839 236.0
44.5937 270.0
44.6036 225.0
44.6134 231.0
44.6233 212.0
44.6331 218.0
44.643 210.0
44.6528 180.0
44.6627 189.0
44.6725 185.0
44.6824 187.0
44.6922 158.0
44.7021 182.0
44.7119 183.0
44.7218 183.0
44.7316 176.0
44.7414 155.0
44.7513 169.0
44.7611 168.0
44.771 165.0
44.7808 174.0
44.7907 153.0
44.8005 160.0
44.8104 161.0
44.8202 149.0
44.8301 171.0
44.8399 150.0
44.8498 140.0
44.8596 169.0
44.8695 168.0
44.8793 146.0
44.8892 144.0
44.899 154.0
44.9089 150.0
44.9187 163.0
44.9286 158.0
44.9384 159.0
44.9483 148.0
44.9581 140.0
44.9679 151.0
44.9778 136.0
44.9876 158.0
44.9975 146.0