File: data/W6777r/XRD_2ThetaOmega/W6777r_absolute_2th-om_10-130deg_PIXscan_17min_4.xy
10.0035 24.0
10.0872 19.0
10.1709 23.0
10.2546 22.0
10.3383 19.0
10.422 23.0
10.5057 17.0
10.5894 25.0
10.6731 26.0
10.7568 21.0
10.8405 23.0
10.9242 27.0
11.0079 18.0
11.0916 33.0
11.1753 27.0
11.259 27.0
11.3428 28.0
11.4265 28.0
11.5102 25.0
11.5939 25.0
11.6776 24.0
11.7613 30.0
11.845 22.0
11.9287 28.0
12.0124 20.0
12.0961 19.0
12.1798 31.0
12.2635 24.0
12.3472 27.0
12.4309 25.0
12.5146 22.0
12.5983 30.0
12.682 21.0
12.7657 26.0
12.8495 19.0
12.9332 23.0
13.0169 21.0
13.1006 24.0
13.1843 23.0
13.268 23.0
13.3517 21.0
13.4354 23.0
13.5191 24.0
13.6028 18.0
13.6865 19.0
13.7702 25.0
13.8539 30.0
13.9376 22.0
14.0213 24.0
14.105 18.0
14.1887 21.0
14.2724 24.0
14.3562 19.0
14.4399 14.0
14.5236 15.0
14.6073 13.0
14.691 14.0
14.7747 16.0
14.8584 26.0
14.9421 13.0
15.0258 17.0
15.1095 20.0
15.1932 15.0
15.2769 17.0
15.3606 18.0
15.4443 23.0
15.528 20.0
15.6117 18.0
15.6954 13.0
15.7791 27.0
15.8629 11.0
15.9466 17.0
16.0303 24.0
16.114 14.0
16.1977 28.0
16.2814 15.0
16.3651 17.0
16.4488 20.0
16.5325 18.0
16.6162 20.0
16.6999 26.0
16.7836 17.0
16.8673 18.0
16.951 8.0
17.0347 16.0
17.1184 16.0
17.2021 29.0
17.2858 14.0
17.3696 12.0
17.4533 21.0
17.537 15.0
17.6207 24.0
17.7044 13.0
17.7881 17.0
17.8718 9.0
17.9555 23.0
18.0392 17.0
18.1229 12.0
18.2066 14.0
18.2903 19.0
18.374 10.0
18.4577 20.0
18.5414 19.0
18.6251 17.0
18.7088 10.0
18.7925 22.0
18.8763 19.0
18.96 13.0
19.0437 11.0
19.1274 17.0
19.2111 22.0
19.2948 18.0
19.3785 17.0
19.4622 11.0
19.5459 15.0
19.6296 19.0
19.7133 19.0
19.797 18.0
19.8807 14.0
19.9644 9.0
20.0481 16.0
20.1318 22.0
20.2155 15.0
20.2992 18.0
20.383 20.0
20.4667 15.0
20.5504 19.0
20.6341 19.0
20.7178 13.0
20.8015 13.0
20.8852 11.0
20.9689 17.0
21.0526 14.0
21.1363 11.0
21.22 15.0
21.3037 16.0
21.3874 14.0
21.4711 18.0
21.5548 18.0
21.6385 14.0
21.7222 17.0
21.8059 15.0
21.8897 15.0
21.9734 18.0
22.0571 23.0
22.1408 17.0
22.2245 14.0
22.3082 8.0
22.3919 10.0
22.4756 14.0
22.5593 13.0
22.643 14.0
22.7267 18.0
22.8104 16.0
22.8941 24.0
22.9778 30.0
23.0615 55.0
23.1452 33.0
23.2289 39.0
23.3126 35.0
23.3964 31.0
23.4801 33.0
23.5638 31.0
23.6475 46.0
23.7312 43.0
23.8149 53.0
23.8986 92.0
23.9823 114.0
24.066 238.0
24.1497 554.0
24.2334 2857.0
24.3171 4193.0
24.4008 2358.0
24.4845 1257.0
24.5682 678.0
24.6519 440.0
24.7356 202.0
24.8193 177.0
24.9031 132.0
24.9868 120.0
25.0705 105.0
25.1542 137.0
25.2379 149.0
25.3216 209.0
25.4053 731.0
25.489 7150.0
25.5727 23288.0
25.6564 1205.0
25.7401 385.0
25.8238 185.0
25.9075 162.0
25.9912 139.0
26.0749 81.0
26.1586 57.0
26.2423 43.0
26.326 43.0
26.4098 43.0
26.4935 33.0
26.5772 30.0
26.6609 18.0
26.7446 23.0
26.8283 17.0
26.912 14.0
26.9957 24.0
27.0794 24.0
27.1631 17.0
27.2468 21.0
27.3305 9.0
27.4142 16.0
27.4979 34.0
27.5816 22.0
27.6653 18.0
27.749 16.0
27.8327 12.0
27.9165 16.0
28.0002 17.0
28.0839 18.0
28.1676 10.0
28.2513 14.0
28.335 23.0
28.4187 12.0
28.5024 10.0
28.5861 15.0
28.6698 7.0
28.7535 13.0
28.8372 10.0
28.9209 7.0
29.0046 14.0
29.0883 16.0
29.172 6.0
29.2557 10.0
29.3394 16.0
29.4232 11.0
29.5069 10.0
29.5906 12.0
29.6743 25.0
29.758 16.0
29.8417 12.0
29.9254 9.0
30.0091 13.0
30.0928 15.0
30.1765 6.0
30.2602 15.0
30.3439 12.0
30.4276 12.0
30.5113 10.0
30.595 10.0
30.6787 10.0
30.7624 8.0
30.8461 17.0
30.9298 5.0
31.0136 12.0
31.0973 9.0
31.181 9.0
31.2647 15.0
31.3484 10.0
31.4321 19.0
31.5158 11.0
31.5995 9.0
31.6832 9.0
31.7669 13.0
31.8506 13.0
31.9343 7.0
32.018 10.0
32.1017 9.0
32.1854 11.0
32.2691 13.0
32.3528 10.0
32.4365 11.0
32.5203 21.0
32.604 17.0
32.6877 12.0
32.7714 7.0
32.8551 13.0
32.9388 11.0
33.0225 15.0
33.1062 10.0
33.1899 11.0
33.2736 5.0
33.3573 16.0
33.441 10.0
33.5247 15.0
33.6084 9.0
33.6921 10.0
33.7758 11.0
33.8595 12.0
33.9432 15.0
34.027 13.0
34.1107 12.0
34.1944 13.0
34.2781 15.0
34.3618 9.0
34.4455 6.0
34.5292 11.0
34.6129 14.0
34.6966 11.0
34.7803 10.0
34.864 11.0
34.9477 11.0
35.0314 7.0
35.1151 23.0
35.1988 22.0
35.2825 15.0
35.3662 19.0
35.4499 11.0
35.5337 8.0
35.6174 8.0
35.7011 14.0
35.7848 9.0
35.8685 10.0
35.9522 11.0
36.0359 9.0
36.1196 13.0
36.2033 12.0
36.287 6.0
36.3707 13.0
36.4544 13.0
36.5381 14.0
36.6218 16.0
36.7055 7.0
36.7892 15.0
36.8729 14.0
36.9566 12.0
37.0404 15.0
37.1241 19.0
37.2078 14.0
37.2915 10.0
37.3752 13.0
37.4589 5.0
37.5426 11.0
37.6263 19.0
37.71 11.0
37.7937 12.0
37.8774 5.0
37.9611 14.0
38.0448 1.0
38.1285 5.0
38.2122 10.0
38.2959 10.0
38.3796 15.0
38.4633 7.0
38.5471 11.0
38.6308 8.0
38.7145 10.0
38.7982 19.0
38.8819 5.0
38.9656 14.0
39.0493 16.0
39.133 10.0
39.2167 7.0
39.3004 13.0
39.3841 7.0
39.4678 13.0
39.5515 6.0
39.6352 13.0
39.7189 10.0
39.8026 13.0
39.8863 10.0
39.97 7.0
40.0538 17.0
40.1375 9.0
40.2212 20.0
40.3049 6.0
40.3886 13.0
40.4723 9.0
40.556 14.0
40.6397 9.0
40.7234 14.0
40.8071 16.0
40.8908 14.0
40.9745 13.0
41.0582 17.0
41.1419 6.0
41.2256 5.0
41.3093 8.0
41.393 11.0
41.4767 8.0
41.5605 19.0
41.6442 6.0
41.7279 16.0
41.8116 12.0
41.8953 15.0
41.979 16.0
42.0627 17.0
42.1464 12.0
42.2301 11.0
42.3138 17.0
42.3975 15.0
42.4812 10.0
42.5649 12.0
42.6486 11.0
42.7323 14.0
42.816 9.0
42.8997 12.0
42.9834 15.0
43.0672 7.0
43.1509 13.0
43.2346 13.0
43.3183 16.0
43.402 11.0
43.4857 13.0
43.5694 19.0
43.6531 17.0
43.7368 15.0
43.8205 9.0
43.9042 9.0
43.9879 16.0
44.0716 9.0
44.1553 14.0
44.239 18.0
44.3227 11.0
44.4064 22.0
44.4901 16.0
44.5739 18.0
44.6576 22.0
44.7413 12.0
44.825 17.0
44.9087 17.0
44.9924 7.0
45.0761 12.0
45.1598 11.0
45.2435 15.0
45.3272 14.0
45.4109 10.0
45.4946 12.0
45.5783 20.0
45.662 12.0
45.7457 15.0
45.8294 18.0
45.9131 12.0
45.9968 8.0
46.0806 9.0
46.1643 12.0
46.248 10.0
46.3317 18.0
46.4154 14.0
46.4991 7.0
46.5828 17.0
46.6665 13.0
46.7502 16.0
46.8339 18.0
46.9176 4.0
47.0013 21.0
47.085 83.0
47.1687 52.0
47.2524 24.0
47.3361 20.0
47.4198 23.0
47.5035 25.0
47.5873 21.0
47.671 27.0
47.7547 17.0
47.8384 25.0
47.9221 26.0
48.0058 25.0
48.0895 14.0
48.1732 19.0
48.2569 17.0
48.3406 15.0
48.4243 22.0
48.508 20.0
48.5917 21.0
48.6754 15.0
48.7591 21.0
48.8428 23.0
48.9265 27.0
49.0102 32.0
49.094 36.0
49.1777 40.0
49.2614 33.0
49.3451 50.0
49.4288 61.0
49.5125 119.0
49.5962 201.0
49.6799 400.0
49.7636 776.0
49.8473 1154.0
49.931 1238.0
50.0147 1111.0
50.0984 833.0
50.1821 715.0
50.2658 310.0
50.3495 187.0
50.4332 129.0
50.5169 112.0
50.6007 97.0
50.6844 47.0
50.7681 54.0
50.8518 39.0
50.9355 35.0
51.0192 39.0
51.1029 37.0
51.1866 36.0
51.2703 36.0
51.354 43.0
51.4377 39.0
51.5214 54.0
51.6051 44.0
51.6888 62.0
51.7725 61.0
51.8562 85.0
51.9399 72.0
52.0236 82.0
52.1074 115.0
52.1911 207.0
52.2748 543.0
52.3585 580.0
52.4422 3172.0
52.5259 37159.0
52.6096 8773.0
52.6933 4597.0
52.777 652.0
52.8607 316.0
52.9444 169.0
53.0281 147.0
53.1118 116.0
53.1955 102.0
53.2792 83.0
53.3629 80.0
53.4466 70.0
53.5303 64.0
53.6141 51.0
53.6978 51.0
53.7815 42.0
53.8652 48.0
53.9489 31.0
54.0326 47.0
54.1163 33.0
54.2 25.0
54.2837 32.0
54.3674 27.0
54.4511 17.0
54.5348 18.0
54.6185 16.0
54.7022 17.0
54.7859 15.0
54.8696 22.0
54.9533 22.0
55.037 14.0
55.1208 21.0
55.2045 12.0
55.2882 12.0
55.3719 15.0
55.4556 17.0
55.5393 22.0
55.623 19.0
55.7067 12.0
55.7904 22.0
55.8741 15.0
55.9578 10.0
56.0415 14.0
56.1252 16.0
56.2089 19.0
56.2926 16.0
56.3763 14.0
56.46 12.0
56.5437 19.0
56.6275 17.0
56.7112 20.0
56.7949 19.0
56.8786 20.0
56.9623 18.0
57.046 15.0
57.1297 15.0
57.2134 13.0
57.2971 5.0
57.3808 12.0
57.4645 17.0
57.5482 19.0
57.6319 15.0
57.7156 13.0
57.7993 14.0
57.883 13.0
57.9667 12.0
58.0504 11.0
58.1342 13.0
58.2179 8.0
58.3016 9.0
58.3853 9.0
58.469 9.0
58.5527 9.0
58.6364 14.0
58.7201 13.0
58.8038 9.0
58.8875 8.0
58.9712 13.0
59.0549 19.0
59.1386 10.0
59.2223 17.0
59.306 10.0
59.3897 11.0
59.4734 15.0
59.5571 14.0
59.6409 10.0
59.7246 16.0
59.8083 21.0
59.892 12.0
59.9757 11.0
60.0594 12.0
60.1431 16.0
60.2268 13.0
60.3105 14.0
60.3942 16.0
60.4779 8.0
60.5616 6.0
60.6453 19.0
60.729 11.0
60.8127 12.0
60.8964 13.0
60.9801 15.0
61.0638 9.0
61.1476 11.0
61.2313 12.0
61.315 13.0
61.3987 9.0
61.4824 19.0
61.5661 16.0
61.6498 14.0
61.7335 12.0
61.8172 11.0
61.9009 11.0
61.9846 10.0
62.0683 9.0
62.152 10.0
62.2357 16.0
62.3194 10.0
62.4031 14.0
62.4868 10.0
62.5705 13.0
62.6543 11.0
62.738 14.0
62.8217 12.0
62.9054 12.0
62.9891 17.0
63.0728 15.0
63.1565 19.0
63.2402 8.0
63.3239 14.0
63.4076 12.0
63.4913 14.0
63.575 10.0
63.6587 7.0
63.7424 9.0
63.8261 20.0
63.9098 12.0
63.9935 18.0
64.0772 8.0
64.161 10.0
64.2447 11.0
64.3284 9.0
64.4121 10.0
64.4958 15.0
64.5795 12.0
64.6632 16.0
64.7469 15.0
64.8306 18.0
64.9143 13.0
64.998 6.0
65.0817 12.0
65.1654 15.0
65.2491 6.0
65.3328 16.0
65.4165 7.0
65.5002 13.0
65.5839 15.0
65.6677 14.0
65.7514 12.0
65.8351 4.0
65.9188 13.0
66.0025 10.0
66.0862 9.0
66.1699 8.0
66.2536 11.0
66.3373 12.0
66.421 14.0
66.5047 18.0
66.5884 12.0
66.6721 20.0
66.7558 16.0
66.8395 16.0
66.9232 11.0
67.0069 24.0
67.0906 12.0
67.1744 9.0
67.2581 11.0
67.3418 11.0
67.4255 12.0
67.5092 10.0
67.5929 10.0
67.6766 19.0
67.7603 18.0
67.844 14.0
67.9277 11.0
68.0114 9.0
68.0951 12.0
68.1788 12.0
68.2625 16.0
68.3462 8.0
68.4299 14.0
68.5136 13.0
68.5973 6.0
68.6811 13.0
68.7648 12.0
68.8485 13.0
68.9322 8.0
69.0159 7.0
69.0996 17.0
69.1833 14.0
69.267 10.0
69.3507 13.0
69.4344 12.0
69.5181 5.0
69.6018 10.0
69.6855 15.0
69.7692 12.0
69.8529 11.0
69.9366 13.0
70.0203 15.0
70.104 4.0
70.1878 11.0
70.2715 19.0
70.3552 8.0
70.4389 19.0
70.5226 13.0
70.6063 15.0
70.69 10.0
70.7737 10.0
70.8574 9.0
70.9411 15.0
71.0248 16.0
71.1085 13.0
71.1922 12.0
71.2759 7.0
71.3596 14.0
71.4433 18.0
71.527 14.0
71.6107 5.0
71.6945 9.0
71.7782 13.0
71.8619 15.0
71.9456 10.0
72.0293 12.0
72.113 15.0
72.1967 12.0
72.2804 10.0
72.3641 8.0
72.4478 11.0
72.5315 8.0
72.6152 9.0
72.6989 16.0
72.7826 8.0
72.8663 13.0
72.95 14.0
73.0337 6.0
73.1174 12.0
73.2012 11.0
73.2849 12.0
73.3686 12.0
73.4523 12.0
73.536 12.0
73.6197 14.0
73.7034 23.0
73.7871 19.0
73.8708 17.0
73.9545 12.0
74.0382 15.0
74.1219 9.0
74.2056 13.0
74.2893 22.0
74.373 17.0
74.4567 9.0
74.5404 15.0
74.6241 13.0
74.7079 11.0
74.7916 10.0
74.8753 8.0
74.959 13.0
75.0427 11.0
75.1264 8.0
75.2101 11.0
75.2938 12.0
75.3775 13.0
75.4612 8.0
75.5449 15.0
75.6286 10.0
75.7123 9.0
75.796 8.0
75.8797 10.0
75.9634 4.0
76.0471 12.0
76.1308 15.0
76.2146 10.0
76.2983 15.0
76.382 10.0
76.4657 9.0
76.5494 16.0
76.6331 8.0
76.7168 14.0
76.8005 11.0
76.8842 9.0
76.9679 13.0
77.0516 15.0
77.1353 20.0
77.219 9.0
77.3027 8.0
77.3864 12.0
77.4701 16.0
77.5538 15.0
77.6375 12.0
77.7213 20.0
77.805 15.0
77.8887 16.0
77.9724 16.0
78.0561 25.0
78.1398 21.0
78.2235 30.0
78.3072 30.0
78.3909 38.0
78.4746 60.0
78.5583 53.0
78.642 63.0
78.7257 72.0
78.8094 53.0
78.8931 41.0
78.9768 40.0
79.0605 38.0
79.1442 25.0
79.228 23.0
79.3117 18.0
79.3954 13.0
79.4791 17.0
79.5628 8.0
79.6465 15.0
79.7302 13.0
79.8139 12.0
79.8976 17.0
79.9813 9.0
80.065 12.0
80.1487 17.0
80.2324 13.0
80.3161 12.0
80.3998 18.0
80.4835 15.0
80.5672 16.0
80.6509 16.0
80.7347 9.0
80.8184 6.0
80.9021 14.0
80.9858 7.0
81.0695 17.0
81.1532 13.0
81.2369 9.0
81.3206 13.0
81.4043 14.0
81.488 12.0
81.5717 13.0
81.6554 14.0
81.7391 14.0
81.8228 14.0
81.9065 17.0
81.9902 8.0
82.0739 23.0
82.1576 22.0
82.2414 15.0
82.3251 12.0
82.4088 24.0
82.4925 17.0
82.5762 23.0
82.6599 26.0
82.7436 35.0
82.8273 22.0
82.911 31.0
82.9947 35.0
83.0784 98.0
83.1621 1976.0
83.2458 333.0
83.3295 100.0
83.4132 891.0
83.4969 199.0
83.5806 42.0
83.6643 29.0
83.7481 23.0
83.8318 26.0
83.9155 24.0
83.9992 17.0
84.0829 24.0
84.1666 6.0
84.2503 19.0
84.334 25.0
84.4177 14.0
84.5014 13.0
84.5851 15.0
84.6688 14.0
84.7525 13.0
84.8362 18.0
84.9199 7.0
85.0036 8.0
85.0873 13.0
85.171 13.0
85.2548 13.0
85.3385 12.0
85.4222 17.0
85.5059 9.0
85.5896 14.0
85.6733 19.0
85.757 13.0
85.8407 15.0
85.9244 9.0
86.0081 12.0
86.0918 20.0
86.1755 4.0
86.2592 10.0
86.3429 11.0
86.4266 17.0
86.5103 11.0
86.594 16.0
86.6777 14.0
86.7615 9.0
86.8452 14.0
86.9289 13.0
87.0126 17.0
87.0963 10.0
87.18 10.0
87.2637 15.0
87.3474 11.0
87.4311 12.0
87.5148 21.0
87.5985 17.0
87.6822 16.0
87.7659 14.0
87.8496 8.0
87.9333 14.0
88.017 4.0
88.1007 15.0
88.1844 12.0
88.2682 8.0
88.3519 13.0
88.4356 13.0
88.5193 16.0
88.603 10.0
88.6867 11.0
88.7704 13.0
88.8541 18.0
88.9378 10.0
89.0215 16.0
89.1052 9.0
89.1889 19.0
89.2726 11.0
89.3563 8.0
89.44 8.0
89.5237 12.0
89.6074 15.0
89.6911 9.0
89.7749 13.0
89.8586 10.0
89.9423 8.0
90.026 12.0
90.1097 5.0
90.1934 13.0
90.2771 13.0
90.3608 20.0
90.4445 17.0
90.5282 11.0
90.6119 13.0
90.6956 12.0
90.7793 16.0
90.863 13.0
90.9467 17.0
91.0304 15.0
91.1141 11.0
91.1978 9.0
91.2816 20.0
91.3653 10.0
91.449 11.0
91.5327 18.0
91.6164 10.0
91.7001 16.0
91.7838 14.0
91.8675 12.0
91.9512 13.0
92.0349 16.0
92.1186 7.0
92.2023 6.0
92.286 14.0
92.3697 7.0
92.4534 12.0
92.5371 16.0
92.6208 22.0
92.7045 10.0
92.7883 12.0
92.872 6.0
92.9557 15.0
93.0394 7.0
93.1231 18.0
93.2068 10.0
93.2905 11.0
93.3742 18.0
93.4579 12.0
93.5416 17.0
93.6253 10.0
93.709 10.0
93.7927 15.0
93.8764 13.0
93.9601 10.0
94.0438 13.0
94.1275 12.0
94.2112 17.0
94.295 22.0
94.3787 16.0
94.4624 11.0
94.5461 17.0
94.6298 14.0
94.7135 8.0
94.7972 15.0
94.8809 15.0
94.9646 8.0
95.0483 7.0
95.132 19.0
95.2157 11.0
95.2994 13.0
95.3831 15.0
95.4668 16.0
95.5505 9.0
95.6342 6.0
95.7179 14.0
95.8017 10.0
95.8854 14.0
95.9691 9.0
96.0528 9.0
96.1365 17.0
96.2202 12.0
96.3039 5.0
96.3876 13.0
96.4713 12.0
96.555 14.0
96.6387 11.0
96.7224 7.0
96.8061 12.0
96.8898 8.0
96.9735 11.0
97.0572 6.0
97.1409 10.0
97.2246 16.0
97.3084 13.0
97.3921 14.0
97.4758 10.0
97.5595 14.0
97.6432 12.0
97.7269 11.0
97.8106 9.0
97.8943 18.0
97.978 10.0
98.0617 5.0
98.1454 7.0
98.2291 4.0
98.3128 11.0
98.3965 8.0
98.4802 6.0
98.5639 8.0
98.6476 11.0
98.7313 12.0
98.8151 8.0
98.8988 14.0
98.9825 11.0
99.0662 9.0
99.1499 13.0
99.2336 8.0
99.3173 15.0
99.401 13.0
99.4847 14.0
99.5684 13.0
99.6521 22.0
99.7358 10.0
99.8195 9.0
99.9032 6.0
99.9869 12.0
100.071 12.0
100.154 10.0
100.238 14.0
100.322 18.0
100.405 11.0
100.489 15.0
100.573 14.0
100.657 16.0
100.74 13.0
100.824 15.0
100.908 13.0
100.991 11.0
101.075 12.0
101.159 6.0
101.243 13.0
101.326 17.0
101.41 12.0
101.494 10.0
101.577 9.0
101.661 13.0
101.745 16.0
101.828 16.0
101.912 17.0
101.996 10.0
102.08 8.0
102.163 17.0
102.247 11.0
102.331 19.0
102.414 14.0
102.498 25.0
102.582 15.0
102.666 11.0
102.749 19.0
102.833 14.0
102.917 15.0
103 14.0
103.084 13.0
103.168 13.0
103.251 15.0
103.335 14.0
103.419 11.0
103.503 12.0
103.586 8.0
103.67 13.0
103.754 10.0
103.837 12.0
103.921 6.0
104.005 11.0
104.089 12.0
104.172 10.0
104.256 12.0
104.34 10.0
104.423 8.0
104.507 8.0
104.591 11.0
104.674 11.0
104.758 13.0
104.842 6.0
104.926 6.0
105.009 13.0
105.093 7.0
105.177 7.0
105.26 19.0
105.344 16.0
105.428 15.0
105.511 15.0
105.595 11.0
105.679 7.0
105.763 13.0
105.846 9.0
105.93 8.0
106.014 5.0
106.097 12.0
106.181 14.0
106.265 24.0
106.349 18.0
106.432 8.0
106.516 21.0
106.6 7.0
106.683 10.0
106.767 8.0
106.851 15.0
106.934 15.0
107.018 11.0
107.102 14.0
107.186 12.0
107.269 11.0
107.353 8.0
107.437 10.0
107.52 5.0
107.604 16.0
107.688 13.0
107.772 15.0
107.855 13.0
107.939 19.0
108.023 16.0
108.106 13.0
108.19 11.0
108.274 5.0
108.357 4.0
108.441 15.0
108.525 10.0
108.609 12.0
108.692 5.0
108.776 12.0
108.86 13.0
108.943 16.0
109.027 11.0
109.111 7.0
109.195 8.0
109.278 16.0
109.362 11.0
109.446 22.0
109.529 13.0
109.613 10.0
109.697 8.0
109.78 12.0
109.864 15.0
109.948 8.0
110.032 15.0
110.115 12.0
110.199 8.0
110.283 12.0
110.366 16.0
110.45 15.0
110.534 8.0
110.618 16.0
110.701 14.0
110.785 7.0
110.869 11.0
110.952 19.0
111.036 10.0
111.12 9.0
111.203 14.0
111.287 3.0
111.371 14.0
111.455 17.0
111.538 18.0
111.622 17.0
111.706 10.0
111.789 11.0
111.873 15.0
111.957 15.0
112.041 15.0
112.124 17.0
112.208 11.0
112.292 17.0
112.375 12.0
112.459 16.0
112.543 8.0
112.626 12.0
112.71 11.0
112.794 12.0
112.878 20.0
112.961 4.0
113.045 14.0
113.129 16.0
113.212 13.0
113.296 12.0
113.38 11.0
113.464 9.0
113.547 10.0
113.631 14.0
113.715 13.0
113.798 9.0
113.882 15.0
113.966 11.0
114.049 11.0
114.133 11.0
114.217 12.0
114.301 14.0
114.384 14.0
114.468 10.0
114.552 18.0
114.635 13.0
114.719 19.0
114.803 22.0
114.887 19.0
114.97 23.0
115.054 21.0
115.138 15.0
115.221 24.0
115.305 14.0
115.389 24.0
115.472 12.0
115.556 16.0
115.64 12.0
115.724 19.0
115.807 19.0
115.891 23.0
115.975 30.0
116.058 49.0
116.142 35.0
116.226 29.0
116.31 17.0
116.393 22.0
116.477 17.0
116.561 22.0
116.644 17.0
116.728 10.0
116.812 12.0
116.895 12.0
116.979 9.0
117.063 12.0
117.147 14.0
117.23 10.0
117.314 9.0
117.398 12.0
117.481 19.0
117.565 22.0
117.649 9.0
117.733 13.0
117.816 14.0
117.9 15.0
117.984 12.0
118.067 9.0
118.151 9.0
118.235 15.0
118.318 19.0
118.402 9.0
118.486 17.0
118.57 14.0
118.653 16.0
118.737 14.0
118.821 18.0
118.904 7.0
118.988 10.0
119.072 17.0
119.156 17.0
119.239 15.0
119.323 13.0
119.407 20.0
119.49 10.0
119.574 11.0
119.658 15.0
119.741 9.0
119.825 10.0
119.909 22.0
119.993 14.0
120.076 14.0
120.16 16.0
120.244 14.0
120.327 19.0
120.411 18.0
120.495 9.0
120.578 13.0
120.662 23.0
120.746 26.0
120.83 22.0
120.913 17.0
120.997 23.0
121.081 24.0
121.164 21.0
121.248 11.0
121.332 20.0
121.416 15.0
121.499 17.0
121.583 18.0
121.667 21.0
121.75 15.0
121.834 18.0
121.918 20.0
122.001 28.0
122.085 18.0
122.169 22.0
122.253 21.0
122.336 12.0
122.42 21.0
122.504 21.0
122.587 23.0
122.671 16.0
122.755 21.0
122.839 26.0
122.922 15.0
123.006 26.0
123.09 28.0
123.173 30.0
123.257 27.0
123.341 34.0
123.424 24.0
123.508 47.0
123.592 60.0
123.676 60.0
123.759 74.0
123.843 80.0
123.927 60.0
124.01 76.0
124.094 79.0
124.178 105.0
124.262 150.0
124.345 266.0
124.429 656.0
124.513 2411.0
124.596 10235.0
124.68 2365.0
124.764 618.0
124.847 354.0
124.931 385.0
125.015 690.0
125.099 3505.0
125.182 3002.0
125.266 688.0
125.35 276.0
125.433 124.0
125.517 99.0
125.601 72.0
125.685 82.0
125.768 60.0
125.852 39.0
125.936 31.0
126.019 31.0
126.103 48.0
126.187 40.0
126.27 39.0
126.354 38.0
126.438 32.0
126.522 29.0
126.605 41.0
126.689 29.0
126.773 28.0
126.856 34.0
126.94 16.0
127.024 33.0
127.108 34.0
127.191 31.0
127.275 25.0
127.359 23.0
127.442 26.0
127.526 24.0
127.61 22.0
127.693 18.0
127.777 24.0
127.861 21.0
127.945 27.0
128.028 21.0
128.112 18.0
128.196 25.0
128.279 14.0
128.363 29.0
128.447 21.0
128.531 12.0
128.614 25.0
128.698 22.0
128.782 24.0
128.865 20.0
128.949 18.0
129.033 23.0
129.116 23.0
129.2 22.0
129.284 31.0
129.368 19.0
129.451 18.0
129.535 15.0
129.619 24.0
129.702 17.0
129.786 18.0
129.87 13.0
129.954 17.0
129.998 19.0