File: data/W6932c/XRD_2ThetaOmega/scan_2th-om_c_Cr2O3_35-45deg_PIXscan_4min.xy
35.0021 70.0
35.0119 75.0
35.0218 68.0
35.0316 65.0
35.0415 81.0
35.0513 68.0
35.0611 52.0
35.071 60.0
35.0808 64.0
35.0907 51.0
35.1005 59.0
35.1104 68.0
35.1202 64.0
35.1301 62.0
35.1399 63.0
35.1498 70.0
35.1596 64.0
35.1695 52.0
35.1793 58.0
35.1892 62.0
35.199 68.0
35.2089 72.0
35.2187 55.0
35.2286 59.0
35.2384 58.0
35.2483 66.0
35.2581 67.0
35.268 69.0
35.2778 63.0
35.2876 71.0
35.2975 73.0
35.3073 55.0
35.3172 66.0
35.327 79.0
35.3369 84.0
35.3467 66.0
35.3566 80.0
35.3664 88.0
35.3763 73.0
35.3861 63.0
35.396 68.0
35.4058 77.0
35.4157 62.0
35.4255 65.0
35.4354 61.0
35.4452 58.0
35.4551 66.0
35.4649 72.0
35.4748 65.0
35.4846 72.0
35.4944 63.0
35.5043 59.0
35.5141 63.0
35.524 77.0
35.5338 78.0
35.5437 48.0
35.5535 58.0
35.5634 68.0
35.5732 61.0
35.5831 77.0
35.5929 73.0
35.6028 72.0
35.6126 60.0
35.6225 51.0
35.6323 67.0
35.6422 71.0
35.652 63.0
35.6619 63.0
35.6717 51.0
35.6816 66.0
35.6914 70.0
35.7012 61.0
35.7111 68.0
35.7209 59.0
35.7308 67.0
35.7406 83.0
35.7505 56.0
35.7603 60.0
35.7702 63.0
35.78 67.0
35.7899 61.0
35.7997 65.0
35.8096 55.0
35.8194 47.0
35.8293 67.0
35.8391 62.0
35.849 75.0
35.8588 60.0
35.8687 63.0
35.8785 72.0
35.8884 72.0
35.8982 67.0
35.9081 66.0
35.9179 67.0
35.9277 64.0
35.9376 60.0
35.9474 58.0
35.9573 60.0
35.9671 68.0
35.977 80.0
35.9868 71.0
35.9967 65.0
36.0065 51.0
36.0164 79.0
36.0262 55.0
36.0361 61.0
36.0459 57.0
36.0558 75.0
36.0656 66.0
36.0755 65.0
36.0853 52.0
36.0952 58.0
36.105 70.0
36.1149 73.0
36.1247 58.0
36.1345 76.0
36.1444 72.0
36.1542 68.0
36.1641 71.0
36.1739 60.0
36.1838 52.0
36.1936 56.0
36.2035 60.0
36.2133 63.0
36.2232 62.0
36.233 63.0
36.2429 55.0
36.2527 65.0
36.2626 69.0
36.2724 46.0
36.2823 74.0
36.2921 50.0
36.302 62.0
36.3118 61.0
36.3217 60.0
36.3315 71.0
36.3414 58.0
36.3512 43.0
36.361 57.0
36.3709 49.0
36.3807 66.0
36.3906 78.0
36.4004 53.0
36.4103 60.0
36.4201 63.0
36.43 61.0
36.4398 49.0
36.4497 53.0
36.4595 60.0
36.4694 66.0
36.4792 64.0
36.4891 63.0
36.4989 70.0
36.5088 62.0
36.5186 68.0
36.5285 62.0
36.5383 46.0
36.5482 75.0
36.558 58.0
36.5678 62.0
36.5777 50.0
36.5875 47.0
36.5974 70.0
36.6072 63.0
36.6171 57.0
36.6269 57.0
36.6368 57.0
36.6466 64.0
36.6565 63.0
36.6663 64.0
36.6762 52.0
36.686 66.0
36.6959 75.0
36.7057 62.0
36.7156 63.0
36.7254 66.0
36.7353 70.0
36.7451 60.0
36.755 69.0
36.7648 56.0
36.7747 54.0
36.7845 55.0
36.7943 60.0
36.8042 67.0
36.814 73.0
36.8239 61.0
36.8337 66.0
36.8436 67.0
36.8534 65.0
36.8633 61.0
36.8731 60.0
36.883 69.0
36.8928 56.0
36.9027 58.0
36.9125 74.0
36.9224 68.0
36.9322 70.0
36.9421 69.0
36.9519 64.0
36.9618 63.0
36.9716 61.0
36.9815 71.0
36.9913 65.0
37.0011 66.0
37.011 75.0
37.0208 55.0
37.0307 65.0
37.0405 60.0
37.0504 68.0
37.0602 59.0
37.0701 65.0
37.0799 76.0
37.0898 70.0
37.0996 66.0
37.1095 78.0
37.1193 73.0
37.1292 72.0
37.139 59.0
37.1489 52.0
37.1587 55.0
37.1686 78.0
37.1784 62.0
37.1883 65.0
37.1981 74.0
37.2079 63.0
37.2178 82.0
37.2276 65.0
37.2375 78.0
37.2473 69.0
37.2572 57.0
37.267 57.0
37.2769 67.0
37.2867 87.0
37.2966 71.0
37.3064 68.0
37.3163 62.0
37.3261 63.0
37.336 61.0
37.3458 57.0
37.3557 64.0
37.3655 70.0
37.3754 78.0
37.3852 73.0
37.3951 65.0
37.4049 75.0
37.4148 112.0
37.4246 142.0
37.4344 185.0
37.4443 197.0
37.4541 188.0
37.464 133.0
37.4738 112.0
37.4837 94.0
37.4935 90.0
37.5034 93.0
37.5132 95.0
37.5231 86.0
37.5329 72.0
37.5428 86.0
37.5526 82.0
37.5625 85.0
37.5723 65.0
37.5822 63.0
37.592 63.0
37.6019 71.0
37.6117 73.0
37.6216 72.0
37.6314 80.0
37.6412 69.0
37.6511 66.0
37.6609 68.0
37.6708 87.0
37.6806 71.0
37.6905 70.0
37.7003 61.0
37.7102 56.0
37.72 66.0
37.7299 73.0
37.7397 62.0
37.7496 74.0
37.7594 70.0
37.7693 71.0
37.7791 74.0
37.789 76.0
37.7988 96.0
37.8087 66.0
37.8185 59.0
37.8284 72.0
37.8382 74.0
37.8481 72.0
37.8579 66.0
37.8677 71.0
37.8776 79.0
37.8874 68.0
37.8973 78.0
37.9071 75.0
37.917 85.0
37.9268 63.0
37.9367 70.0
37.9465 62.0
37.9564 77.0
37.9662 69.0
37.9761 61.0
37.9859 79.0
37.9958 75.0
38.0056 63.0
38.0155 79.0
38.0253 81.0
38.0352 89.0
38.045 65.0
38.0549 64.0
38.0647 70.0
38.0745 78.0
38.0844 76.0
38.0942 80.0
38.1041 84.0
38.1139 96.0
38.1238 73.0
38.1336 93.0
38.1435 92.0
38.1533 88.0
38.1632 85.0
38.173 97.0
38.1829 86.0
38.1927 76.0
38.2026 77.0
38.2124 66.0
38.2223 75.0
38.2321 67.0
38.242 85.0
38.2518 82.0
38.2617 82.0
38.2715 101.0
38.2814 88.0
38.2912 87.0
38.301 73.0
38.3109 88.0
38.3207 88.0
38.3306 77.0
38.3404 90.0
38.3503 98.0
38.3601 116.0
38.37 105.0
38.3798 92.0
38.3897 76.0
38.3995 82.0
38.4094 95.0
38.4192 95.0
38.4291 107.0
38.4389 95.0
38.4488 92.0
38.4586 96.0
38.4685 101.0
38.4783 109.0
38.4882 102.0
38.498 95.0
38.5078 90.0
38.5177 127.0
38.5275 108.0
38.5374 106.0
38.5472 107.0
38.5571 85.0
38.5669 116.0
38.5768 115.0
38.5866 123.0
38.5965 116.0
38.6063 117.0
38.6162 131.0
38.626 126.0
38.6359 110.0
38.6457 126.0
38.6556 148.0
38.6654 130.0
38.6753 134.0
38.6851 144.0
38.695 154.0
38.7048 160.0
38.7146 131.0
38.7245 152.0
38.7343 157.0
38.7442 160.0
38.754 157.0
38.7639 158.0
38.7737 138.0
38.7836 156.0
38.7934 193.0
38.8033 170.0
38.8131 188.0
38.823 193.0
38.8328 193.0
38.8427 188.0
38.8525 185.0
38.8624 215.0
38.8722 230.0
38.8821 262.0
38.8919 278.0
38.9018 221.0
38.9116 283.0
38.9215 285.0
38.9313 303.0
38.9411 288.0
38.951 338.0
38.9608 337.0
38.9707 339.0
38.9805 358.0
38.9904 351.0
39.0002 400.0
39.0101 394.0
39.0199 421.0
39.0298 481.0
39.0396 505.0
39.0495 490.0
39.0593 489.0
39.0692 585.0
39.079 609.0
39.0889 635.0
39.0987 724.0
39.1086 805.0
39.1184 815.0
39.1283 837.0
39.1381 937.0
39.1479 1040.0
39.1578 1171.0
39.1676 1346.0
39.1775 1470.0
39.1873 1622.0
39.1972 1758.0
39.207 1908.0
39.2169 1998.0
39.2267 2217.0
39.2366 2354.0
39.2464 2892.0
39.2563 3328.0
39.2661 3743.0
39.276 4275.0
39.2858 4360.0
39.2957 4448.0
39.3055 4261.0
39.3154 4214.0
39.3252 3780.0
39.3351 3585.0
39.3449 3491.0
39.3548 3295.0
39.3646 3109.0
39.3744 3052.0
39.3843 2893.0
39.3941 2792.0
39.404 2588.0
39.4138 2330.0
39.4237 2076.0
39.4335 1823.0
39.4434 1539.0
39.4532 1277.0
39.4631 1115.0
39.4729 985.0
39.4828 788.0
39.4926 710.0
39.5025 649.0
39.5123 486.0
39.5222 457.0
39.532 381.0
39.5419 378.0
39.5517 325.0
39.5616 300.0
39.5714 271.0
39.5812 216.0
39.5911 194.0
39.6009 185.0
39.6108 173.0
39.6206 166.0
39.6305 187.0
39.6403 166.0
39.6502 142.0
39.66 138.0
39.6699 109.0
39.6797 124.0
39.6896 99.0
39.6994 108.0
39.7093 119.0
39.7191 109.0
39.729 111.0
39.7388 99.0
39.7487 119.0
39.7585 117.0
39.7684 93.0
39.7782 92.0
39.788 102.0
39.7979 98.0
39.8077 101.0
39.8176 111.0
39.8274 92.0
39.8373 104.0
39.8471 90.0
39.857 108.0
39.8668 87.0
39.8767 90.0
39.8865 83.0
39.8964 84.0
39.9062 111.0
39.9161 89.0
39.9259 75.0
39.9358 88.0
39.9456 96.0
39.9555 93.0
39.9653 79.0
39.9752 74.0
39.985 54.0
39.9949 91.0
40.0047 68.0
40.0145 73.0
40.0244 76.0
40.0342 97.0
40.0441 71.0
40.0539 76.0
40.0638 88.0
40.0736 87.0
40.0835 69.0
40.0933 71.0
40.1032 64.0
40.113 93.0
40.1229 82.0
40.1327 77.0
40.1426 67.0
40.1524 72.0
40.1623 69.0
40.1721 90.0
40.182 66.0
40.1918 79.0
40.2017 70.0
40.2115 85.0
40.2213 80.0
40.2312 70.0
40.241 66.0
40.2509 70.0
40.2607 78.0
40.2706 64.0
40.2804 79.0
40.2903 66.0
40.3001 79.0
40.31 67.0
40.3198 67.0
40.3297 77.0
40.3395 83.0
40.3494 80.0
40.3592 73.0
40.3691 73.0
40.3789 63.0
40.3888 99.0
40.3986 70.0
40.4085 64.0
40.4183 69.0
40.4282 61.0
40.438 82.0
40.4478 52.0
40.4577 85.0
40.4675 75.0
40.4774 77.0
40.4872 74.0
40.4971 66.0
40.5069 66.0
40.5168 65.0
40.5266 77.0
40.5365 89.0
40.5463 72.0
40.5562 72.0
40.566 68.0
40.5759 75.0
40.5857 70.0
40.5956 83.0
40.6054 80.0
40.6153 87.0
40.6251 66.0
40.635 77.0
40.6448 80.0
40.6546 69.0
40.6645 91.0
40.6743 80.0
40.6842 75.0
40.694 80.0
40.7039 78.0
40.7137 83.0
40.7236 83.0
40.7334 97.0
40.7433 77.0
40.7531 80.0
40.763 82.0
40.7728 89.0
40.7827 94.0
40.7925 81.0
40.8024 91.0
40.8122 100.0
40.8221 90.0
40.8319 99.0
40.8418 83.0
40.8516 94.0
40.8615 95.0
40.8713 81.0
40.8811 75.0
40.891 98.0
40.9008 117.0
40.9107 107.0
40.9205 92.0
40.9304 89.0
40.9402 99.0
40.9501 106.0
40.9599 88.0
40.9698 77.0
40.9796 90.0
40.9895 107.0
40.9993 94.0
41.0092 101.0
41.019 96.0
41.0289 99.0
41.0387 118.0
41.0486 101.0
41.0584 99.0
41.0683 88.0
41.0781 103.0
41.0879 106.0
41.0978 115.0
41.1076 90.0
41.1175 106.0
41.1273 97.0
41.1372 101.0
41.147 102.0
41.1569 97.0
41.1667 99.0
41.1766 109.0
41.1864 139.0
41.1963 107.0
41.2061 121.0
41.216 106.0
41.2258 124.0
41.2357 107.0
41.2455 117.0
41.2554 128.0
41.2652 143.0
41.2751 132.0
41.2849 117.0
41.2947 122.0
41.3046 129.0
41.3144 130.0
41.3243 175.0
41.3341 158.0
41.344 161.0
41.3538 164.0
41.3637 169.0
41.3735 186.0
41.3834 187.0
41.3932 213.0
41.4031 333.0
41.4129 337.0
41.4228 379.0
41.4326 427.0
41.4425 443.0
41.4523 436.0
41.4622 453.0
41.472 449.0
41.4819 445.0
41.4917 419.0
41.5016 467.0
41.5114 500.0
41.5212 593.0
41.5311 671.0
41.5409 835.0
41.5508 1121.0
41.5606 1452.0
41.5705 2132.0
41.5803 3505.0
41.5902 7160.0
41.6 18791.0
41.6099 37894.0
41.6197 44112.0
41.6296 37140.0
41.6394 19231.0
41.6493 8253.0
41.6591 4323.0
41.669 2767.0
41.6788 2419.0
41.6887 2801.0
41.6985 4681.0
41.7084 9991.0
41.7182 18403.0
41.728 21574.0
41.7379 18322.0
41.7477 10170.0
41.7576 4647.0
41.7674 2355.0
41.7773 1407.0
41.7871 962.0
41.797 775.0
41.8068 627.0
41.8167 534.0
41.8265 473.0
41.8364 409.0
41.8462 345.0
41.8561 318.0
41.8659 297.0
41.8758 278.0
41.8856 271.0
41.8955 218.0
41.9053 260.0
41.9152 192.0
41.925 201.0
41.9349 166.0
41.9447 158.0
41.9545 171.0
41.9644 143.0
41.9742 134.0
41.9841 149.0
41.9939 158.0
42.0038 130.0
42.0136 139.0
42.0235 148.0
42.0333 119.0
42.0432 111.0
42.053 132.0
42.0629 112.0
42.0727 113.0
42.0826 119.0
42.0924 115.0
42.1023 123.0
42.1121 122.0
42.122 102.0
42.1318 102.0
42.1417 128.0
42.1515 102.0
42.1613 79.0
42.1712 102.0
42.181 98.0
42.1909 96.0
42.2007 75.0
42.2106 120.0
42.2204 96.0
42.2303 91.0
42.2401 104.0
42.25 88.0
42.2598 89.0
42.2697 82.0
42.2795 94.0
42.2894 103.0
42.2992 87.0
42.3091 102.0
42.3189 80.0
42.3288 60.0
42.3386 90.0
42.3485 69.0
42.3583 69.0
42.3682 80.0
42.378 80.0
42.3878 91.0
42.3977 73.0
42.4075 87.0
42.4174 92.0
42.4272 88.0
42.4371 64.0
42.4469 84.0
42.4568 74.0
42.4666 80.0
42.4765 52.0
42.4863 81.0
42.4962 69.0
42.506 73.0
42.5159 78.0
42.5257 66.0
42.5356 77.0
42.5454 88.0
42.5553 76.0
42.5651 77.0
42.575 64.0
42.5848 68.0
42.5946 74.0
42.6045 65.0
42.6143 71.0
42.6242 76.0
42.634 79.0
42.6439 70.0
42.6537 77.0
42.6636 62.0
42.6734 61.0
42.6833 68.0
42.6931 77.0
42.703 74.0
42.7128 73.0
42.7227 69.0
42.7325 77.0
42.7424 86.0
42.7522 65.0
42.7621 61.0
42.7719 73.0
42.7818 68.0
42.7916 66.0
42.8014 66.0
42.8113 75.0
42.8211 66.0
42.831 67.0
42.8408 76.0
42.8507 80.0
42.8605 76.0
42.8704 71.0
42.8802 60.0
42.8901 78.0
42.8999 64.0
42.9098 70.0
42.9196 94.0
42.9295 89.0
42.9393 63.0
42.9492 65.0
42.959 68.0
42.9689 65.0
42.9787 55.0
42.9886 67.0
42.9984 77.0
43.0083 66.0
43.0181 67.0
43.0279 67.0
43.0378 58.0
43.0476 70.0
43.0575 71.0
43.0673 74.0
43.0772 64.0
43.087 57.0
43.0969 69.0
43.1067 57.0
43.1166 57.0
43.1264 71.0
43.1363 49.0
43.1461 66.0
43.156 77.0
43.1658 83.0
43.1757 66.0
43.1855 60.0
43.1954 58.0
43.2052 57.0
43.2151 65.0
43.2249 51.0
43.2347 74.0
43.2446 60.0
43.2544 66.0
43.2643 71.0
43.2741 56.0
43.284 57.0
43.2938 68.0
43.3037 71.0
43.3135 70.0
43.3234 49.0
43.3332 62.0
43.3431 64.0
43.3529 62.0
43.3628 70.0
43.3726 63.0
43.3825 71.0
43.3923 54.0
43.4022 80.0
43.412 64.0
43.4219 81.0
43.4317 54.0
43.4416 66.0
43.4514 69.0
43.4612 78.0
43.4711 76.0
43.4809 60.0
43.4908 68.0
43.5006 79.0
43.5105 64.0
43.5203 59.0
43.5302 65.0
43.54 64.0
43.5499 66.0
43.5597 64.0
43.5696 64.0
43.5794 66.0
43.5893 63.0
43.5991 46.0
43.609 60.0
43.6188 71.0
43.6287 67.0
43.6385 59.0
43.6484 57.0
43.6582 62.0
43.668 58.0
43.6779 75.0
43.6877 77.0
43.6976 70.0
43.7074 76.0
43.7173 66.0
43.7271 68.0
43.737 78.0
43.7468 66.0
43.7567 65.0
43.7665 80.0
43.7764 94.0
43.7862 90.0
43.7961 66.0
43.8059 64.0
43.8158 83.0
43.8256 77.0
43.8355 78.0
43.8453 73.0
43.8552 74.0
43.865 64.0
43.8749 62.0
43.8847 75.0
43.8945 84.0
43.9044 71.0
43.9142 71.0
43.9241 79.0
43.9339 74.0
43.9438 71.0
43.9536 85.0
43.9635 76.0
43.9733 94.0
43.9832 88.0
43.993 74.0
44.0029 74.0
44.0127 90.0
44.0226 77.0
44.0324 80.0
44.0423 78.0
44.0521 83.0
44.062 82.0
44.0718 77.0
44.0817 86.0
44.0915 79.0
44.1013 88.0
44.1112 99.0
44.121 88.0
44.1309 81.0
44.1407 83.0
44.1506 73.0
44.1604 95.0
44.1703 114.0
44.1801 92.0
44.19 91.0
44.1998 87.0
44.2097 94.0
44.2195 85.0
44.2294 99.0
44.2392 95.0
44.2491 96.0
44.2589 113.0
44.2688 107.0
44.2786 108.0
44.2885 137.0
44.2983 105.0
44.3081 120.0
44.318 122.0
44.3278 125.0
44.3377 126.0
44.3475 131.0
44.3574 140.0
44.3672 134.0
44.3771 130.0
44.3869 146.0
44.3968 145.0
44.4066 125.0
44.4165 151.0
44.4263 123.0
44.4362 154.0
44.446 135.0
44.4559 142.0
44.4657 113.0
44.4756 124.0
44.4854 131.0
44.4953 146.0
44.5051 103.0
44.515 133.0
44.5248 100.0
44.5346 124.0
44.5445 124.0
44.5543 124.0
44.5642 110.0
44.574 126.0
44.5839 107.0
44.5937 123.0
44.6036 109.0
44.6134 94.0
44.6233 95.0
44.6331 81.0
44.643 82.0
44.6528 99.0
44.6627 95.0
44.6725 79.0
44.6824 89.0
44.6922 100.0
44.7021 77.0
44.7119 75.0
44.7218 79.0
44.7316 68.0
44.7414 76.0
44.7513 70.0
44.7611 69.0
44.771 70.0
44.7808 83.0
44.7907 75.0
44.8005 57.0
44.8104 70.0
44.8202 64.0
44.8301 83.0
44.8399 59.0
44.8498 79.0
44.8596 67.0
44.8695 75.0
44.8793 73.0
44.8892 69.0
44.899 72.0
44.9089 74.0
44.9187 70.0
44.9286 62.0
44.9384 62.0
44.9483 73.0
44.9581 78.0
44.9679 69.0
44.9778 63.0
44.9876 62.0
44.9975 61.0