File: data/w6931r/XRD_Omega/film_r_scan_omega_4deg_step_0.005deg0.xy
22.11180 52.0
22.11680 40.0
22.12180 57.0
22.12680 37.0
22.13180 41.0
22.13680 50.0
22.14180 41.0
22.14680 36.0
22.15180 49.0
22.15680 33.0
22.16180 41.0
22.16680 50.0
22.17180 48.0
22.17680 39.0
22.18180 48.0
22.18680 47.0
22.19180 38.0
22.19680 48.0
22.20180 53.0
22.20680 51.0
22.21180 41.0
22.21680 44.0
22.22180 52.0
22.22680 50.0
22.23180 51.0
22.23680 52.0
22.24180 45.0
22.24680 45.0
22.25180 56.0
22.25680 53.0
22.26180 48.0
22.26680 45.0
22.27180 49.0
22.27680 66.0
22.28180 64.0
22.28680 51.0
22.29180 54.0
22.29680 48.0
22.30180 44.0
22.30680 37.0
22.31180 46.0
22.31680 46.0
22.32180 30.0
22.32680 37.0
22.33180 45.0
22.33680 64.0
22.34180 49.0
22.34680 56.0
22.35180 53.0
22.35680 59.0
22.36180 63.0
22.36680 54.0
22.37180 42.0
22.37680 60.0
22.38180 49.0
22.38680 71.0
22.39180 63.0
22.39680 43.0
22.40180 45.0
22.40680 49.0
22.41180 57.0
22.41680 60.0
22.42180 57.0
22.42680 65.0
22.43180 58.0
22.43680 66.0
22.44180 51.0
22.44680 60.0
22.45180 63.0
22.45680 61.0
22.46180 59.0
22.46680 55.0
22.47180 48.0
22.47680 59.0
22.48180 55.0
22.48680 59.0
22.49180 55.0
22.49680 46.0
22.50180 57.0
22.50680 66.0
22.51180 80.0
22.51680 55.0
22.52180 49.0
22.52680 67.0
22.53180 53.0
22.53680 45.0
22.54180 67.0
22.54680 76.0
22.55180 56.0
22.55680 73.0
22.56180 70.0
22.56680 61.0
22.57180 59.0
22.57680 77.0
22.58180 55.0
22.58680 71.0
22.59180 81.0
22.59680 84.0
22.60180 60.0
22.60680 70.0
22.61180 68.0
22.61680 66.0
22.62180 66.0
22.62680 86.0
22.63180 71.0
22.63680 77.0
22.64180 62.0
22.64680 75.0
22.65180 86.0
22.65680 69.0
22.66180 84.0
22.66680 67.0
22.67180 83.0
22.67680 96.0
22.68180 61.0
22.68680 78.0
22.69180 92.0
22.69680 78.0
22.70180 89.0
22.70680 82.0
22.71180 76.0
22.71680 82.0
22.72180 79.0
22.72680 84.0
22.73180 89.0
22.73680 104.0
22.74180 97.0
22.74680 88.0
22.75180 74.0
22.75680 98.0
22.76180 94.0
22.76680 92.0
22.77180 92.0
22.77680 81.0
22.78180 94.0
22.78680 82.0
22.79180 101.0
22.79680 110.0
22.80180 93.0
22.80680 86.0
22.81180 111.0
22.81680 96.0
22.82180 96.0
22.82680 90.0
22.83180 106.0
22.83680 121.0
22.84180 103.0
22.84680 118.0
22.85180 113.0
22.85680 110.0
22.86180 123.0
22.86680 136.0
22.87180 118.0
22.87680 109.0
22.88180 115.0
22.88680 131.0
22.89180 127.0
22.89680 122.0
22.90180 132.0
22.90680 103.0
22.91180 110.0
22.91680 119.0
22.92180 110.0
22.92680 124.0
22.93180 124.0
22.93680 142.0
22.94180 122.0
22.94680 143.0
22.95180 146.0
22.95680 153.0
22.96180 123.0
22.96680 150.0
22.97180 164.0
22.97680 163.0
22.98180 141.0
22.98680 176.0
22.99180 165.0
22.99680 170.0
23.00180 143.0
23.00680 160.0
23.01180 179.0
23.01680 189.0
23.02180 156.0
23.02680 169.0
23.03180 161.0
23.03680 200.0
23.04180 182.0
23.04680 189.0
23.05180 185.0
23.05680 211.0
23.06180 201.0
23.06680 180.0
23.07180 221.0
23.07680 191.0
23.08180 202.0
23.08680 227.0
23.09180 229.0
23.09680 209.0
23.10180 205.0
23.10680 211.0
23.11180 222.0
23.11680 234.0
23.12180 247.0
23.12680 213.0
23.13180 218.0
23.13680 237.0
23.14180 210.0
23.14680 237.0
23.15180 248.0
23.15680 215.0
23.16180 234.0
23.16680 233.0
23.17180 232.0
23.17680 252.0
23.18180 250.0
23.18680 256.0
23.19180 269.0
23.19680 233.0
23.20180 290.0
23.20680 298.0
23.21180 259.0
23.21680 275.0
23.22180 285.0
23.22680 277.0
23.23180 296.0
23.23680 292.0
23.24180 302.0
23.24680 323.0
23.25180 315.0
23.25680 304.0
23.26180 308.0
23.26680 329.0
23.27180 328.0
23.27680 347.0
23.28180 351.0
23.28680 373.0
23.29180 346.0
23.29680 364.0
23.30180 368.0
23.30680 367.0
23.31180 368.0
23.31680 392.0
23.32180 389.0
23.32680 409.0
23.33180 423.0
23.33680 406.0
23.34180 414.0
23.34680 431.0
23.35180 437.0
23.35680 441.0
23.36180 500.0
23.36680 435.0
23.37180 423.0
23.37680 473.0
23.38180 473.0
23.38680 477.0
23.39180 476.0
23.39680 551.0
23.40180 506.0
23.40680 522.0
23.41180 536.0
23.41680 542.0
23.42180 543.0
23.42680 535.0
23.43180 545.0
23.43680 558.0
23.44180 608.0
23.44680 567.0
23.45180 599.0
23.45680 570.0
23.46180 603.0
23.46680 556.0
23.47180 585.0
23.47680 626.0
23.48180 624.0
23.48680 677.0
23.49180 673.0
23.49680 682.0
23.50180 639.0
23.50680 655.0
23.51180 740.0
23.51680 692.0
23.52180 720.0
23.52680 712.0
23.53180 745.0
23.53680 737.0
23.54180 749.0
23.54680 782.0
23.55180 784.0
23.55680 870.0
23.56180 781.0
23.56680 852.0
23.57180 778.0
23.57680 852.0
23.58180 936.0
23.58680 878.0
23.59180 864.0
23.59680 813.0
23.60180 951.0
23.60680 938.0
23.61180 955.0
23.61680 925.0
23.62180 1001.0
23.62680 999.0
23.63180 1002.0
23.63680 1025.0
23.64180 930.0
23.64680 1058.0
23.65180 1050.0
23.65680 1065.0
23.66180 1077.0
23.66680 1092.0
23.67180 1084.0
23.67680 1085.0
23.68180 1177.0
23.68680 1159.0
23.69180 1190.0
23.69680 1136.0
23.70180 1253.0
23.70680 1211.0
23.71180 1146.0
23.71680 1186.0
23.72180 1254.0
23.72680 1208.0
23.73180 1257.0
23.73680 1251.0
23.74180 1299.0
23.74680 1312.0
23.75180 1396.0
23.75680 1357.0
23.76180 1390.0
23.76680 1383.0
23.77180 1324.0
23.77680 1361.0
23.78180 1381.0
23.78680 1424.0
23.79180 1403.0
23.79680 1454.0
23.80180 1513.0
23.80680 1413.0
23.81180 1557.0
23.81680 1433.0
23.82180 1488.0
23.82680 1536.0
23.83180 1545.0
23.83680 1586.0
23.84180 1606.0
23.84680 1603.0
23.85180 1623.0
23.85680 1593.0
23.86180 1654.0
23.86680 1658.0
23.87180 1742.0
23.87680 1688.0
23.88180 1685.0
23.88680 1684.0
23.89180 1874.0
23.89680 1665.0
23.90180 1754.0
23.90680 1784.0
23.91180 1873.0
23.91680 1789.0
23.92180 1739.0
23.92680 1699.0
23.93180 1879.0
23.93680 1821.0
23.94180 1768.0
23.94680 1896.0
23.95180 1905.0
23.95680 2027.0
23.96180 1881.0
23.96680 1906.0
23.97180 1966.0
23.97680 1962.0
23.98180 1891.0
23.98680 1912.0
23.99180 1953.0
23.99680 1915.0
24.00180 2017.0
24.00680 2029.0
24.01180 1877.0
24.01680 2006.0
24.02180 1972.0
24.02680 1954.0
24.03180 2078.0
24.03680 2018.0
24.04180 2040.0
24.04680 2003.0
24.05180 1951.0
24.05680 2032.0
24.06180 1981.0
24.06680 2062.0
24.07180 1978.0
24.07680 2034.0
24.08180 2086.0
24.08680 2072.0
24.09180 2103.0
24.09680 2045.0
24.10180 2051.0
24.10680 2072.0
24.11180 2069.0
24.11680 2064.0
24.12180 2050.0
24.12680 2100.0
24.13180 1933.0
24.13680 2019.0
24.14180 1961.0
24.14680 2002.0
24.15180 1932.0
24.15680 2069.0
24.16180 1962.0
24.16680 1955.0
24.17180 2006.0
24.17680 1934.0
24.18180 1953.0
24.18680 1975.0
24.19180 1871.0
24.19680 1912.0
24.20180 1942.0
24.20680 1944.0
24.21180 1891.0
24.21680 1912.0
24.22180 1846.0
24.22680 1882.0
24.23180 1833.0
24.23680 1805.0
24.24180 1806.0
24.24680 1771.0
24.25180 1833.0
24.25680 1746.0
24.26180 1792.0
24.26680 1808.0
24.27180 1762.0
24.27680 1734.0
24.28180 1810.0
24.28680 1728.0
24.29180 1689.0
24.29680 1760.0
24.30180 1694.0
24.30680 1677.0
24.31180 1639.0
24.31680 1663.0
24.32180 1615.0
24.32680 1582.0
24.33180 1536.0
24.33680 1611.0
24.34180 1602.0
24.34680 1493.0
24.35180 1486.0
24.35680 1474.0
24.36180 1536.0
24.36680 1506.0
24.37180 1391.0
24.37680 1564.0
24.38180 1440.0
24.38680 1457.0
24.39180 1445.0
24.39680 1396.0
24.40180 1384.0
24.40680 1362.0
24.41180 1315.0
24.41680 1256.0
24.42180 1289.0
24.42680 1308.0
24.43180 1204.0
24.43680 1197.0
24.44180 1247.0
24.44680 1100.0
24.45180 1196.0
24.45680 1148.0
24.46180 1164.0
24.46680 1075.0
24.47180 1163.0
24.47680 1128.0
24.48180 1095.0
24.48680 1117.0
24.49180 1063.0
24.49680 998.0
24.50180 932.0
24.50680 1051.0
24.51180 979.0
24.51680 955.0
24.52180 921.0
24.52680 950.0
24.53180 932.0
24.53680 951.0
24.54180 892.0
24.54680 899.0
24.55180 971.0
24.55680 858.0
24.56180 840.0
24.56680 815.0
24.57180 797.0
24.57680 806.0
24.58180 742.0
24.58680 836.0
24.59180 772.0
24.59680 796.0
24.60180 726.0
24.60680 724.0
24.61180 677.0
24.61680 689.0
24.62180 653.0
24.62680 700.0
24.63180 711.0
24.63680 703.0
24.64180 672.0
24.64680 582.0
24.65180 629.0
24.65680 617.0
24.66180 627.0
24.66680 620.0
24.67180 607.0
24.67680 611.0
24.68180 608.0
24.68680 562.0
24.69180 525.0
24.69680 520.0
24.70180 568.0
24.70680 521.0
24.71180 532.0
24.71680 533.0
24.72180 479.0
24.72680 515.0
24.73180 521.0
24.73680 491.0
24.74180 480.0
24.74680 465.0
24.75180 477.0
24.75680 446.0
24.76180 435.0
24.76680 421.0
24.77180 416.0
24.77680 428.0
24.78180 418.0
24.78680 402.0
24.79180 404.0
24.79680 398.0
24.80180 378.0
24.80680 357.0
24.81180 356.0
24.81680 386.0
24.82180 372.0
24.82680 374.0
24.83180 405.0
24.83680 328.0
24.84180 346.0
24.84680 361.0
24.85180 345.0
24.85680 345.0
24.86180 340.0
24.86680 360.0
24.87180 365.0
24.87680 387.0
24.88180 392.0
24.88680 359.0
24.89180 353.0
24.89680 346.0
24.90180 324.0
24.90680 317.0
24.91180 297.0
24.91680 301.0
24.92180 288.0
24.92680 237.0
24.93180 274.0
24.93680 232.0
24.94180 260.0
24.94680 205.0
24.95180 230.0
24.95680 215.0
24.96180 235.0
24.96680 227.0
24.97180 219.0
24.97680 211.0
24.98180 217.0
24.98680 222.0
24.99180 241.0
24.99680 196.0
25.00180 197.0
25.00680 199.0
25.01180 173.0
25.01680 180.0
25.02180 197.0
25.02680 181.0
25.03180 178.0
25.03680 174.0
25.04180 166.0
25.04680 148.0
25.05180 190.0
25.05680 140.0
25.06180 154.0
25.06680 143.0
25.07180 149.0
25.07680 129.0
25.08180 143.0
25.08680 142.0
25.09180 137.0
25.09680 136.0
25.10180 145.0
25.10680 139.0
25.11180 133.0
25.11680 130.0
25.12180 132.0
25.12680 137.0
25.13180 128.0
25.13680 118.0
25.14180 115.0
25.14680 112.0
25.15180 98.0
25.15680 106.0
25.16180 123.0
25.16680 127.0
25.17180 99.0
25.17680 95.0
25.18180 118.0
25.18680 89.0
25.19180 116.0
25.19680 108.0
25.20180 105.0
25.20680 104.0
25.21180 117.0
25.21680 111.0
25.22180 104.0
25.22680 81.0
25.23180 80.0
25.23680 112.0
25.24180 91.0
25.24680 95.0
25.25180 104.0
25.25680 99.0
25.26180 82.0
25.26680 95.0
25.27180 83.0
25.27680 103.0
25.28180 73.0
25.28680 99.0
25.29180 100.0
25.29680 77.0
25.30180 75.0
25.30680 78.0
25.31180 101.0
25.31680 72.0
25.32180 69.0
25.32680 83.0
25.33180 60.0
25.33680 85.0
25.34180 76.0
25.34680 70.0
25.35180 69.0
25.35680 86.0
25.36180 74.0
25.36680 87.0
25.37180 74.0
25.37680 72.0
25.38180 70.0
25.38680 70.0
25.39180 66.0
25.39680 77.0
25.40180 81.0
25.40680 68.0
25.41180 75.0
25.41680 71.0
25.42180 68.0
25.42680 84.0
25.43180 68.0
25.43680 64.0
25.44180 68.0
25.44680 63.0
25.45180 76.0
25.45680 53.0
25.46180 63.0
25.46680 66.0
25.47180 71.0
25.47680 64.0
25.48180 63.0
25.48680 69.0
25.49180 75.0
25.49680 72.0
25.50180 56.0
25.50680 70.0
25.51180 62.0
25.51680 58.0
25.52180 58.0
25.52680 58.0
25.53180 41.0
25.53680 54.0
25.54180 56.0
25.54680 52.0
25.55180 43.0
25.55680 59.0
25.56180 47.0
25.56680 49.0
25.57180 44.0
25.57680 48.0
25.58180 43.0
25.58680 55.0
25.59180 58.0
25.59680 51.0
25.60180 43.0
25.60680 51.0
25.61180 36.0
25.61680 54.0
25.62180 57.0
25.62680 39.0
25.63180 52.0
25.63680 49.0
25.64180 46.0
25.64680 49.0
25.65180 50.0
25.65680 38.0
25.66180 47.0
25.66680 60.0
25.67180 50.0
25.67680 42.0
25.68180 51.0
25.68680 47.0
25.69180 61.0
25.69680 53.0
25.70180 44.0
25.70680 47.0
25.71180 57.0
25.71680 43.0
25.72180 54.0
25.72680 33.0
25.73180 41.0
25.73680 30.0
25.74180 50.0
25.74680 45.0
25.75180 52.0
25.75680 43.0
25.76180 34.0
25.76680 59.0
25.77180 32.0
25.77680 46.0
25.78180 29.0
25.78680 41.0
25.79180 32.0
25.79680 45.0
25.80180 51.0
25.80680 53.0
25.81180 39.0
25.81680 52.0
25.82180 41.0
25.82680 39.0
25.83180 44.0
25.83680 46.0
25.84180 34.0
25.84680 36.0
25.85180 37.0
25.85680 41.0
25.86180 39.0
25.86680 27.0
25.87180 39.0
25.87680 37.0
25.88180 36.0
25.88680 42.0
25.89180 37.0
25.89680 28.0
25.90180 42.0
25.90680 41.0
25.91180 37.0
25.91680 39.0
25.92180 28.0
25.92680 48.0
25.93180 33.0
25.93680 39.0
25.94180 49.0
25.94680 47.0
25.95180 39.0
25.95680 48.0
25.96180 43.0
25.96680 42.0
25.97180 35.0
25.97680 40.0
25.98180 40.0
25.98680 31.0
25.99180 41.0
25.99680 47.0
26.00180 31.0
26.00680 50.0
26.01180 35.0
26.01680 35.0
26.02180 35.0
26.02680 25.0
26.03180 28.0
26.03680 40.0
26.04180 45.0
26.04680 39.0
26.05180 46.0
26.05680 37.0
26.06180 37.0
26.06680 38.0
26.07180 30.0