File: data/W6778r/XRD_Omega/scan_omega_4deg_step_0.005deg0_4.xy
23.60170 34.0
23.60670 33.0
23.61170 37.0
23.61670 53.0
23.62170 33.0
23.62670 32.0
23.63170 40.0
23.63670 47.0
23.64170 39.0
23.64670 36.0
23.65170 49.0
23.65670 42.0
23.66170 51.0
23.66670 39.0
23.67170 30.0
23.67670 47.0
23.68170 33.0
23.68670 41.0
23.69170 44.0
23.69670 40.0
23.70170 27.0
23.70670 35.0
23.71170 48.0
23.71670 54.0
23.72170 48.0
23.72670 42.0
23.73170 38.0
23.73670 25.0
23.74170 37.0
23.74670 44.0
23.75170 40.0
23.75670 47.0
23.76170 50.0
23.76670 37.0
23.77170 35.0
23.77670 43.0
23.78170 50.0
23.78670 49.0
23.79170 53.0
23.79670 39.0
23.80170 38.0
23.80670 45.0
23.81170 45.0
23.81670 44.0
23.82170 58.0
23.82670 40.0
23.83170 32.0
23.83670 35.0
23.84170 49.0
23.84670 36.0
23.85170 56.0
23.85670 41.0
23.86170 43.0
23.86670 45.0
23.87170 29.0
23.87670 33.0
23.88170 50.0
23.88670 53.0
23.89170 34.0
23.89670 38.0
23.90170 39.0
23.90670 51.0
23.91170 38.0
23.91670 49.0
23.92170 48.0
23.92670 40.0
23.93170 40.0
23.93670 53.0
23.94170 50.0
23.94670 43.0
23.95170 58.0
23.95670 26.0
23.96170 43.0
23.96670 46.0
23.97170 45.0
23.97670 44.0
23.98170 47.0
23.98670 46.0
23.99170 66.0
23.99670 59.0
24.00170 44.0
24.00670 53.0
24.01170 40.0
24.01670 47.0
24.02170 58.0
24.02670 46.0
24.03170 58.0
24.03670 37.0
24.04170 40.0
24.04670 48.0
24.05170 52.0
24.05670 40.0
24.06170 76.0
24.06670 47.0
24.07170 54.0
24.07670 53.0
24.08170 56.0
24.08670 49.0
24.09170 41.0
24.09670 49.0
24.10170 51.0
24.10670 57.0
24.11170 46.0
24.11670 43.0
24.12170 62.0
24.12670 67.0
24.13170 59.0
24.13670 53.0
24.14170 52.0
24.14670 73.0
24.15170 65.0
24.15670 66.0
24.16170 62.0
24.16670 66.0
24.17170 66.0
24.17670 62.0
24.18170 52.0
24.18670 59.0
24.19170 53.0
24.19670 72.0
24.20170 66.0
24.20670 58.0
24.21170 58.0
24.21670 73.0
24.22170 54.0
24.22670 55.0
24.23170 67.0
24.23670 66.0
24.24170 60.0
24.24670 78.0
24.25170 84.0
24.25670 64.0
24.26170 68.0
24.26670 95.0
24.27170 80.0
24.27670 72.0
24.28170 83.0
24.28670 63.0
24.29170 75.0
24.29670 78.0
24.30170 84.0
24.30670 77.0
24.31170 78.0
24.31670 83.0
24.32170 82.0
24.32670 72.0
24.33170 87.0
24.33670 86.0
24.34170 79.0
24.34670 91.0
24.35170 80.0
24.35670 102.0
24.36170 96.0
24.36670 114.0
24.37170 81.0
24.37670 83.0
24.38170 97.0
24.38670 102.0
24.39170 101.0
24.39670 88.0
24.40170 100.0
24.40670 95.0
24.41170 103.0
24.41670 92.0
24.42170 98.0
24.42670 108.0
24.43170 111.0
24.43670 117.0
24.44170 93.0
24.44670 104.0
24.45170 92.0
24.45670 118.0
24.46170 104.0
24.46670 97.0
24.47170 107.0
24.47670 106.0
24.48170 121.0
24.48670 112.0
24.49170 117.0
24.49670 129.0
24.50170 136.0
24.50670 129.0
24.51170 157.0
24.51670 107.0
24.52170 130.0
24.52670 144.0
24.53170 181.0
24.53670 124.0
24.54170 144.0
24.54670 175.0
24.55170 165.0
24.55670 139.0
24.56170 144.0
24.56670 168.0
24.57170 146.0
24.57670 146.0
24.58170 146.0
24.58670 162.0
24.59170 145.0
24.59670 175.0
24.60170 169.0
24.60670 182.0
24.61170 180.0
24.61670 174.0
24.62170 169.0
24.62670 187.0
24.63170 173.0
24.63670 193.0
24.64170 199.0
24.64670 217.0
24.65170 200.0
24.65670 192.0
24.66170 201.0
24.66670 203.0
24.67170 231.0
24.67670 241.0
24.68170 225.0
24.68670 258.0
24.69170 231.0
24.69670 254.0
24.70170 245.0
24.70670 244.0
24.71170 229.0
24.71670 231.0
24.72170 226.0
24.72670 257.0
24.73170 282.0
24.73670 276.0
24.74170 292.0
24.74670 278.0
24.75170 263.0
24.75670 266.0
24.76170 274.0
24.76670 301.0
24.77170 290.0
24.77670 288.0
24.78170 352.0
24.78670 284.0
24.79170 331.0
24.79670 309.0
24.80170 309.0
24.80670 363.0
24.81170 340.0
24.81670 346.0
24.82170 345.0
24.82670 379.0
24.83170 359.0
24.83670 394.0
24.84170 386.0
24.84670 411.0
24.85170 410.0
24.85670 412.0
24.86170 418.0
24.86670 417.0
24.87170 438.0
24.87670 434.0
24.88170 448.0
24.88670 469.0
24.89170 497.0
24.89670 500.0
24.90170 457.0
24.90670 546.0
24.91170 506.0
24.91670 554.0
24.92170 526.0
24.92670 562.0
24.93170 575.0
24.93670 605.0
24.94170 605.0
24.94670 603.0
24.95170 622.0
24.95670 633.0
24.96170 619.0
24.96670 687.0
24.97170 698.0
24.97670 698.0
24.98170 716.0
24.98670 751.0
24.99170 717.0
24.99670 722.0
25.00170 768.0
25.00670 765.0
25.01170 839.0
25.01670 824.0
25.02170 896.0
25.02670 829.0
25.03170 860.0
25.03670 880.0
25.04170 907.0
25.04670 913.0
25.05170 907.0
25.05670 950.0
25.06170 959.0
25.06670 1026.0
25.07170 989.0
25.07670 1015.0
25.08170 1042.0
25.08670 983.0
25.09170 1116.0
25.09670 1114.0
25.10170 1090.0
25.10670 1085.0
25.11170 1156.0
25.11670 1188.0
25.12170 1225.0
25.12670 1171.0
25.13170 1294.0
25.13670 1333.0
25.14170 1361.0
25.14670 1397.0
25.15170 1336.0
25.15670 1404.0
25.16170 1442.0
25.16670 1472.0
25.17170 1462.0
25.17670 1449.0
25.18170 1489.0
25.18670 1483.0
25.19170 1580.0
25.19670 1611.0
25.20170 1504.0
25.20670 1616.0
25.21170 1614.0
25.21670 1675.0
25.22170 1710.0
25.22670 1797.0
25.23170 1746.0
25.23670 1760.0
25.24170 1840.0
25.24670 1847.0
25.25170 1859.0
25.25670 1913.0
25.26170 1982.0
25.26670 1933.0
25.27170 1991.0
25.27670 2064.0
25.28170 2083.0
25.28670 2020.0
25.29170 2024.0
25.29670 2029.0
25.30170 2108.0
25.30670 2066.0
25.31170 1998.0
25.31670 2187.0
25.32170 2173.0
25.32670 2220.0
25.33170 2209.0
25.33670 2278.0
25.34170 2245.0
25.34670 2378.0
25.35170 2335.0
25.35670 2408.0
25.36170 2546.0
25.36670 2428.0
25.37170 2447.0
25.37670 2462.0
25.38170 2515.0
25.38670 2456.0
25.39170 2487.0
25.39670 2481.0
25.40170 2694.0
25.40670 2629.0
25.41170 2523.0
25.41670 2539.0
25.42170 2674.0
25.42670 2618.0
25.43170 2691.0
25.43670 2643.0
25.44170 2699.0
25.44670 2703.0
25.45170 2724.0
25.45670 2719.0
25.46170 2789.0
25.46670 2682.0
25.47170 2746.0
25.47670 2760.0
25.48170 2772.0
25.48670 2860.0
25.49170 2807.0
25.49670 2872.0
25.50170 2931.0
25.50670 2892.0
25.51170 2832.0
25.51670 2878.0
25.52170 2838.0
25.52670 2890.0
25.53170 2967.0
25.53670 2928.0
25.54170 2905.0
25.54670 2952.0
25.55170 2863.0
25.55670 2942.0
25.56170 2916.0
25.56670 2958.0
25.57170 2994.0
25.57670 2972.0
25.58170 2841.0
25.58670 2919.0
25.59170 2914.0
25.59670 2917.0
25.60170 3003.0
25.60670 2951.0
25.61170 3022.0
25.61670 2902.0
25.62170 2999.0
25.62670 2886.0
25.63170 2916.0
25.63670 2892.0
25.64170 2823.0
25.64670 2939.0
25.65170 2911.0
25.65670 2859.0
25.66170 2825.0
25.66670 2924.0
25.67170 2829.0
25.67670 2901.0
25.68170 2773.0
25.68670 2752.0
25.69170 2828.0
25.69670 2706.0
25.70170 2782.0
25.70670 2780.0
25.71170 2728.0
25.71670 2661.0
25.72170 2688.0
25.72670 2654.0
25.73170 2699.0
25.73670 2646.0
25.74170 2715.0
25.74670 2649.0
25.75170 2558.0
25.75670 2618.0
25.76170 2620.0
25.76670 2453.0
25.77170 2512.0
25.77670 2482.0
25.78170 2456.0
25.78670 2455.0
25.79170 2479.0
25.79670 2420.0
25.80170 2411.0
25.80670 2302.0
25.81170 2332.0
25.81670 2394.0
25.82170 2279.0
25.82670 2300.0
25.83170 2327.0
25.83670 2279.0
25.84170 2194.0
25.84670 2263.0
25.85170 2172.0
25.85670 2179.0
25.86170 2220.0
25.86670 2108.0
25.87170 2023.0
25.87670 2062.0
25.88170 1944.0
25.88670 1971.0
25.89170 1952.0
25.89670 1938.0
25.90170 1950.0
25.90670 1971.0
25.91170 1866.0
25.91670 1885.0
25.92170 1823.0
25.92670 1723.0
25.93170 1741.0
25.93670 1830.0
25.94170 1749.0
25.94670 1784.0
25.95170 1681.0
25.95670 1650.0
25.96170 1649.0
25.96670 1629.0
25.97170 1585.0
25.97670 1613.0
25.98170 1630.0
25.98670 1570.0
25.99170 1612.0
25.99670 1532.0
26.00170 1528.0
26.00670 1435.0
26.01170 1425.0
26.01670 1425.0
26.02170 1450.0
26.02670 1429.0
26.03170 1371.0
26.03670 1365.0
26.04170 1315.0
26.04670 1344.0
26.05170 1314.0
26.05670 1287.0
26.06170 1239.0
26.06670 1214.0
26.07170 1256.0
26.07670 1226.0
26.08170 1214.0
26.08670 1158.0
26.09170 1139.0
26.09670 1130.0
26.10170 1103.0
26.10670 1079.0
26.11170 1119.0
26.11670 1081.0
26.12170 998.0
26.12670 1025.0
26.13170 1033.0
26.13670 1016.0
26.14170 988.0
26.14670 913.0
26.15170 924.0
26.15670 966.0
26.16170 919.0
26.16670 869.0
26.17170 944.0
26.17670 878.0
26.18170 885.0
26.18670 866.0
26.19170 840.0
26.19670 822.0
26.20170 713.0
26.20670 822.0
26.21170 790.0
26.21670 837.0
26.22170 783.0
26.22670 784.0
26.23170 766.0
26.23670 754.0
26.24170 711.0
26.24670 654.0
26.25170 671.0
26.25670 706.0
26.26170 638.0
26.26670 631.0
26.27170 655.0
26.27670 636.0
26.28170 602.0
26.28670 648.0
26.29170 583.0
26.29670 593.0
26.30170 610.0
26.30670 607.0
26.31170 598.0
26.31670 553.0
26.32170 522.0
26.32670 527.0
26.33170 558.0
26.33670 521.0
26.34170 491.0
26.34670 507.0
26.35170 479.0
26.35670 460.0
26.36170 470.0
26.36670 448.0
26.37170 474.0
26.37670 463.0
26.38170 440.0
26.38670 441.0
26.39170 437.0
26.39670 417.0
26.40170 442.0
26.40670 404.0
26.41170 389.0
26.41670 406.0
26.42170 433.0
26.42670 425.0
26.43170 400.0
26.43670 407.0
26.44170 385.0
26.44670 362.0
26.45170 368.0
26.45670 350.0
26.46170 363.0
26.46670 345.0
26.47170 357.0
26.47670 299.0
26.48170 333.0
26.48670 336.0
26.49170 352.0
26.49670 344.0
26.50170 334.0
26.50670 336.0
26.51170 281.0
26.51670 312.0
26.52170 307.0
26.52670 305.0
26.53170 282.0
26.53670 288.0
26.54170 273.0
26.54670 271.0
26.55170 309.0
26.55670 281.0
26.56170 254.0
26.56670 233.0
26.57170 239.0
26.57670 245.0
26.58170 240.0
26.58670 254.0
26.59170 257.0
26.59670 236.0
26.60170 246.0
26.60670 244.0
26.61170 215.0
26.61670 216.0
26.62170 228.0
26.62670 219.0
26.63170 239.0
26.63670 188.0
26.64170 182.0
26.64670 201.0
26.65170 201.0
26.65670 178.0
26.66170 193.0
26.66670 184.0
26.67170 197.0
26.67670 190.0
26.68170 184.0
26.68670 180.0
26.69170 197.0
26.69670 193.0
26.70170 164.0
26.70670 171.0
26.71170 178.0
26.71670 145.0
26.72170 156.0
26.72670 153.0
26.73170 164.0
26.73670 157.0
26.74170 161.0
26.74670 155.0
26.75170 150.0
26.75670 141.0
26.76170 142.0
26.76670 147.0
26.77170 133.0
26.77670 136.0
26.78170 139.0
26.78670 133.0
26.79170 138.0
26.79670 123.0
26.80170 149.0
26.80670 133.0
26.81170 120.0
26.81670 135.0
26.82170 124.0
26.82670 126.0
26.83170 130.0
26.83670 127.0
26.84170 127.0
26.84670 100.0
26.85170 90.0
26.85670 126.0
26.86170 120.0
26.86670 110.0
26.87170 113.0
26.87670 112.0
26.88170 117.0
26.88670 111.0
26.89170 106.0
26.89670 121.0
26.90170 100.0
26.90670 113.0
26.91170 92.0
26.91670 84.0
26.92170 95.0
26.92670 106.0
26.93170 105.0
26.93670 97.0
26.94170 87.0
26.94670 77.0
26.95170 83.0
26.95670 99.0
26.96170 93.0
26.96670 107.0
26.97170 89.0
26.97670 89.0
26.98170 93.0
26.98670 92.0
26.99170 88.0
26.99670 80.0
27.00170 89.0
27.00670 77.0
27.01170 87.0
27.01670 104.0
27.02170 109.0
27.02670 83.0
27.03170 73.0
27.03670 63.0
27.04170 80.0
27.04670 93.0
27.05170 81.0
27.05670 82.0
27.06170 93.0
27.06670 83.0
27.07170 81.0
27.07670 79.0
27.08170 91.0
27.08670 80.0
27.09170 62.0
27.09670 82.0
27.10170 70.0
27.10670 84.0
27.11170 86.0
27.11670 60.0
27.12170 68.0
27.12670 83.0
27.13170 57.0
27.13670 65.0
27.14170 69.0
27.14670 80.0
27.15170 61.0
27.15670 59.0
27.16170 78.0
27.16670 71.0
27.17170 64.0
27.17670 77.0
27.18170 68.0
27.18670 67.0
27.19170 77.0
27.19670 55.0
27.20170 73.0
27.20670 58.0
27.21170 50.0
27.21670 67.0
27.22170 66.0
27.22670 50.0
27.23170 57.0
27.23670 57.0
27.24170 55.0
27.24670 64.0
27.25170 50.0
27.25670 59.0
27.26170 64.0
27.26670 47.0
27.27170 59.0
27.27670 70.0
27.28170 52.0
27.28670 53.0
27.29170 46.0
27.29670 47.0
27.30170 54.0
27.30670 68.0
27.31170 47.0
27.31670 50.0
27.32170 64.0
27.32670 52.0
27.33170 70.0
27.33670 41.0
27.34170 55.0
27.34670 51.0
27.35170 48.0
27.35670 57.0
27.36170 50.0
27.36670 52.0
27.37170 50.0
27.37670 44.0
27.38170 49.0
27.38670 52.0
27.39170 45.0
27.39670 43.0
27.40170 47.0
27.40670 44.0
27.41170 62.0
27.41670 52.0
27.42170 56.0
27.42670 48.0
27.43170 49.0
27.43670 56.0
27.44170 41.0
27.44670 54.0
27.45170 40.0
27.45670 45.0
27.46170 43.0
27.46670 50.0
27.47170 52.0
27.47670 47.0
27.48170 43.0
27.48670 53.0
27.49170 46.0
27.49670 37.0
27.50170 48.0
27.50670 54.0
27.51170 48.0
27.51670 45.0
27.52170 54.0
27.52670 48.0
27.53170 42.0
27.53670 39.0
27.54170 38.0
27.54670 54.0
27.55170 37.0
27.55670 44.0
27.56170 27.0