File: data/W6857r/XRD_2ThetaOmega/W6857r_(changed from a to r)_10-130deg.xy
10.0035 20.0
10.0872 18.0
10.1709 24.0
10.2546 26.0
10.3383 28.0
10.422 20.0
10.5057 23.0
10.5894 19.0
10.6731 25.0
10.7568 22.0
10.8405 18.0
10.9242 40.0
11.0079 18.0
11.0916 25.0
11.1753 20.0
11.259 20.0
11.3428 20.0
11.4265 16.0
11.5102 14.0
11.5939 20.0
11.6776 20.0
11.7613 18.0
11.845 19.0
11.9287 16.0
12.0124 26.0
12.0961 21.0
12.1798 21.0
12.2635 24.0
12.3472 25.0
12.4309 20.0
12.5146 18.0
12.5983 18.0
12.682 21.0
12.7657 8.0
12.8495 16.0
12.9332 18.0
13.0169 11.0
13.1006 32.0
13.1843 9.0
13.268 18.0
13.3517 17.0
13.4354 17.0
13.5191 14.0
13.6028 18.0
13.6865 20.0
13.7702 20.0
13.8539 20.0
13.9376 25.0
14.0213 12.0
14.105 15.0
14.1887 19.0
14.2724 17.0
14.3562 15.0
14.4399 31.0
14.5236 11.0
14.6073 15.0
14.691 12.0
14.7747 15.0
14.8584 14.0
14.9421 22.0
15.0258 20.0
15.1095 17.0
15.1932 21.0
15.2769 11.0
15.3606 16.0
15.4443 16.0
15.528 13.0
15.6117 22.0
15.6954 16.0
15.7791 11.0
15.8629 22.0
15.9466 18.0
16.0303 15.0
16.114 8.0
16.1977 22.0
16.2814 11.0
16.3651 22.0
16.4488 25.0
16.5325 19.0
16.6162 21.0
16.6999 14.0
16.7836 20.0
16.8673 15.0
16.951 14.0
17.0347 16.0
17.1184 15.0
17.2021 12.0
17.2858 21.0
17.3696 13.0
17.4533 15.0
17.537 18.0
17.6207 10.0
17.7044 12.0
17.7881 14.0
17.8718 12.0
17.9555 18.0
18.0392 15.0
18.1229 14.0
18.2066 11.0
18.2903 18.0
18.374 22.0
18.4577 16.0
18.5414 15.0
18.6251 15.0
18.7088 23.0
18.7925 18.0
18.8763 11.0
18.96 17.0
19.0437 15.0
19.1274 20.0
19.2111 15.0
19.2948 13.0
19.3785 15.0
19.4622 21.0
19.5459 21.0
19.6296 16.0
19.7133 12.0
19.797 7.0
19.8807 19.0
19.9644 11.0
20.0481 18.0
20.1318 15.0
20.2155 11.0
20.2992 7.0
20.383 11.0
20.4667 12.0
20.5504 14.0
20.6341 12.0
20.7178 21.0
20.8015 19.0
20.8852 18.0
20.9689 10.0
21.0526 17.0
21.1363 13.0
21.22 19.0
21.3037 10.0
21.3874 14.0
21.4711 14.0
21.5548 17.0
21.6385 19.0
21.7222 14.0
21.8059 12.0
21.8897 11.0
21.9734 15.0
22.0571 11.0
22.1408 14.0
22.2245 14.0
22.3082 14.0
22.3919 14.0
22.4756 15.0
22.5593 7.0
22.643 15.0
22.7267 17.0
22.8104 23.0
22.8941 16.0
22.9778 16.0
23.0615 40.0
23.1452 17.0
23.2289 32.0
23.3126 23.0
23.3964 24.0
23.4801 22.0
23.5638 25.0
23.6475 19.0
23.7312 18.0
23.8149 34.0
23.8986 38.0
23.9823 33.0
24.066 42.0
24.1497 51.0
24.2334 76.0
24.3171 60.0
24.4008 96.0
24.4845 113.0
24.5682 43.0
24.6519 62.0
24.7356 35.0
24.8193 33.0
24.9031 37.0
24.9868 46.0
25.0705 59.0
25.1542 69.0
25.2379 95.0
25.3216 141.0
25.4053 584.0
25.489 5605.0
25.5727 20468.0
25.6564 1082.0
25.7401 371.0
25.8238 214.0
25.9075 219.0
25.9912 138.0
26.0749 117.0
26.1586 101.0
26.2423 70.0
26.326 62.0
26.4098 43.0
26.4935 36.0
26.5772 33.0
26.6609 22.0
26.7446 19.0
26.8283 29.0
26.912 25.0
26.9957 31.0
27.0794 20.0
27.1631 22.0
27.2468 11.0
27.3305 12.0
27.4142 24.0
27.4979 14.0
27.5816 12.0
27.6653 15.0
27.749 24.0
27.8327 15.0
27.9165 10.0
28.0002 9.0
28.0839 12.0
28.1676 6.0
28.2513 24.0
28.335 15.0
28.4187 12.0
28.5024 17.0
28.5861 12.0
28.6698 9.0
28.7535 13.0
28.8372 15.0
28.9209 14.0
29.0046 7.0
29.0883 14.0
29.172 19.0
29.2557 9.0
29.3394 13.0
29.4232 11.0
29.5069 13.0
29.5906 10.0
29.6743 14.0
29.758 12.0
29.8417 8.0
29.9254 12.0
30.0091 10.0
30.0928 12.0
30.1765 16.0
30.2602 6.0
30.3439 8.0
30.4276 17.0
30.5113 14.0
30.595 12.0
30.6787 11.0
30.7624 15.0
30.8461 17.0
30.9298 7.0
31.0136 13.0
31.0973 10.0
31.181 6.0
31.2647 14.0
31.3484 3.0
31.4321 14.0
31.5158 13.0
31.5995 15.0
31.6832 23.0
31.7669 12.0
31.8506 11.0
31.9343 10.0
32.018 18.0
32.1017 12.0
32.1854 12.0
32.2691 15.0
32.3528 6.0
32.4365 12.0
32.5203 16.0
32.604 7.0
32.6877 12.0
32.7714 14.0
32.8551 17.0
32.9388 17.0
33.0225 11.0
33.1062 16.0
33.1899 11.0
33.2736 14.0
33.3573 19.0
33.441 11.0
33.5247 11.0
33.6084 10.0
33.6921 9.0
33.7758 10.0
33.8595 12.0
33.9432 9.0
34.027 16.0
34.1107 12.0
34.1944 8.0
34.2781 14.0
34.3618 12.0
34.4455 14.0
34.5292 8.0
34.6129 6.0
34.6966 9.0
34.7803 10.0
34.864 10.0
34.9477 10.0
35.0314 19.0
35.1151 24.0
35.1988 7.0
35.2825 16.0
35.3662 13.0
35.4499 12.0
35.5337 9.0
35.6174 8.0
35.7011 11.0
35.7848 11.0
35.8685 11.0
35.9522 14.0
36.0359 11.0
36.1196 6.0
36.2033 18.0
36.287 6.0
36.3707 5.0
36.4544 7.0
36.5381 8.0
36.6218 8.0
36.7055 15.0
36.7892 7.0
36.8729 11.0
36.9566 19.0
37.0404 12.0
37.1241 8.0
37.2078 12.0
37.2915 13.0
37.3752 12.0
37.4589 9.0
37.5426 18.0
37.6263 16.0
37.71 18.0
37.7937 11.0
37.8774 13.0
37.9611 10.0
38.0448 12.0
38.1285 14.0
38.2122 17.0
38.2959 11.0
38.3796 18.0
38.4633 10.0
38.5471 12.0
38.6308 8.0
38.7145 8.0
38.7982 11.0
38.8819 11.0
38.9656 9.0
39.0493 6.0
39.133 14.0
39.2167 8.0
39.3004 10.0
39.3841 13.0
39.4678 9.0
39.5515 16.0
39.6352 18.0
39.7189 16.0
39.8026 12.0
39.8863 15.0
39.97 7.0
40.0538 11.0
40.1375 7.0
40.2212 9.0
40.3049 12.0
40.3886 13.0
40.4723 15.0
40.556 8.0
40.6397 20.0
40.7234 13.0
40.8071 12.0
40.8908 8.0
40.9745 10.0
41.0582 11.0
41.1419 7.0
41.2256 12.0
41.3093 12.0
41.393 7.0
41.4767 12.0
41.5605 3.0
41.6442 2.0
41.7279 7.0
41.8116 13.0
41.8953 13.0
41.979 9.0
42.0627 12.0
42.1464 8.0
42.2301 10.0
42.3138 16.0
42.3975 9.0
42.4812 13.0
42.5649 12.0
42.6486 18.0
42.7323 8.0
42.816 11.0
42.8997 9.0
42.9834 12.0
43.0672 12.0
43.1509 13.0
43.2346 8.0
43.3183 16.0
43.402 9.0
43.4857 12.0
43.5694 12.0
43.6531 11.0
43.7368 18.0
43.8205 14.0
43.9042 15.0
43.9879 10.0
44.0716 13.0
44.1553 23.0
44.239 12.0
44.3227 15.0
44.4064 32.0
44.4901 25.0
44.5739 19.0
44.6576 17.0
44.7413 15.0
44.825 22.0
44.9087 10.0
44.9924 21.0
45.0761 14.0
45.1598 17.0
45.2435 19.0
45.3272 7.0
45.4109 9.0
45.4946 9.0
45.5783 10.0
45.662 5.0
45.7457 5.0
45.8294 16.0
45.9131 9.0
45.9968 12.0
46.0806 6.0
46.1643 8.0
46.248 14.0
46.3317 14.0
46.4154 9.0
46.4991 9.0
46.5828 20.0
46.6665 8.0
46.7502 12.0
46.8339 10.0
46.9176 13.0
47.0013 9.0
47.085 42.0
47.1687 36.0
47.2524 4.0
47.3361 9.0
47.4198 16.0
47.5035 16.0
47.5873 15.0
47.671 12.0
47.7547 7.0
47.8384 10.0
47.9221 10.0
48.0058 16.0
48.0895 9.0
48.1732 10.0
48.2569 16.0
48.3406 16.0
48.4243 16.0
48.508 10.0
48.5917 13.0
48.6754 19.0
48.7591 20.0
48.8428 14.0
48.9265 18.0
49.0102 14.0
49.094 18.0
49.1777 19.0
49.2614 20.0
49.3451 15.0
49.4288 19.0
49.5125 27.0
49.5962 23.0
49.6799 25.0
49.7636 30.0
49.8473 27.0
49.931 33.0
50.0147 36.0
50.0984 52.0
50.1821 162.0
50.2658 43.0
50.3495 31.0
50.4332 23.0
50.5169 23.0
50.6007 29.0
50.6844 29.0
50.7681 20.0
50.8518 13.0
50.9355 15.0
51.0192 27.0
51.1029 28.0
51.1866 27.0
51.2703 23.0
51.354 37.0
51.4377 30.0
51.5214 33.0
51.6051 31.0
51.6888 35.0
51.7725 42.0
51.8562 49.0
51.9399 47.0
52.0236 88.0
52.1074 87.0
52.1911 138.0
52.2748 397.0
52.3585 495.0
52.4422 2410.0
52.5259 29342.0
52.6096 7302.0
52.6933 3613.0
52.777 574.0
52.8607 320.0
52.9444 206.0
53.0281 155.0
53.1118 113.0
53.1955 105.0
53.2792 100.0
53.3629 98.0
53.4466 84.0
53.5303 96.0
53.6141 70.0
53.6978 55.0
53.7815 52.0
53.8652 56.0
53.9489 54.0
54.0326 41.0
54.1163 40.0
54.2 23.0
54.2837 41.0
54.3674 30.0
54.4511 36.0
54.5348 28.0
54.6185 24.0
54.7022 23.0
54.7859 19.0
54.8696 22.0
54.9533 8.0
55.037 18.0
55.1208 15.0
55.2045 15.0
55.2882 21.0
55.3719 12.0
55.4556 18.0
55.5393 19.0
55.623 15.0
55.7067 14.0
55.7904 16.0
55.8741 26.0
55.9578 10.0
56.0415 12.0
56.1252 14.0
56.2089 11.0
56.2926 11.0
56.3763 17.0
56.46 14.0
56.5437 19.0
56.6275 13.0
56.7112 11.0
56.7949 12.0
56.8786 20.0
56.9623 19.0
57.046 18.0
57.1297 13.0
57.2134 11.0
57.2971 17.0
57.3808 11.0
57.4645 12.0
57.5482 18.0
57.6319 21.0
57.7156 16.0
57.7993 14.0
57.883 14.0
57.9667 15.0
58.0504 18.0
58.1342 16.0
58.2179 12.0
58.3016 11.0
58.3853 7.0
58.469 5.0
58.5527 9.0
58.6364 10.0
58.7201 16.0
58.8038 19.0
58.8875 19.0
58.9712 9.0
59.0549 12.0
59.1386 12.0
59.2223 8.0
59.306 7.0
59.3897 11.0
59.4734 9.0
59.5571 13.0
59.6409 15.0
59.7246 5.0
59.8083 10.0
59.892 9.0
59.9757 8.0
60.0594 12.0
60.1431 17.0
60.2268 14.0
60.3105 4.0
60.3942 12.0
60.4779 10.0
60.5616 13.0
60.6453 14.0
60.729 7.0
60.8127 9.0
60.8964 14.0
60.9801 13.0
61.0638 8.0
61.1476 8.0
61.2313 12.0
61.315 11.0
61.3987 6.0
61.4824 12.0
61.5661 5.0
61.6498 4.0
61.7335 16.0
61.8172 10.0
61.9009 11.0
61.9846 12.0
62.0683 13.0
62.152 19.0
62.2357 12.0
62.3194 10.0
62.4031 10.0
62.4868 16.0
62.5705 11.0
62.6543 14.0
62.738 20.0
62.8217 11.0
62.9054 15.0
62.9891 12.0
63.0728 11.0
63.1565 17.0
63.2402 9.0
63.3239 15.0
63.4076 7.0
63.4913 10.0
63.575 12.0
63.6587 14.0
63.7424 6.0
63.8261 15.0
63.9098 12.0
63.9935 10.0
64.0772 16.0
64.161 11.0
64.2447 14.0
64.3284 18.0
64.4121 15.0
64.4958 12.0
64.5795 9.0
64.6632 5.0
64.7469 14.0
64.8306 14.0
64.9143 16.0
64.998 8.0
65.0817 13.0
65.1654 5.0
65.2491 8.0
65.3328 12.0
65.4165 15.0
65.5002 10.0
65.5839 10.0
65.6677 14.0
65.7514 10.0
65.8351 9.0
65.9188 10.0
66.0025 13.0
66.0862 12.0
66.1699 20.0
66.2536 8.0
66.3373 9.0
66.421 11.0
66.5047 6.0
66.5884 9.0
66.6721 10.0
66.7558 9.0
66.8395 13.0
66.9232 10.0
67.0069 14.0
67.0906 6.0
67.1744 5.0
67.2581 15.0
67.3418 14.0
67.4255 8.0
67.5092 8.0
67.5929 17.0
67.6766 12.0
67.7603 9.0
67.844 8.0
67.9277 13.0
68.0114 12.0
68.0951 9.0
68.1788 10.0
68.2625 11.0
68.3462 13.0
68.4299 13.0
68.5136 10.0
68.5973 17.0
68.6811 9.0
68.7648 12.0
68.8485 6.0
68.9322 13.0
69.0159 13.0
69.0996 8.0
69.1833 9.0
69.267 14.0
69.3507 14.0
69.4344 7.0
69.5181 18.0
69.6018 12.0
69.6855 10.0
69.7692 5.0
69.8529 9.0
69.9366 15.0
70.0203 16.0
70.104 8.0
70.1878 7.0
70.2715 16.0
70.3552 8.0
70.4389 11.0
70.5226 13.0
70.6063 14.0
70.69 9.0
70.7737 10.0
70.8574 11.0
70.9411 13.0
71.0248 14.0
71.1085 10.0
71.1922 11.0
71.2759 15.0
71.3596 10.0
71.4433 6.0
71.527 9.0
71.6107 11.0
71.6945 13.0
71.7782 8.0
71.8619 13.0
71.9456 11.0
72.0293 9.0
72.113 15.0
72.1967 13.0
72.2804 14.0
72.3641 9.0
72.4478 12.0
72.5315 10.0
72.6152 9.0
72.6989 7.0
72.7826 13.0
72.8663 10.0
72.95 8.0
73.0337 12.0
73.1174 9.0
73.2012 8.0
73.2849 5.0
73.3686 9.0
73.4523 6.0
73.536 8.0
73.6197 15.0
73.7034 15.0
73.7871 14.0
73.8708 9.0
73.9545 17.0
74.0382 10.0
74.1219 12.0
74.2056 7.0
74.2893 10.0
74.373 13.0
74.4567 13.0
74.5404 9.0
74.6241 13.0
74.7079 10.0
74.7916 7.0
74.8753 17.0
74.959 7.0
75.0427 14.0
75.1264 16.0
75.2101 10.0
75.2938 2.0
75.3775 13.0
75.4612 12.0
75.5449 9.0
75.6286 12.0
75.7123 15.0
75.796 10.0
75.8797 8.0
75.9634 11.0
76.0471 6.0
76.1308 10.0
76.2146 13.0
76.2983 11.0
76.382 12.0
76.4657 19.0
76.5494 10.0
76.6331 10.0
76.7168 12.0
76.8005 18.0
76.8842 15.0
76.9679 6.0
77.0516 12.0
77.1353 10.0
77.219 11.0
77.3027 17.0
77.3864 10.0
77.4701 21.0
77.5538 9.0
77.6375 14.0
77.7213 16.0
77.805 14.0
77.8887 10.0
77.9724 7.0
78.0561 11.0
78.1398 12.0
78.2235 7.0
78.3072 14.0
78.3909 14.0
78.4746 12.0
78.5583 8.0
78.642 19.0
78.7257 11.0
78.8094 8.0
78.8931 8.0
78.9768 18.0
79.0605 15.0
79.1442 16.0
79.228 8.0
79.3117 8.0
79.3954 13.0
79.4791 12.0
79.5628 15.0
79.6465 9.0
79.7302 8.0
79.8139 13.0
79.8976 14.0
79.9813 11.0
80.065 6.0
80.1487 17.0
80.2324 7.0
80.3161 18.0
80.3998 20.0
80.4835 13.0
80.5672 13.0
80.6509 7.0
80.7347 17.0
80.8184 20.0
80.9021 12.0
80.9858 22.0
81.0695 11.0
81.1532 16.0
81.2369 8.0
81.3206 8.0
81.4043 16.0
81.488 8.0
81.5717 13.0
81.6554 16.0
81.7391 13.0
81.8228 11.0
81.9065 17.0
81.9902 18.0
82.0739 12.0
82.1576 9.0
82.2414 16.0
82.3251 9.0
82.4088 16.0
82.4925 13.0
82.5762 11.0
82.6599 24.0
82.7436 23.0
82.8273 17.0
82.911 21.0
82.9947 36.0
83.0784 85.0
83.1621 1453.0
83.2458 286.0
83.3295 83.0
83.4132 738.0
83.4969 146.0
83.5806 31.0
83.6643 29.0
83.7481 22.0
83.8318 20.0
83.9155 18.0
83.9992 16.0
84.0829 14.0
84.1666 18.0
84.2503 15.0
84.334 15.0
84.4177 19.0
84.5014 16.0
84.5851 14.0
84.6688 11.0
84.7525 15.0
84.8362 15.0
84.9199 11.0
85.0036 14.0
85.0873 19.0
85.171 18.0
85.2548 11.0
85.3385 14.0
85.4222 13.0
85.5059 16.0
85.5896 12.0
85.6733 10.0
85.757 14.0
85.8407 22.0
85.9244 12.0
86.0081 10.0
86.0918 15.0
86.1755 15.0
86.2592 10.0
86.3429 14.0
86.4266 4.0
86.5103 14.0
86.594 10.0
86.6777 10.0
86.7615 14.0
86.8452 11.0
86.9289 12.0
87.0126 6.0
87.0963 13.0
87.18 11.0
87.2637 4.0
87.3474 16.0
87.4311 18.0
87.5148 11.0
87.5985 13.0
87.6822 13.0
87.7659 13.0
87.8496 8.0
87.9333 13.0
88.017 6.0
88.1007 11.0
88.1844 10.0
88.2682 14.0
88.3519 7.0
88.4356 5.0
88.5193 13.0
88.603 15.0
88.6867 15.0
88.7704 13.0
88.8541 9.0
88.9378 14.0
89.0215 10.0
89.1052 15.0
89.1889 11.0
89.2726 12.0
89.3563 12.0
89.44 10.0
89.5237 14.0
89.6074 10.0
89.6911 9.0
89.7749 15.0
89.8586 12.0
89.9423 9.0
90.026 9.0
90.1097 14.0
90.1934 6.0
90.2771 14.0
90.3608 8.0
90.4445 9.0
90.5282 8.0
90.6119 8.0
90.6956 9.0
90.7793 10.0
90.863 17.0
90.9467 11.0
91.0304 11.0
91.1141 10.0
91.1978 14.0
91.2816 23.0
91.3653 8.0
91.449 9.0
91.5327 12.0
91.6164 12.0
91.7001 12.0
91.7838 13.0
91.8675 5.0
91.9512 8.0
92.0349 14.0
92.1186 13.0
92.2023 14.0
92.286 11.0
92.3697 6.0
92.4534 12.0
92.5371 16.0
92.6208 6.0
92.7045 17.0
92.7883 12.0
92.872 14.0
92.9557 7.0
93.0394 9.0
93.1231 14.0
93.2068 8.0
93.2905 9.0
93.3742 13.0
93.4579 21.0
93.5416 20.0
93.6253 11.0
93.709 10.0
93.7927 11.0
93.8764 19.0
93.9601 14.0
94.0438 9.0
94.1275 5.0
94.2112 13.0
94.295 9.0
94.3787 16.0
94.4624 10.0
94.5461 16.0
94.6298 3.0
94.7135 11.0
94.7972 11.0
94.8809 9.0
94.9646 14.0
95.0483 10.0
95.132 8.0
95.2157 15.0
95.2994 10.0
95.3831 7.0
95.4668 8.0
95.5505 12.0
95.6342 11.0
95.7179 9.0
95.8017 9.0
95.8854 10.0
95.9691 9.0
96.0528 9.0
96.1365 13.0
96.2202 8.0
96.3039 17.0
96.3876 12.0
96.4713 15.0
96.555 13.0
96.6387 17.0
96.7224 7.0
96.8061 11.0
96.8898 11.0
96.9735 9.0
97.0572 14.0
97.1409 16.0
97.2246 8.0
97.3084 16.0
97.3921 13.0
97.4758 10.0
97.5595 8.0
97.6432 13.0
97.7269 6.0
97.8106 15.0
97.8943 15.0
97.978 10.0
98.0617 9.0
98.1454 23.0
98.2291 15.0
98.3128 12.0
98.3965 17.0
98.4802 16.0
98.5639 13.0
98.6476 13.0
98.7313 12.0
98.8151 6.0
98.8988 14.0
98.9825 12.0
99.0662 15.0
99.1499 18.0
99.2336 9.0
99.3173 15.0
99.401 14.0
99.4847 14.0
99.5684 8.0
99.6521 12.0
99.7358 9.0
99.8195 10.0
99.9032 19.0
99.9869 14.0
100.071 7.0
100.154 7.0
100.238 12.0
100.322 13.0
100.405 10.0
100.489 10.0
100.573 17.0
100.657 13.0
100.74 9.0
100.824 13.0
100.908 9.0
100.991 7.0
101.075 12.0
101.159 13.0
101.243 10.0
101.326 17.0
101.41 18.0
101.494 6.0
101.577 10.0
101.661 11.0
101.745 9.0
101.828 13.0
101.912 11.0
101.996 11.0
102.08 10.0
102.163 9.0
102.247 9.0
102.331 13.0
102.414 7.0
102.498 7.0
102.582 17.0
102.666 7.0
102.749 12.0
102.833 8.0
102.917 12.0
103 18.0
103.084 14.0
103.168 11.0
103.251 12.0
103.335 13.0
103.419 8.0
103.503 9.0
103.586 13.0
103.67 6.0
103.754 14.0
103.837 13.0
103.921 12.0
104.005 13.0
104.089 15.0
104.172 6.0
104.256 11.0
104.34 12.0
104.423 9.0
104.507 5.0
104.591 15.0
104.674 11.0
104.758 8.0
104.842 10.0
104.926 14.0
105.009 13.0
105.093 13.0
105.177 13.0
105.26 17.0
105.344 20.0
105.428 11.0
105.511 7.0
105.595 13.0
105.679 11.0
105.763 5.0
105.846 13.0
105.93 11.0
106.014 11.0
106.097 10.0
106.181 13.0
106.265 24.0
106.349 20.0
106.432 13.0
106.516 18.0
106.6 11.0
106.683 11.0
106.767 10.0
106.851 7.0
106.934 8.0
107.018 11.0
107.102 15.0
107.186 10.0
107.269 7.0
107.353 15.0
107.437 10.0
107.52 15.0
107.604 5.0
107.688 13.0
107.772 12.0
107.855 16.0
107.939 10.0
108.023 12.0
108.106 15.0
108.19 13.0
108.274 11.0
108.357 9.0
108.441 14.0
108.525 5.0
108.609 12.0
108.692 10.0
108.776 16.0
108.86 8.0
108.943 4.0
109.027 13.0
109.111 20.0
109.195 10.0
109.278 10.0
109.362 13.0
109.446 19.0
109.529 20.0
109.613 17.0
109.697 13.0
109.78 13.0
109.864 8.0
109.948 11.0
110.032 15.0
110.115 12.0
110.199 10.0
110.283 11.0
110.366 14.0
110.45 17.0
110.534 12.0
110.618 11.0
110.701 14.0
110.785 11.0
110.869 12.0
110.952 11.0
111.036 20.0
111.12 7.0
111.203 12.0
111.287 10.0
111.371 14.0
111.455 13.0
111.538 20.0
111.622 11.0
111.706 11.0
111.789 7.0
111.873 11.0
111.957 11.0
112.041 12.0
112.124 17.0
112.208 7.0
112.292 21.0
112.375 11.0
112.459 11.0
112.543 12.0
112.626 17.0
112.71 13.0
112.794 6.0
112.878 14.0
112.961 6.0
113.045 13.0
113.129 8.0
113.212 14.0
113.296 14.0
113.38 10.0
113.464 11.0
113.547 12.0
113.631 7.0
113.715 10.0
113.798 18.0
113.882 8.0
113.966 12.0
114.049 17.0
114.133 12.0
114.217 10.0
114.301 11.0
114.384 15.0
114.468 15.0
114.552 8.0
114.635 11.0
114.719 15.0
114.803 16.0
114.887 14.0
114.97 19.0
115.054 8.0
115.138 9.0
115.221 11.0
115.305 11.0
115.389 16.0
115.472 8.0
115.556 16.0
115.64 15.0
115.724 16.0
115.807 12.0
115.891 13.0
115.975 20.0
116.058 29.0
116.142 25.0
116.226 31.0
116.31 21.0
116.393 12.0
116.477 14.0
116.561 13.0
116.644 14.0
116.728 17.0
116.812 13.0
116.895 12.0
116.979 10.0
117.063 11.0
117.147 10.0
117.23 10.0
117.314 14.0
117.398 15.0
117.481 12.0
117.565 23.0
117.649 10.0
117.733 12.0
117.816 14.0
117.9 13.0
117.984 9.0
118.067 19.0
118.151 16.0
118.235 23.0
118.318 11.0
118.402 10.0
118.486 4.0
118.57 25.0
118.653 12.0
118.737 6.0
118.821 12.0
118.904 14.0
118.988 15.0
119.072 15.0
119.156 10.0
119.239 11.0
119.323 6.0
119.407 12.0
119.49 15.0
119.574 8.0
119.658 11.0
119.741 16.0
119.825 14.0
119.909 13.0
119.993 9.0
120.076 11.0
120.16 13.0
120.244 13.0
120.327 15.0
120.411 8.0
120.495 14.0
120.578 9.0
120.662 12.0
120.746 13.0
120.83 11.0
120.913 17.0
120.997 14.0
121.081 13.0
121.164 8.0
121.248 13.0
121.332 17.0
121.416 15.0
121.499 13.0
121.583 17.0
121.667 13.0
121.75 15.0
121.834 19.0
121.918 17.0
122.001 15.0
122.085 19.0
122.169 18.0
122.253 21.0
122.336 16.0
122.42 11.0
122.504 15.0
122.587 21.0
122.671 12.0
122.755 21.0
122.839 20.0
122.922 18.0
123.006 21.0
123.09 25.0
123.173 30.0
123.257 19.0
123.341 24.0
123.424 22.0
123.508 39.0
123.592 39.0
123.676 35.0
123.759 35.0
123.843 50.0
123.927 45.0
124.01 55.0
124.094 50.0
124.178 84.0
124.262 106.0
124.345 162.0
124.429 391.0
124.513 1488.0
124.596 6243.0
124.68 1416.0
124.764 422.0
124.847 212.0
124.931 256.0
125.015 457.0
125.099 2352.0
125.182 1885.0
125.266 479.0
125.35 155.0
125.433 93.0
125.517 80.0
125.601 59.0
125.685 31.0
125.768 44.0
125.852 55.0
125.936 44.0
126.019 24.0
126.103 38.0
126.187 16.0
126.27 16.0
126.354 33.0
126.438 31.0
126.522 31.0
126.605 28.0
126.689 16.0
126.773 20.0
126.856 20.0
126.94 17.0
127.024 29.0
127.108 19.0
127.191 20.0
127.275 35.0
127.359 25.0
127.442 24.0
127.526 20.0
127.61 14.0
127.693 18.0
127.777 22.0
127.861 21.0
127.945 19.0
128.028 9.0
128.112 16.0
128.196 19.0
128.279 20.0
128.363 20.0
128.447 18.0
128.531 23.0
128.614 18.0
128.698 19.0
128.782 21.0
128.865 14.0
128.949 16.0
129.033 20.0
129.116 17.0
129.2 15.0
129.284 21.0
129.368 13.0
129.451 24.0
129.535 11.0
129.619 23.0
129.702 18.0
129.786 11.0
129.87 19.0
129.954 21.0
129.998 24.0