File: data/W6906c/XRD_2ThetaOmega/scan_2th-om_c_Cr2O3_35-45deg_PIXscan_4min_C7.xy
35.0021 110.0
35.0119 143.0
35.0218 137.0
35.0316 137.0
35.0415 116.0
35.0513 138.0
35.0611 136.0
35.071 125.0
35.0808 136.0
35.0907 146.0
35.1005 112.0
35.1104 136.0
35.1202 116.0
35.1301 120.0
35.1399 114.0
35.1498 115.0
35.1596 133.0
35.1695 126.0
35.1793 138.0
35.1892 152.0
35.199 122.0
35.2089 132.0
35.2187 122.0
35.2286 121.0
35.2384 128.0
35.2483 146.0
35.2581 143.0
35.268 125.0
35.2778 131.0
35.2876 118.0
35.2975 126.0
35.3073 128.0
35.3172 122.0
35.327 141.0
35.3369 115.0
35.3467 113.0
35.3566 119.0
35.3664 120.0
35.3763 118.0
35.3861 142.0
35.396 121.0
35.4058 118.0
35.4157 120.0
35.4255 128.0
35.4354 125.0
35.4452 109.0
35.4551 103.0
35.4649 116.0
35.4748 129.0
35.4846 128.0
35.4944 127.0
35.5043 155.0
35.5141 139.0
35.524 115.0
35.5338 115.0
35.5437 135.0
35.5535 123.0
35.5634 119.0
35.5732 123.0
35.5831 138.0
35.5929 128.0
35.6028 133.0
35.6126 121.0
35.6225 121.0
35.6323 143.0
35.6422 142.0
35.652 114.0
35.6619 129.0
35.6717 134.0
35.6816 123.0
35.6914 100.0
35.7012 143.0
35.7111 120.0
35.7209 130.0
35.7308 116.0
35.7406 106.0
35.7505 99.0
35.7603 113.0
35.7702 142.0
35.78 145.0
35.7899 125.0
35.7997 132.0
35.8096 132.0
35.8194 133.0
35.8293 110.0
35.8391 139.0
35.849 122.0
35.8588 127.0
35.8687 152.0
35.8785 125.0
35.8884 126.0
35.8982 109.0
35.9081 121.0
35.9179 119.0
35.9277 112.0
35.9376 125.0
35.9474 122.0
35.9573 101.0
35.9671 119.0
35.977 128.0
35.9868 116.0
35.9967 120.0
36.0065 137.0
36.0164 129.0
36.0262 110.0
36.0361 101.0
36.0459 120.0
36.0558 103.0
36.0656 107.0
36.0755 107.0
36.0853 112.0
36.0952 127.0
36.105 153.0
36.1149 138.0
36.1247 140.0
36.1345 120.0
36.1444 129.0
36.1542 136.0
36.1641 105.0
36.1739 142.0
36.1838 135.0
36.1936 153.0
36.2035 133.0
36.2133 108.0
36.2232 125.0
36.233 108.0
36.2429 117.0
36.2527 133.0
36.2626 100.0
36.2724 113.0
36.2823 128.0
36.2921 120.0
36.302 134.0
36.3118 117.0
36.3217 113.0
36.3315 132.0
36.3414 129.0
36.3512 142.0
36.361 126.0
36.3709 114.0
36.3807 128.0
36.3906 140.0
36.4004 137.0
36.4103 117.0
36.4201 123.0
36.43 146.0
36.4398 136.0
36.4497 120.0
36.4595 140.0
36.4694 126.0
36.4792 146.0
36.4891 143.0
36.4989 107.0
36.5088 113.0
36.5186 144.0
36.5285 133.0
36.5383 117.0
36.5482 114.0
36.558 128.0
36.5678 121.0
36.5777 126.0
36.5875 126.0
36.5974 126.0
36.6072 124.0
36.6171 118.0
36.6269 127.0
36.6368 134.0
36.6466 119.0
36.6565 134.0
36.6663 128.0
36.6762 146.0
36.686 139.0
36.6959 114.0
36.7057 135.0
36.7156 125.0
36.7254 125.0
36.7353 129.0
36.7451 98.0
36.755 124.0
36.7648 121.0
36.7747 128.0
36.7845 108.0
36.7943 131.0
36.8042 147.0
36.814 120.0
36.8239 131.0
36.8337 111.0
36.8436 130.0
36.8534 116.0
36.8633 114.0
36.8731 125.0
36.883 124.0
36.8928 136.0
36.9027 119.0
36.9125 117.0
36.9224 127.0
36.9322 136.0
36.9421 119.0
36.9519 126.0
36.9618 140.0
36.9716 115.0
36.9815 112.0
36.9913 126.0
37.0011 134.0
37.011 115.0
37.0208 122.0
37.0307 120.0
37.0405 119.0
37.0504 120.0
37.0602 130.0
37.0701 126.0
37.0799 123.0
37.0898 120.0
37.0996 127.0
37.1095 139.0
37.1193 143.0
37.1292 141.0
37.139 113.0
37.1489 131.0
37.1587 126.0
37.1686 137.0
37.1784 120.0
37.1883 131.0
37.1981 126.0
37.2079 134.0
37.2178 119.0
37.2276 134.0
37.2375 126.0
37.2473 142.0
37.2572 119.0
37.267 113.0
37.2769 132.0
37.2867 132.0
37.2966 127.0
37.3064 133.0
37.3163 117.0
37.3261 130.0
37.336 135.0
37.3458 154.0
37.3557 136.0
37.3655 110.0
37.3754 157.0
37.3852 143.0
37.3951 166.0
37.4049 163.0
37.4148 258.0
37.4246 335.0
37.4344 329.0
37.4443 346.0
37.4541 331.0
37.464 267.0
37.4738 209.0
37.4837 181.0
37.4935 142.0
37.5034 135.0
37.5132 133.0
37.5231 125.0
37.5329 129.0
37.5428 122.0
37.5526 135.0
37.5625 124.0
37.5723 120.0
37.5822 116.0
37.592 135.0
37.6019 139.0
37.6117 133.0
37.6216 135.0
37.6314 159.0
37.6412 120.0
37.6511 131.0
37.6609 138.0
37.6708 152.0
37.6806 136.0
37.6905 131.0
37.7003 124.0
37.7102 130.0
37.72 127.0
37.7299 128.0
37.7397 130.0
37.7496 134.0
37.7594 127.0
37.7693 117.0
37.7791 147.0
37.789 135.0
37.7988 133.0
37.8087 131.0
37.8185 139.0
37.8284 123.0
37.8382 112.0
37.8481 154.0
37.8579 154.0
37.8677 125.0
37.8776 120.0
37.8874 148.0
37.8973 131.0
37.9071 133.0
37.917 138.0
37.9268 135.0
37.9367 134.0
37.9465 142.0
37.9564 133.0
37.9662 144.0
37.9761 126.0
37.9859 146.0
37.9958 131.0
38.0056 131.0
38.0155 139.0
38.0253 115.0
38.0352 118.0
38.045 134.0
38.0549 124.0
38.0647 129.0
38.0745 154.0
38.0844 123.0
38.0942 134.0
38.1041 115.0
38.1139 153.0
38.1238 135.0
38.1336 132.0
38.1435 125.0
38.1533 138.0
38.1632 145.0
38.173 135.0
38.1829 112.0
38.1927 143.0
38.2026 143.0
38.2124 126.0
38.2223 108.0
38.2321 117.0
38.242 130.0
38.2518 119.0
38.2617 135.0
38.2715 128.0
38.2814 123.0
38.2912 137.0
38.301 137.0
38.3109 133.0
38.3207 159.0
38.3306 128.0
38.3404 148.0
38.3503 154.0
38.3601 132.0
38.37 133.0
38.3798 144.0
38.3897 150.0
38.3995 162.0
38.4094 126.0
38.4192 142.0
38.4291 157.0
38.4389 155.0
38.4488 144.0
38.4586 124.0
38.4685 152.0
38.4783 122.0
38.4882 159.0
38.498 123.0
38.5078 140.0
38.5177 138.0
38.5275 159.0
38.5374 141.0
38.5472 155.0
38.5571 141.0
38.5669 162.0
38.5768 178.0
38.5866 167.0
38.5965 170.0
38.6063 153.0
38.6162 169.0
38.626 155.0
38.6359 155.0
38.6457 196.0
38.6556 179.0
38.6654 192.0
38.6753 179.0
38.6851 179.0
38.695 154.0
38.7048 186.0
38.7146 187.0
38.7245 203.0
38.7343 171.0
38.7442 201.0
38.754 206.0
38.7639 202.0
38.7737 220.0
38.7836 187.0
38.7934 218.0
38.8033 198.0
38.8131 181.0
38.823 209.0
38.8328 227.0
38.8427 199.0
38.8525 212.0
38.8624 226.0
38.8722 192.0
38.8821 224.0
38.8919 225.0
38.9018 217.0
38.9116 236.0
38.9215 216.0
38.9313 221.0
38.9411 223.0
38.951 275.0
38.9608 221.0
38.9707 224.0
38.9805 261.0
38.9904 256.0
39.0002 277.0
39.0101 225.0
39.0199 262.0
39.0298 230.0
39.0396 278.0
39.0495 295.0
39.0593 261.0
39.0692 280.0
39.079 262.0
39.0889 263.0
39.0987 264.0
39.1086 282.0
39.1184 266.0
39.1283 266.0
39.1381 261.0
39.1479 287.0
39.1578 299.0
39.1676 285.0
39.1775 280.0
39.1873 284.0
39.1972 270.0
39.207 270.0
39.2169 283.0
39.2267 271.0
39.2366 280.0
39.2464 268.0
39.2563 260.0
39.2661 281.0
39.276 227.0
39.2858 269.0
39.2957 273.0
39.3055 294.0
39.3154 260.0
39.3252 260.0
39.3351 287.0
39.3449 238.0
39.3548 213.0
39.3646 266.0
39.3744 237.0
39.3843 232.0
39.3941 234.0
39.404 265.0
39.4138 222.0
39.4237 227.0
39.4335 221.0
39.4434 228.0
39.4532 194.0
39.4631 218.0
39.4729 216.0
39.4828 221.0
39.4926 216.0
39.5025 215.0
39.5123 214.0
39.5222 207.0
39.532 206.0
39.5419 187.0
39.5517 217.0
39.5616 208.0
39.5714 239.0
39.5812 193.0
39.5911 170.0
39.6009 188.0
39.6108 200.0
39.6206 178.0
39.6305 177.0
39.6403 165.0
39.6502 183.0
39.66 159.0
39.6699 183.0
39.6797 160.0
39.6896 174.0
39.6994 188.0
39.7093 165.0
39.7191 173.0
39.729 174.0
39.7388 148.0
39.7487 151.0
39.7585 182.0
39.7684 146.0
39.7782 156.0
39.788 176.0
39.7979 156.0
39.8077 163.0
39.8176 144.0
39.8274 161.0
39.8373 155.0
39.8471 152.0
39.857 158.0
39.8668 137.0
39.8767 150.0
39.8865 165.0
39.8964 159.0
39.9062 135.0
39.9161 164.0
39.9259 149.0
39.9358 126.0
39.9456 141.0
39.9555 155.0
39.9653 144.0
39.9752 139.0
39.985 138.0
39.9949 135.0
40.0047 134.0
40.0145 135.0
40.0244 139.0
40.0342 150.0
40.0441 152.0
40.0539 136.0
40.0638 126.0
40.0736 142.0
40.0835 147.0
40.0933 134.0
40.1032 137.0
40.113 140.0
40.1229 137.0
40.1327 138.0
40.1426 133.0
40.1524 131.0
40.1623 130.0
40.1721 152.0
40.182 125.0
40.1918 158.0
40.2017 149.0
40.2115 142.0
40.2213 153.0
40.2312 134.0
40.241 138.0
40.2509 133.0
40.2607 145.0
40.2706 128.0
40.2804 161.0
40.2903 149.0
40.3001 152.0
40.31 130.0
40.3198 130.0
40.3297 153.0
40.3395 137.0
40.3494 145.0
40.3592 143.0
40.3691 154.0
40.3789 168.0
40.3888 146.0
40.3986 157.0
40.4085 156.0
40.4183 137.0
40.4282 132.0
40.438 133.0
40.4478 150.0
40.4577 152.0
40.4675 147.0
40.4774 141.0
40.4872 150.0
40.4971 159.0
40.5069 169.0
40.5168 168.0
40.5266 132.0
40.5365 149.0
40.5463 134.0
40.5562 156.0
40.566 150.0
40.5759 175.0
40.5857 160.0
40.5956 160.0
40.6054 151.0
40.6153 168.0
40.6251 161.0
40.635 174.0
40.6448 160.0
40.6546 166.0
40.6645 147.0
40.6743 163.0
40.6842 169.0
40.694 161.0
40.7039 163.0
40.7137 155.0
40.7236 177.0
40.7334 191.0
40.7433 179.0
40.7531 188.0
40.763 156.0
40.7728 167.0
40.7827 184.0
40.7925 153.0
40.8024 185.0
40.8122 190.0
40.8221 177.0
40.8319 184.0
40.8418 200.0
40.8516 173.0
40.8615 193.0
40.8713 182.0
40.8811 170.0
40.891 190.0
40.9008 173.0
40.9107 170.0
40.9205 211.0
40.9304 180.0
40.9402 186.0
40.9501 179.0
40.9599 177.0
40.9698 185.0
40.9796 177.0
40.9895 205.0
40.9993 184.0
41.0092 188.0
41.019 186.0
41.0289 206.0
41.0387 208.0
41.0486 177.0
41.0584 186.0
41.0683 227.0
41.0781 208.0
41.0879 208.0
41.0978 227.0
41.1076 217.0
41.1175 228.0
41.1273 210.0
41.1372 204.0
41.147 220.0
41.1569 274.0
41.1667 208.0
41.1766 256.0
41.1864 255.0
41.1963 260.0
41.2061 266.0
41.216 255.0
41.2258 290.0
41.2357 229.0
41.2455 280.0
41.2554 320.0
41.2652 281.0
41.2751 313.0
41.2849 308.0
41.2947 333.0
41.3046 365.0
41.3144 332.0
41.3243 312.0
41.3341 341.0
41.344 408.0
41.3538 407.0
41.3637 449.0
41.3735 529.0
41.3834 548.0
41.3932 648.0
41.4031 758.0
41.4129 922.0
41.4228 861.0
41.4326 967.0
41.4425 970.0
41.4523 980.0
41.4622 988.0
41.472 992.0
41.4819 959.0
41.4917 1072.0
41.5016 1099.0
41.5114 1219.0
41.5212 1403.0
41.5311 1839.0
41.5409 2290.0
41.5508 3272.0
41.5606 4681.0
41.5705 8380.0
41.5803 20384.0
41.5902 43324.0
41.6 56448.0
41.6099 61524.0
41.6197 63039.0
41.6296 60147.0
41.6394 45533.0
41.6493 22372.0
41.6591 11091.0
41.669 7381.0
41.6788 7454.0
41.6887 12360.0
41.6985 22064.0
41.7084 29213.0
41.7182 31603.0
41.728 31393.0
41.7379 29314.0
41.7477 22037.0
41.7576 11820.0
41.7674 5639.0
41.7773 3213.0
41.7871 2161.0
41.797 1570.0
41.8068 1277.0
41.8167 1096.0
41.8265 892.0
41.8364 845.0
41.8462 757.0
41.8561 704.0
41.8659 640.0
41.8758 583.0
41.8856 555.0
41.8955 490.0
41.9053 489.0
41.9152 477.0
41.925 455.0
41.9349 387.0
41.9447 368.0
41.9545 362.0
41.9644 359.0
41.9742 338.0
41.9841 345.0
41.9939 342.0
42.0038 347.0
42.0136 319.0
42.0235 318.0
42.0333 315.0
42.0432 316.0
42.053 303.0
42.0629 293.0
42.0727 296.0
42.0826 266.0
42.0924 221.0
42.1023 286.0
42.1121 215.0
42.122 265.0
42.1318 221.0
42.1417 195.0
42.1515 222.0
42.1613 218.0
42.1712 210.0
42.181 211.0
42.1909 217.0
42.2007 211.0
42.2106 198.0
42.2204 194.0
42.2303 164.0
42.2401 182.0
42.25 193.0
42.2598 189.0
42.2697 178.0
42.2795 155.0
42.2894 197.0
42.2992 180.0
42.3091 199.0
42.3189 181.0
42.3288 156.0
42.3386 188.0
42.3485 181.0
42.3583 181.0
42.3682 182.0
42.378 163.0
42.3878 176.0
42.3977 165.0
42.4075 136.0
42.4174 136.0
42.4272 142.0
42.4371 161.0
42.4469 161.0
42.4568 161.0
42.4666 168.0
42.4765 151.0
42.4863 150.0
42.4962 164.0
42.506 149.0
42.5159 161.0
42.5257 136.0
42.5356 151.0
42.5454 148.0
42.5553 130.0
42.5651 149.0
42.575 141.0
42.5848 142.0
42.5946 153.0
42.6045 171.0
42.6143 139.0
42.6242 158.0
42.634 141.0
42.6439 128.0
42.6537 135.0
42.6636 146.0
42.6734 145.0
42.6833 147.0
42.6931 131.0
42.703 141.0
42.7128 130.0
42.7227 136.0
42.7325 125.0
42.7424 135.0
42.7522 139.0
42.7621 128.0
42.7719 131.0
42.7818 156.0
42.7916 139.0
42.8014 144.0
42.8113 146.0
42.8211 155.0
42.831 123.0
42.8408 145.0
42.8507 128.0
42.8605 135.0
42.8704 123.0
42.8802 135.0
42.8901 144.0
42.8999 139.0
42.9098 137.0
42.9196 134.0
42.9295 127.0
42.9393 126.0
42.9492 131.0
42.959 129.0
42.9689 133.0
42.9787 136.0
42.9886 127.0
42.9984 136.0
43.0083 137.0
43.0181 131.0
43.0279 145.0
43.0378 144.0
43.0476 125.0
43.0575 123.0
43.0673 137.0
43.0772 122.0
43.087 120.0
43.0969 130.0
43.1067 150.0
43.1166 125.0
43.1264 154.0
43.1363 119.0
43.1461 108.0
43.156 138.0
43.1658 125.0
43.1757 128.0
43.1855 141.0
43.1954 147.0
43.2052 158.0
43.2151 115.0
43.2249 113.0
43.2347 127.0
43.2446 116.0
43.2544 137.0
43.2643 127.0
43.2741 157.0
43.284 140.0
43.2938 135.0
43.3037 139.0
43.3135 134.0
43.3234 133.0
43.3332 141.0
43.3431 128.0
43.3529 128.0
43.3628 134.0
43.3726 140.0
43.3825 125.0
43.3923 132.0
43.4022 140.0
43.412 136.0
43.4219 145.0
43.4317 125.0
43.4416 115.0
43.4514 148.0
43.4612 122.0
43.4711 127.0
43.4809 129.0
43.4908 130.0
43.5006 134.0
43.5105 110.0
43.5203 145.0
43.5302 124.0
43.54 136.0
43.5499 122.0
43.5597 153.0
43.5696 132.0
43.5794 137.0
43.5893 152.0
43.5991 150.0
43.609 133.0
43.6188 132.0
43.6287 145.0
43.6385 129.0
43.6484 137.0
43.6582 160.0
43.668 130.0
43.6779 130.0
43.6877 129.0
43.6976 135.0
43.7074 165.0
43.7173 150.0
43.7271 132.0
43.737 112.0
43.7468 142.0
43.7567 124.0
43.7665 161.0
43.7764 126.0
43.7862 156.0
43.7961 157.0
43.8059 143.0
43.8158 135.0
43.8256 136.0
43.8355 132.0
43.8453 140.0
43.8552 144.0
43.865 145.0
43.8749 156.0
43.8847 173.0
43.8945 164.0
43.9044 142.0
43.9142 142.0
43.9241 147.0
43.9339 131.0
43.9438 140.0
43.9536 186.0
43.9635 158.0
43.9733 162.0
43.9832 165.0
43.993 169.0
44.0029 157.0
44.0127 138.0
44.0226 174.0
44.0324 160.0
44.0423 153.0
44.0521 166.0
44.062 156.0
44.0718 170.0
44.0817 185.0
44.0915 176.0
44.1013 174.0
44.1112 155.0
44.121 168.0
44.1309 183.0
44.1407 174.0
44.1506 154.0
44.1604 170.0
44.1703 145.0
44.1801 191.0
44.19 169.0
44.1998 172.0
44.2097 232.0
44.2195 190.0
44.2294 194.0
44.2392 181.0
44.2491 208.0
44.2589 206.0
44.2688 203.0
44.2786 209.0
44.2885 219.0
44.2983 257.0
44.3081 258.0
44.318 285.0
44.3278 279.0
44.3377 280.0
44.3475 283.0
44.3574 301.0
44.3672 282.0
44.3771 313.0
44.3869 303.0
44.3968 318.0
44.4066 295.0
44.4165 298.0
44.4263 315.0
44.4362 289.0
44.446 314.0
44.4559 285.0
44.4657 274.0
44.4756 265.0
44.4854 280.0
44.4953 259.0
44.5051 245.0
44.515 246.0
44.5248 264.0
44.5346 235.0
44.5445 235.0
44.5543 269.0
44.5642 230.0
44.574 219.0
44.5839 220.0
44.5937 217.0
44.6036 196.0
44.6134 210.0
44.6233 213.0
44.6331 212.0
44.643 189.0
44.6528 177.0
44.6627 177.0
44.6725 156.0
44.6824 165.0
44.6922 174.0
44.7021 150.0
44.7119 143.0
44.7218 177.0
44.7316 154.0
44.7414 143.0
44.7513 146.0
44.7611 169.0
44.771 160.0
44.7808 165.0
44.7907 167.0
44.8005 141.0
44.8104 146.0
44.8202 150.0
44.8301 137.0
44.8399 129.0
44.8498 134.0
44.8596 153.0
44.8695 149.0
44.8793 143.0
44.8892 143.0
44.899 139.0
44.9089 158.0
44.9187 162.0
44.9286 150.0
44.9384 130.0
44.9483 162.0
44.9581 152.0
44.9679 136.0
44.9778 145.0
44.9876 127.0
44.9975 149.0