File: data/W6779r/XRD_2ThetaOmega/W6779r_absolute_2th-om_10-130deg_PIXscan_17min_2.xy
10.0035 9.0
10.0872 14.0
10.1709 19.0
10.2546 21.0
10.3383 21.0
10.422 27.0
10.5057 16.0
10.5894 18.0
10.6731 14.0
10.7568 21.0
10.8405 22.0
10.9242 17.0
11.0079 17.0
11.0916 22.0
11.1753 20.0
11.259 16.0
11.3428 22.0
11.4265 18.0
11.5102 20.0
11.5939 12.0
11.6776 20.0
11.7613 15.0
11.845 16.0
11.9287 15.0
12.0124 17.0
12.0961 20.0
12.1798 21.0
12.2635 15.0
12.3472 10.0
12.4309 17.0
12.5146 19.0
12.5983 7.0
12.682 13.0
12.7657 18.0
12.8495 16.0
12.9332 23.0
13.0169 25.0
13.1006 16.0
13.1843 19.0
13.268 18.0
13.3517 17.0
13.4354 13.0
13.5191 18.0
13.6028 12.0
13.6865 13.0
13.7702 17.0
13.8539 16.0
13.9376 12.0
14.0213 13.0
14.105 15.0
14.1887 14.0
14.2724 14.0
14.3562 9.0
14.4399 21.0
14.5236 14.0
14.6073 14.0
14.691 9.0
14.7747 12.0
14.8584 17.0
14.9421 14.0
15.0258 9.0
15.1095 16.0
15.1932 18.0
15.2769 15.0
15.3606 19.0
15.4443 15.0
15.528 10.0
15.6117 24.0
15.6954 15.0
15.7791 17.0
15.8629 13.0
15.9466 19.0
16.0303 17.0
16.114 7.0
16.1977 27.0
16.2814 9.0
16.3651 18.0
16.4488 19.0
16.5325 15.0
16.6162 9.0
16.6999 14.0
16.7836 16.0
16.8673 12.0
16.951 5.0
17.0347 19.0
17.1184 19.0
17.2021 13.0
17.2858 15.0
17.3696 10.0
17.4533 5.0
17.537 15.0
17.6207 15.0
17.7044 12.0
17.7881 15.0
17.8718 10.0
17.9555 10.0
18.0392 15.0
18.1229 12.0
18.2066 10.0
18.2903 13.0
18.374 8.0
18.4577 14.0
18.5414 16.0
18.6251 18.0
18.7088 8.0
18.7925 6.0
18.8763 14.0
18.96 9.0
19.0437 10.0
19.1274 16.0
19.2111 23.0
19.2948 12.0
19.3785 10.0
19.4622 11.0
19.5459 6.0
19.6296 9.0
19.7133 16.0
19.797 11.0
19.8807 12.0
19.9644 17.0
20.0481 11.0
20.1318 8.0
20.2155 9.0
20.2992 12.0
20.383 12.0
20.4667 9.0
20.5504 9.0
20.6341 11.0
20.7178 8.0
20.8015 4.0
20.8852 9.0
20.9689 12.0
21.0526 6.0
21.1363 14.0
21.22 14.0
21.3037 9.0
21.3874 13.0
21.4711 7.0
21.5548 7.0
21.6385 10.0
21.7222 9.0
21.8059 13.0
21.8897 11.0
21.9734 11.0
22.0571 10.0
22.1408 8.0
22.2245 11.0
22.3082 16.0
22.3919 11.0
22.4756 14.0
22.5593 13.0
22.643 16.0
22.7267 8.0
22.8104 7.0
22.8941 12.0
22.9778 22.0
23.0615 24.0
23.1452 11.0
23.2289 14.0
23.3126 25.0
23.3964 15.0
23.4801 20.0
23.5638 28.0
23.6475 17.0
23.7312 40.0
23.8149 25.0
23.8986 46.0
23.9823 65.0
24.066 92.0
24.1497 191.0
24.2334 373.0
24.3171 1819.0
24.4008 2017.0
24.4845 598.0
24.5682 173.0
24.6519 130.0
24.7356 66.0
24.8193 53.0
24.9031 63.0
24.9868 49.0
25.0705 65.0
25.1542 68.0
25.2379 109.0
25.3216 157.0
25.4053 633.0
25.489 10360.0
25.5727 21672.0
25.6564 945.0
25.7401 335.0
25.8238 260.0
25.9075 188.0
25.9912 127.0
26.0749 114.0
26.1586 100.0
26.2423 76.0
26.326 64.0
26.4098 38.0
26.4935 34.0
26.5772 29.0
26.6609 28.0
26.7446 27.0
26.8283 19.0
26.912 15.0
26.9957 13.0
27.0794 19.0
27.1631 18.0
27.2468 18.0
27.3305 14.0
27.4142 9.0
27.4979 12.0
27.5816 15.0
27.6653 10.0
27.749 13.0
27.8327 16.0
27.9165 8.0
28.0002 6.0
28.0839 22.0
28.1676 10.0
28.2513 9.0
28.335 11.0
28.4187 11.0
28.5024 8.0
28.5861 11.0
28.6698 9.0
28.7535 9.0
28.8372 5.0
28.9209 10.0
29.0046 9.0
29.0883 10.0
29.172 11.0
29.2557 9.0
29.3394 3.0
29.4232 5.0
29.5069 10.0
29.5906 8.0
29.6743 9.0
29.758 13.0
29.8417 10.0
29.9254 7.0
30.0091 6.0
30.0928 9.0
30.1765 11.0
30.2602 8.0
30.3439 9.0
30.4276 6.0
30.5113 10.0
30.595 4.0
30.6787 7.0
30.7624 4.0
30.8461 4.0
30.9298 12.0
31.0136 11.0
31.0973 14.0
31.181 12.0
31.2647 7.0
31.3484 7.0
31.4321 9.0
31.5158 10.0
31.5995 12.0
31.6832 7.0
31.7669 11.0
31.8506 6.0
31.9343 8.0
32.018 6.0
32.1017 13.0
32.1854 9.0
32.2691 9.0
32.3528 10.0
32.4365 8.0
32.5203 8.0
32.604 13.0
32.6877 10.0
32.7714 9.0
32.8551 12.0
32.9388 10.0
33.0225 10.0
33.1062 10.0
33.1899 7.0
33.2736 9.0
33.3573 8.0
33.441 5.0
33.5247 3.0
33.6084 6.0
33.6921 7.0
33.7758 11.0
33.8595 9.0
33.9432 6.0
34.027 8.0
34.1107 4.0
34.1944 7.0
34.2781 11.0
34.3618 11.0
34.4455 9.0
34.5292 6.0
34.6129 9.0
34.6966 1.0
34.7803 7.0
34.864 6.0
34.9477 8.0
35.0314 11.0
35.1151 12.0
35.1988 11.0
35.2825 7.0
35.3662 16.0
35.4499 7.0
35.5337 11.0
35.6174 10.0
35.7011 7.0
35.7848 13.0
35.8685 11.0
35.9522 14.0
36.0359 9.0
36.1196 7.0
36.2033 6.0
36.287 4.0
36.3707 10.0
36.4544 8.0
36.5381 8.0
36.6218 13.0
36.7055 13.0
36.7892 10.0
36.8729 8.0
36.9566 8.0
37.0404 9.0
37.1241 9.0
37.2078 5.0
37.2915 6.0
37.3752 11.0
37.4589 7.0
37.5426 8.0
37.6263 6.0
37.71 10.0
37.7937 9.0
37.8774 11.0
37.9611 8.0
38.0448 5.0
38.1285 8.0
38.2122 15.0
38.2959 8.0
38.3796 12.0
38.4633 10.0
38.5471 11.0
38.6308 9.0
38.7145 14.0
38.7982 9.0
38.8819 9.0
38.9656 8.0
39.0493 8.0
39.133 6.0
39.2167 7.0
39.3004 12.0
39.3841 8.0
39.4678 5.0
39.5515 6.0
39.6352 13.0
39.7189 7.0
39.8026 6.0
39.8863 6.0
39.97 4.0
40.0538 9.0
40.1375 14.0
40.2212 6.0
40.3049 9.0
40.3886 11.0
40.4723 6.0
40.556 10.0
40.6397 5.0
40.7234 6.0
40.8071 4.0
40.8908 10.0
40.9745 7.0
41.0582 8.0
41.1419 15.0
41.2256 14.0
41.3093 12.0
41.393 10.0
41.4767 4.0
41.5605 10.0
41.6442 3.0
41.7279 9.0
41.8116 12.0
41.8953 9.0
41.979 8.0
42.0627 12.0
42.1464 9.0
42.2301 11.0
42.3138 7.0
42.3975 6.0
42.4812 9.0
42.5649 6.0
42.6486 11.0
42.7323 17.0
42.816 9.0
42.8997 10.0
42.9834 4.0
43.0672 3.0
43.1509 12.0
43.2346 6.0
43.3183 4.0
43.402 10.0
43.4857 14.0
43.5694 12.0
43.6531 6.0
43.7368 8.0
43.8205 8.0
43.9042 11.0
43.9879 13.0
44.0716 13.0
44.1553 12.0
44.239 12.0
44.3227 17.0
44.4064 14.0
44.4901 17.0
44.5739 17.0
44.6576 13.0
44.7413 11.0
44.825 14.0
44.9087 17.0
44.9924 19.0
45.0761 7.0
45.1598 7.0
45.2435 11.0
45.3272 13.0
45.4109 10.0
45.4946 11.0
45.5783 9.0
45.662 11.0
45.7457 8.0
45.8294 5.0
45.9131 12.0
45.9968 10.0
46.0806 3.0
46.1643 15.0
46.248 10.0
46.3317 8.0
46.4154 10.0
46.4991 6.0
46.5828 9.0
46.6665 11.0
46.7502 3.0
46.8339 15.0
46.9176 6.0
47.0013 13.0
47.085 73.0
47.1687 26.0
47.2524 14.0
47.3361 13.0
47.4198 12.0
47.5035 13.0
47.5873 10.0
47.671 9.0
47.7547 13.0
47.8384 12.0
47.9221 14.0
48.0058 8.0
48.0895 12.0
48.1732 18.0
48.2569 9.0
48.3406 14.0
48.4243 17.0
48.508 15.0
48.5917 9.0
48.6754 8.0
48.7591 8.0
48.8428 11.0
48.9265 17.0
49.0102 16.0
49.094 17.0
49.1777 18.0
49.2614 18.0
49.3451 37.0
49.4288 28.0
49.5125 39.0
49.5962 48.0
49.6799 98.0
49.7636 161.0
49.8473 350.0
49.931 713.0
50.0147 759.0
50.0984 607.0
50.1821 446.0
50.2658 126.0
50.3495 62.0
50.4332 59.0
50.5169 41.0
50.6007 34.0
50.6844 32.0
50.7681 32.0
50.8518 30.0
50.9355 27.0
51.0192 28.0
51.1029 29.0
51.1866 18.0
51.2703 17.0
51.354 19.0
51.4377 25.0
51.5214 23.0
51.6051 28.0
51.6888 39.0
51.7725 38.0
51.8562 39.0
51.9399 56.0
52.0236 84.0
52.1074 113.0
52.1911 162.0
52.2748 427.0
52.3585 558.0
52.4422 3173.0
52.5259 26387.0
52.6096 10503.0
52.6933 3118.0
52.777 535.0
52.8607 300.0
52.9444 187.0
53.0281 147.0
53.1118 121.0
53.1955 115.0
53.2792 110.0
53.3629 96.0
53.4466 95.0
53.5303 69.0
53.6141 77.0
53.6978 74.0
53.7815 53.0
53.8652 59.0
53.9489 46.0
54.0326 36.0
54.1163 39.0
54.2 36.0
54.2837 29.0
54.3674 29.0
54.4511 31.0
54.5348 17.0
54.6185 23.0
54.7022 11.0
54.7859 27.0
54.8696 22.0
54.9533 21.0
55.037 11.0
55.1208 31.0
55.2045 22.0
55.2882 14.0
55.3719 18.0
55.4556 13.0
55.5393 18.0
55.623 19.0
55.7067 8.0
55.7904 14.0
55.8741 11.0
55.9578 10.0
56.0415 16.0
56.1252 19.0
56.2089 17.0
56.2926 22.0
56.3763 10.0
56.46 16.0
56.5437 5.0
56.6275 11.0
56.7112 17.0
56.7949 7.0
56.8786 14.0
56.9623 20.0
57.046 3.0
57.1297 14.0
57.2134 17.0
57.2971 19.0
57.3808 11.0
57.4645 9.0
57.5482 9.0
57.6319 11.0
57.7156 7.0
57.7993 12.0
57.883 8.0
57.9667 12.0
58.0504 9.0
58.1342 16.0
58.2179 8.0
58.3016 11.0
58.3853 9.0
58.469 14.0
58.5527 16.0
58.6364 14.0
58.7201 7.0
58.8038 12.0
58.8875 9.0
58.9712 8.0
59.0549 11.0
59.1386 8.0
59.2223 14.0
59.306 10.0
59.3897 6.0
59.4734 11.0
59.5571 9.0
59.6409 7.0
59.7246 6.0
59.8083 8.0
59.892 16.0
59.9757 14.0
60.0594 10.0
60.1431 10.0
60.2268 10.0
60.3105 15.0
60.3942 10.0
60.4779 14.0
60.5616 5.0
60.6453 12.0
60.729 10.0
60.8127 13.0
60.8964 14.0
60.9801 11.0
61.0638 6.0
61.1476 9.0
61.2313 7.0
61.315 9.0
61.3987 15.0
61.4824 6.0
61.5661 5.0
61.6498 13.0
61.7335 9.0
61.8172 14.0
61.9009 5.0
61.9846 9.0
62.0683 15.0
62.152 15.0
62.2357 12.0
62.3194 5.0
62.4031 14.0
62.4868 11.0
62.5705 5.0
62.6543 9.0
62.738 18.0
62.8217 10.0
62.9054 10.0
62.9891 11.0
63.0728 7.0
63.1565 15.0
63.2402 6.0
63.3239 6.0
63.4076 10.0
63.4913 8.0
63.575 6.0
63.6587 9.0
63.7424 2.0
63.8261 15.0
63.9098 8.0
63.9935 14.0
64.0772 13.0
64.161 7.0
64.2447 10.0
64.3284 7.0
64.4121 9.0
64.4958 13.0
64.5795 10.0
64.6632 12.0
64.7469 10.0
64.8306 9.0
64.9143 9.0
64.998 11.0
65.0817 4.0
65.1654 6.0
65.2491 15.0
65.3328 9.0
65.4165 12.0
65.5002 15.0
65.5839 16.0
65.6677 9.0
65.7514 13.0
65.8351 12.0
65.9188 7.0
66.0025 13.0
66.0862 13.0
66.1699 12.0
66.2536 12.0
66.3373 13.0
66.421 11.0
66.5047 11.0
66.5884 8.0
66.6721 16.0
66.7558 3.0
66.8395 13.0
66.9232 13.0
67.0069 8.0
67.0906 11.0
67.1744 3.0
67.2581 9.0
67.3418 12.0
67.4255 3.0
67.5092 12.0
67.5929 11.0
67.6766 9.0
67.7603 9.0
67.844 11.0
67.9277 10.0
68.0114 9.0
68.0951 8.0
68.1788 13.0
68.2625 10.0
68.3462 9.0
68.4299 9.0
68.5136 10.0
68.5973 13.0
68.6811 11.0
68.7648 10.0
68.8485 12.0
68.9322 4.0
69.0159 8.0
69.0996 9.0
69.1833 14.0
69.267 7.0
69.3507 13.0
69.4344 9.0
69.5181 4.0
69.6018 15.0
69.6855 12.0
69.7692 12.0
69.8529 5.0
69.9366 2.0
70.0203 7.0
70.104 9.0
70.1878 5.0
70.2715 8.0
70.3552 8.0
70.4389 14.0
70.5226 6.0
70.6063 8.0
70.69 14.0
70.7737 5.0
70.8574 10.0
70.9411 7.0
71.0248 9.0
71.1085 12.0
71.1922 7.0
71.2759 12.0
71.3596 11.0
71.4433 11.0
71.527 15.0
71.6107 13.0
71.6945 9.0
71.7782 9.0
71.8619 14.0
71.9456 6.0
72.0293 6.0
72.113 9.0
72.1967 13.0
72.2804 11.0
72.3641 9.0
72.4478 16.0
72.5315 15.0
72.6152 10.0
72.6989 9.0
72.7826 16.0
72.8663 12.0
72.95 11.0
73.0337 9.0
73.1174 8.0
73.2012 5.0
73.2849 9.0
73.3686 12.0
73.4523 17.0
73.536 6.0
73.6197 10.0
73.7034 26.0
73.7871 16.0
73.8708 4.0
73.9545 11.0
74.0382 7.0
74.1219 12.0
74.2056 14.0
74.2893 17.0
74.373 4.0
74.4567 10.0
74.5404 8.0
74.6241 13.0
74.7079 10.0
74.7916 8.0
74.8753 10.0
74.959 14.0
75.0427 4.0
75.1264 10.0
75.2101 19.0
75.2938 15.0
75.3775 8.0
75.4612 8.0
75.5449 14.0
75.6286 17.0
75.7123 8.0
75.796 6.0
75.8797 15.0
75.9634 15.0
76.0471 4.0
76.1308 8.0
76.2146 5.0
76.2983 13.0
76.382 17.0
76.4657 19.0
76.5494 6.0
76.6331 8.0
76.7168 7.0
76.8005 12.0
76.8842 14.0
76.9679 9.0
77.0516 12.0
77.1353 14.0
77.219 12.0
77.3027 11.0
77.3864 14.0
77.4701 14.0
77.5538 5.0
77.6375 8.0
77.7213 6.0
77.805 9.0
77.8887 13.0
77.9724 13.0
78.0561 18.0
78.1398 11.0
78.2235 9.0
78.3072 12.0
78.3909 16.0
78.4746 26.0
78.5583 37.0
78.642 60.0
78.7257 50.0
78.8094 37.0
78.8931 28.0
78.9768 37.0
79.0605 25.0
79.1442 9.0
79.228 10.0
79.3117 17.0
79.3954 8.0
79.4791 13.0
79.5628 9.0
79.6465 15.0
79.7302 10.0
79.8139 5.0
79.8976 13.0
79.9813 9.0
80.065 7.0
80.1487 8.0
80.2324 8.0
80.3161 17.0
80.3998 11.0
80.4835 11.0
80.5672 9.0
80.6509 4.0
80.7347 15.0
80.8184 19.0
80.9021 17.0
80.9858 9.0
81.0695 11.0
81.1532 14.0
81.2369 13.0
81.3206 12.0
81.4043 10.0
81.488 12.0
81.5717 14.0
81.6554 13.0
81.7391 9.0
81.8228 16.0
81.9065 13.0
81.9902 17.0
82.0739 12.0
82.1576 7.0
82.2414 17.0
82.3251 17.0
82.4088 13.0
82.4925 11.0
82.5762 16.0
82.6599 20.0
82.7436 25.0
82.8273 29.0
82.911 30.0
82.9947 33.0
83.0784 98.0
83.1621 1850.0
83.2458 270.0
83.3295 83.0
83.4132 944.0
83.4969 163.0
83.5806 41.0
83.6643 21.0
83.7481 14.0
83.8318 27.0
83.9155 14.0
83.9992 17.0
84.0829 18.0
84.1666 11.0
84.2503 8.0
84.334 17.0
84.4177 14.0
84.5014 12.0
84.5851 14.0
84.6688 14.0
84.7525 17.0
84.8362 15.0
84.9199 15.0
85.0036 14.0
85.0873 14.0
85.171 13.0
85.2548 18.0
85.3385 13.0
85.4222 9.0
85.5059 13.0
85.5896 17.0
85.6733 11.0
85.757 9.0
85.8407 13.0
85.9244 6.0
86.0081 11.0
86.0918 11.0
86.1755 14.0
86.2592 16.0
86.3429 10.0
86.4266 11.0
86.5103 13.0
86.594 10.0
86.6777 13.0
86.7615 6.0
86.8452 12.0
86.9289 9.0
87.0126 12.0
87.0963 9.0
87.18 7.0
87.2637 8.0
87.3474 10.0
87.4311 8.0
87.5148 11.0
87.5985 6.0
87.6822 15.0
87.7659 8.0
87.8496 13.0
87.9333 15.0
88.017 18.0
88.1007 7.0
88.1844 9.0
88.2682 13.0
88.3519 11.0
88.4356 11.0
88.5193 13.0
88.603 12.0
88.6867 12.0
88.7704 17.0
88.8541 14.0
88.9378 15.0
89.0215 5.0
89.1052 10.0
89.1889 9.0
89.2726 14.0
89.3563 10.0
89.44 8.0
89.5237 17.0
89.6074 11.0
89.6911 11.0
89.7749 10.0
89.8586 9.0
89.9423 8.0
90.026 5.0
90.1097 16.0
90.1934 12.0
90.2771 9.0
90.3608 15.0
90.4445 10.0
90.5282 7.0
90.6119 14.0
90.6956 10.0
90.7793 13.0
90.863 15.0
90.9467 16.0
91.0304 10.0
91.1141 5.0
91.1978 9.0
91.2816 18.0
91.3653 11.0
91.449 10.0
91.5327 13.0
91.6164 19.0
91.7001 12.0
91.7838 14.0
91.8675 18.0
91.9512 10.0
92.0349 8.0
92.1186 9.0
92.2023 7.0
92.286 9.0
92.3697 10.0
92.4534 6.0
92.5371 15.0
92.6208 8.0
92.7045 10.0
92.7883 11.0
92.872 8.0
92.9557 12.0
93.0394 8.0
93.1231 13.0
93.2068 10.0
93.2905 8.0
93.3742 13.0
93.4579 12.0
93.5416 14.0
93.6253 8.0
93.709 12.0
93.7927 14.0
93.8764 14.0
93.9601 18.0
94.0438 10.0
94.1275 9.0
94.2112 9.0
94.295 12.0
94.3787 12.0
94.4624 6.0
94.5461 17.0
94.6298 17.0
94.7135 12.0
94.7972 13.0
94.8809 13.0
94.9646 22.0
95.0483 6.0
95.132 7.0
95.2157 10.0
95.2994 10.0
95.3831 18.0
95.4668 13.0
95.5505 12.0
95.6342 6.0
95.7179 8.0
95.8017 11.0
95.8854 10.0
95.9691 7.0
96.0528 6.0
96.1365 7.0
96.2202 9.0
96.3039 9.0
96.3876 5.0
96.4713 10.0
96.555 13.0
96.6387 9.0
96.7224 10.0
96.8061 14.0
96.8898 11.0
96.9735 11.0
97.0572 10.0
97.1409 11.0
97.2246 13.0
97.3084 7.0
97.3921 15.0
97.4758 13.0
97.5595 15.0
97.6432 12.0
97.7269 12.0
97.8106 11.0
97.8943 8.0
97.978 13.0
98.0617 8.0
98.1454 7.0
98.2291 10.0
98.3128 13.0
98.3965 14.0
98.4802 12.0
98.5639 9.0
98.6476 9.0
98.7313 14.0
98.8151 8.0
98.8988 3.0
98.9825 9.0
99.0662 16.0
99.1499 7.0
99.2336 4.0
99.3173 16.0
99.401 10.0
99.4847 13.0
99.5684 7.0
99.6521 8.0
99.7358 8.0
99.8195 7.0
99.9032 10.0
99.9869 18.0
100.071 12.0
100.154 13.0
100.238 9.0
100.322 9.0
100.405 10.0
100.489 10.0
100.573 11.0
100.657 15.0
100.74 13.0
100.824 13.0
100.908 9.0
100.991 12.0
101.075 11.0
101.159 14.0
101.243 15.0
101.326 12.0
101.41 11.0
101.494 12.0
101.577 11.0
101.661 14.0
101.745 12.0
101.828 8.0
101.912 12.0
101.996 11.0
102.08 9.0
102.163 11.0
102.247 4.0
102.331 16.0
102.414 12.0
102.498 15.0
102.582 13.0
102.666 7.0
102.749 10.0
102.833 8.0
102.917 7.0
103 15.0
103.084 13.0
103.168 19.0
103.251 12.0
103.335 12.0
103.419 16.0
103.503 14.0
103.586 14.0
103.67 14.0
103.754 10.0
103.837 13.0
103.921 10.0
104.005 9.0
104.089 8.0
104.172 9.0
104.256 13.0
104.34 13.0
104.423 9.0
104.507 11.0
104.591 8.0
104.674 16.0
104.758 13.0
104.842 13.0
104.926 9.0
105.009 12.0
105.093 9.0
105.177 10.0
105.26 14.0
105.344 12.0
105.428 12.0
105.511 16.0
105.595 20.0
105.679 10.0
105.763 16.0
105.846 4.0
105.93 10.0
106.014 13.0
106.097 8.0
106.181 16.0
106.265 23.0
106.349 22.0
106.432 13.0
106.516 13.0
106.6 7.0
106.683 10.0
106.767 12.0
106.851 9.0
106.934 2.0
107.018 17.0
107.102 6.0
107.186 11.0
107.269 10.0
107.353 10.0
107.437 8.0
107.52 17.0
107.604 16.0
107.688 15.0
107.772 5.0
107.855 12.0
107.939 14.0
108.023 9.0
108.106 14.0
108.19 9.0
108.274 10.0
108.357 11.0
108.441 10.0
108.525 12.0
108.609 11.0
108.692 10.0
108.776 5.0
108.86 17.0
108.943 14.0
109.027 8.0
109.111 12.0
109.195 14.0
109.278 13.0
109.362 13.0
109.446 15.0
109.529 8.0
109.613 10.0
109.697 11.0
109.78 9.0
109.864 12.0
109.948 21.0
110.032 12.0
110.115 18.0
110.199 10.0
110.283 13.0
110.366 19.0
110.45 11.0
110.534 13.0
110.618 8.0
110.701 14.0
110.785 10.0
110.869 13.0
110.952 7.0
111.036 6.0
111.12 7.0
111.203 9.0
111.287 16.0
111.371 8.0
111.455 8.0
111.538 17.0
111.622 12.0
111.706 14.0
111.789 16.0
111.873 15.0
111.957 8.0
112.041 9.0
112.124 9.0
112.208 10.0
112.292 9.0
112.375 9.0
112.459 9.0
112.543 13.0
112.626 11.0
112.71 15.0
112.794 6.0
112.878 12.0
112.961 10.0
113.045 9.0
113.129 12.0
113.212 7.0
113.296 14.0
113.38 12.0
113.464 9.0
113.547 14.0
113.631 5.0
113.715 21.0
113.798 8.0
113.882 13.0
113.966 19.0
114.049 11.0
114.133 12.0
114.217 9.0
114.301 8.0
114.384 13.0
114.468 12.0
114.552 12.0
114.635 10.0
114.719 19.0
114.803 12.0
114.887 10.0
114.97 7.0
115.054 11.0
115.138 20.0
115.221 10.0
115.305 12.0
115.389 15.0
115.472 11.0
115.556 14.0
115.64 12.0
115.724 18.0
115.807 21.0
115.891 18.0
115.975 16.0
116.058 44.0
116.142 30.0
116.226 25.0
116.31 16.0
116.393 14.0
116.477 13.0
116.561 10.0
116.644 9.0
116.728 13.0
116.812 15.0
116.895 15.0
116.979 16.0
117.063 12.0
117.147 14.0
117.23 7.0
117.314 8.0
117.398 12.0
117.481 15.0
117.565 11.0
117.649 14.0
117.733 11.0
117.816 7.0
117.9 4.0
117.984 8.0
118.067 13.0
118.151 8.0
118.235 11.0
118.318 9.0
118.402 10.0
118.486 13.0
118.57 12.0
118.653 4.0
118.737 10.0
118.821 9.0
118.904 9.0
118.988 17.0
119.072 9.0
119.156 15.0
119.239 8.0
119.323 12.0
119.407 8.0
119.49 11.0
119.574 15.0
119.658 14.0
119.741 15.0
119.825 13.0
119.909 13.0
119.993 12.0
120.076 7.0
120.16 13.0
120.244 8.0
120.327 15.0
120.411 7.0
120.495 10.0
120.578 14.0
120.662 12.0
120.746 16.0
120.83 14.0
120.913 16.0
120.997 7.0
121.081 13.0
121.164 17.0
121.248 13.0
121.332 12.0
121.416 13.0
121.499 12.0
121.583 11.0
121.667 16.0
121.75 15.0
121.834 17.0
121.918 22.0
122.001 15.0
122.085 15.0
122.169 18.0
122.253 11.0
122.336 9.0
122.42 14.0
122.504 22.0
122.587 14.0
122.671 21.0
122.755 25.0
122.839 15.0
122.922 23.0
123.006 33.0
123.09 21.0
123.173 25.0
123.257 29.0
123.341 19.0
123.424 29.0
123.508 27.0
123.592 40.0
123.676 52.0
123.759 40.0
123.843 62.0
123.927 63.0
124.01 61.0
124.094 70.0
124.178 79.0
124.262 116.0
124.345 216.0
124.429 507.0
124.513 1963.0
124.596 8275.0
124.68 1868.0
124.764 557.0
124.847 314.0
124.931 284.0
125.015 615.0
125.099 3168.0
125.182 2554.0
125.266 602.0
125.35 217.0
125.433 111.0
125.517 82.0
125.601 68.0
125.685 53.0
125.768 57.0
125.852 53.0
125.936 39.0
126.019 38.0
126.103 40.0
126.187 27.0
126.27 32.0
126.354 36.0
126.438 31.0
126.522 28.0
126.605 26.0
126.689 21.0
126.773 30.0
126.856 24.0
126.94 14.0
127.024 31.0
127.108 25.0
127.191 25.0
127.275 24.0
127.359 35.0
127.442 21.0
127.526 16.0
127.61 18.0
127.693 20.0
127.777 25.0
127.861 21.0
127.945 27.0
128.028 20.0
128.112 20.0
128.196 37.0
128.279 23.0
128.363 18.0
128.447 12.0
128.531 15.0
128.614 16.0
128.698 14.0
128.782 9.0
128.865 19.0
128.949 23.0
129.033 24.0
129.116 22.0
129.2 16.0
129.284 19.0
129.368 15.0
129.451 20.0
129.535 26.0
129.619 17.0
129.702 19.0
129.786 9.0
129.87 23.0
129.954 18.0
129.998 11.0