File: data/W6858a/XRD_Omega/W6858a_Cr2O3_scan_omega_2deg_step_0.002deg0_11.xy
17.03000 348.0
17.03200 341.0
17.03400 357.0
17.03600 321.0
17.03800 327.0
17.04000 346.0
17.04200 357.0
17.04400 376.0
17.04600 357.0
17.04800 348.0
17.05000 333.0
17.05200 374.0
17.05400 359.0
17.05600 337.0
17.05800 354.0
17.06000 368.0
17.06200 393.0
17.06400 355.0
17.06600 334.0
17.06800 362.0
17.07000 359.0
17.07200 383.0
17.07400 365.0
17.07600 392.0
17.07800 387.0
17.08000 345.0
17.08200 394.0
17.08400 362.0
17.08600 363.0
17.08800 394.0
17.09000 366.0
17.09200 368.0
17.09400 401.0
17.09600 344.0
17.09800 389.0
17.10000 369.0
17.10200 371.0
17.10400 376.0
17.10600 404.0
17.10800 368.0
17.11000 362.0
17.11200 374.0
17.11400 386.0
17.11600 377.0
17.11800 392.0
17.12000 393.0
17.12200 424.0
17.12400 427.0
17.12600 350.0
17.12800 453.0
17.13000 400.0
17.13200 396.0
17.13400 410.0
17.13600 384.0
17.13800 450.0
17.14000 451.0
17.14200 413.0
17.14400 458.0
17.14600 402.0
17.14800 407.0
17.15000 428.0
17.15200 421.0
17.15400 453.0
17.15600 425.0
17.15800 431.0
17.16000 407.0
17.16200 434.0
17.16400 435.0
17.16600 379.0
17.16800 388.0
17.17000 461.0
17.17200 451.0
17.17400 427.0
17.17600 442.0
17.17800 441.0
17.18000 439.0
17.18200 429.0
17.18400 448.0
17.18600 491.0
17.18800 490.0
17.19000 414.0
17.19200 483.0
17.19400 469.0
17.19600 450.0
17.19800 434.0
17.20000 429.0
17.20200 436.0
17.20400 433.0
17.20600 488.0
17.20800 462.0
17.21000 458.0
17.21200 465.0
17.21400 466.0
17.21600 466.0
17.21800 457.0
17.22000 473.0
17.22200 450.0
17.22400 474.0
17.22600 476.0
17.22800 447.0
17.23000 460.0
17.23200 528.0
17.23400 492.0
17.23600 481.0
17.23800 484.0
17.24000 498.0
17.24200 499.0
17.24400 452.0
17.24600 516.0
17.24800 494.0
17.25000 491.0
17.25200 503.0
17.25400 485.0
17.25600 530.0
17.25800 494.0
17.26000 503.0
17.26200 545.0
17.26400 516.0
17.26600 539.0
17.26800 513.0
17.27000 571.0
17.27200 497.0
17.27400 503.0
17.27600 495.0
17.27800 530.0
17.28000 495.0
17.28200 522.0
17.28400 525.0
17.28600 535.0
17.28800 515.0
17.29000 546.0
17.29200 591.0
17.29400 580.0
17.29600 542.0
17.29800 556.0
17.30000 547.0
17.30200 556.0
17.30400 597.0
17.30600 529.0
17.30800 568.0
17.31000 557.0
17.31200 536.0
17.31400 543.0
17.31600 590.0
17.31800 573.0
17.32000 591.0
17.32200 611.0
17.32400 605.0
17.32600 594.0
17.32800 609.0
17.33000 591.0
17.33200 567.0
17.33400 598.0
17.33600 602.0
17.33800 640.0
17.34000 606.0
17.34200 597.0
17.34400 584.0
17.34600 631.0
17.34800 638.0
17.35000 586.0
17.35200 631.0
17.35400 642.0
17.35600 601.0
17.35800 640.0
17.36000 636.0
17.36200 604.0
17.36400 619.0
17.36600 580.0
17.36800 618.0
17.37000 646.0
17.37200 623.0
17.37400 652.0
17.37600 610.0
17.37800 638.0
17.38000 681.0
17.38200 657.0
17.38400 685.0
17.38600 622.0
17.38800 689.0
17.39000 660.0
17.39200 706.0
17.39400 661.0
17.39600 684.0
17.39800 677.0
17.40000 673.0
17.40200 662.0
17.40400 703.0
17.40600 705.0
17.40800 721.0
17.41000 721.0
17.41200 729.0
17.41400 747.0
17.41600 683.0
17.41800 797.0
17.42000 752.0
17.42200 743.0
17.42400 795.0
17.42600 755.0
17.42800 757.0
17.43000 758.0
17.43200 820.0
17.43400 808.0
17.43600 813.0
17.43800 805.0
17.44000 837.0
17.44200 789.0
17.44400 820.0
17.44600 827.0
17.44800 772.0
17.45000 841.0
17.45200 831.0
17.45400 832.0
17.45600 849.0
17.45800 826.0
17.46000 831.0
17.46200 893.0
17.46400 892.0
17.46600 787.0
17.46800 937.0
17.47000 833.0
17.47200 846.0
17.47400 843.0
17.47600 893.0
17.47800 887.0
17.48000 899.0
17.48200 861.0
17.48400 852.0
17.48600 907.0
17.48800 897.0
17.49000 916.0
17.49200 883.0
17.49400 882.0
17.49600 984.0
17.49800 879.0
17.50000 965.0
17.50200 956.0
17.50400 869.0
17.50600 930.0
17.50800 922.0
17.51000 969.0
17.51200 955.0
17.51400 946.0
17.51600 942.0
17.51800 1008.0
17.52000 995.0
17.52200 1027.0
17.52400 1064.0
17.52600 980.0
17.52800 989.0
17.53000 1019.0
17.53200 1059.0
17.53400 1105.0
17.53600 1061.0
17.53800 1089.0
17.54000 1029.0
17.54200 1021.0
17.54400 1072.0
17.54600 1092.0
17.54800 995.0
17.55000 1077.0
17.55200 1115.0
17.55400 1109.0
17.55600 1069.0
17.55800 1115.0
17.56000 1102.0
17.56200 1177.0
17.56400 1108.0
17.56600 1036.0
17.56800 1136.0
17.57000 1119.0
17.57200 1169.0
17.57400 1085.0
17.57600 1164.0
17.57800 1129.0
17.58000 1195.0
17.58200 1235.0
17.58400 1140.0
17.58600 1195.0
17.58800 1207.0
17.59000 1244.0
17.59200 1285.0
17.59400 1213.0
17.59600 1223.0
17.59800 1192.0
17.60000 1287.0
17.60200 1141.0
17.60400 1237.0
17.60600 1261.0
17.60800 1215.0
17.61000 1274.0
17.61200 1328.0
17.61400 1312.0
17.61600 1285.0
17.61800 1286.0
17.62000 1248.0
17.62200 1304.0
17.62400 1286.0
17.62600 1359.0
17.62800 1404.0
17.63000 1269.0
17.63200 1352.0
17.63400 1325.0
17.63600 1382.0
17.63800 1397.0
17.64000 1356.0
17.64200 1405.0
17.64400 1391.0
17.64600 1361.0
17.64800 1364.0
17.65000 1374.0
17.65200 1388.0
17.65400 1380.0
17.65600 1473.0
17.65800 1473.0
17.66000 1453.0
17.66200 1464.0
17.66400 1483.0
17.66600 1409.0
17.66800 1448.0
17.67000 1513.0
17.67200 1493.0
17.67400 1535.0
17.67600 1458.0
17.67800 1543.0
17.68000 1590.0
17.68200 1639.0
17.68400 1534.0
17.68600 1608.0
17.68800 1593.0
17.69000 1600.0
17.69200 1559.0
17.69400 1591.0
17.69600 1605.0
17.69800 1660.0
17.70000 1600.0
17.70200 1658.0
17.70400 1685.0
17.70600 1671.0
17.70800 1642.0
17.71000 1632.0
17.71200 1690.0
17.71400 1651.0
17.71600 1746.0
17.71800 1722.0
17.72000 1746.0
17.72200 1758.0
17.72400 1732.0
17.72600 1795.0
17.72800 1797.0
17.73000 1835.0
17.73200 1744.0
17.73400 1797.0
17.73600 1726.0
17.73800 1737.0
17.74000 1863.0
17.74200 1835.0
17.74400 1887.0
17.74600 1874.0
17.74800 1883.0
17.75000 1803.0
17.75200 1849.0
17.75400 1877.0
17.75600 1864.0
17.75800 1953.0
17.76000 1951.0
17.76200 1930.0
17.76400 1882.0
17.76600 1939.0
17.76800 2024.0
17.77000 1951.0
17.77200 1982.0
17.77400 1988.0
17.77600 2088.0
17.77800 2057.0
17.78000 2059.0
17.78200 2095.0
17.78400 2126.0
17.78600 2019.0
17.78800 2163.0
17.79000 2086.0
17.79200 2100.0
17.79400 2127.0
17.79600 2195.0
17.79800 2111.0
17.80000 2192.0
17.80200 2168.0
17.80400 2170.0
17.80600 2212.0
17.80800 2190.0
17.81000 2175.0
17.81200 2221.0
17.81400 2186.0
17.81600 2249.0
17.81800 2284.0
17.82000 2306.0
17.82200 2272.0
17.82400 2363.0
17.82600 2344.0
17.82800 2443.0
17.83000 2448.0
17.83200 2391.0
17.83400 2438.0
17.83600 2483.0
17.83800 2403.0
17.84000 2470.0
17.84200 2466.0
17.84400 2457.0
17.84600 2495.0
17.84800 2486.0
17.85000 2508.0
17.85200 2567.0
17.85400 2522.0
17.85600 2566.0
17.85800 2596.0
17.86000 2699.0
17.86200 2584.0
17.86400 2581.0
17.86600 2573.0
17.86800 2660.0
17.87000 2687.0
17.87200 2718.0
17.87400 2566.0
17.87600 2831.0
17.87800 2824.0
17.88000 2728.0
17.88200 2759.0
17.88400 2854.0
17.88600 2918.0
17.88800 2882.0
17.89000 2950.0
17.89200 2932.0
17.89400 3061.0
17.89600 3050.0
17.89800 3030.0
17.90000 3068.0
17.90200 3142.0
17.90400 3141.0
17.90600 3230.0
17.90800 3295.0
17.91000 3280.0
17.91200 3332.0
17.91400 3402.0
17.91600 3253.0
17.91800 3328.0
17.92000 3394.0
17.92200 3398.0
17.92400 3414.0
17.92600 3532.0
17.92800 3510.0
17.93000 3534.0
17.93200 3632.0
17.93400 3655.0
17.93600 3664.0
17.93800 3834.0
17.94000 3800.0
17.94200 3760.0
17.94400 3958.0
17.94600 3877.0
17.94800 3968.0
17.95000 4127.0
17.95200 4195.0
17.95400 4310.0
17.95600 4365.0
17.95800 4342.0
17.96000 4651.0
17.96200 4807.0
17.96400 4884.0
17.96600 4864.0
17.96800 4943.0
17.97000 5053.0
17.97200 5252.0
17.97400 5446.0
17.97600 5315.0
17.97800 5550.0
17.98000 5607.0
17.98200 5682.0
17.98400 5911.0
17.98600 5671.0
17.98800 5983.0
17.99000 5852.0
17.99200 6040.0
17.99400 6032.0
17.99600 5998.0
17.99800 6058.0
18.00000 6209.0
18.00200 6158.0
18.00400 6153.0
18.00600 6158.0
18.00800 6188.0
18.01000 6080.0
18.01200 6068.0
18.01400 5915.0
18.01600 5805.0
18.01800 5819.0
18.02000 5869.0
18.02200 5781.0
18.02400 5623.0
18.02600 5612.0
18.02800 5596.0
18.03000 5327.0
18.03200 5433.0
18.03400 5339.0
18.03600 5259.0
18.03800 5177.0
18.04000 5197.0
18.04200 5065.0
18.04400 5002.0
18.04600 4960.0
18.04800 4900.0
18.05000 4805.0
18.05200 4878.0
18.05400 4832.0
18.05600 4895.0
18.05800 4798.0
18.06000 4688.0
18.06200 4710.0
18.06400 4794.0
18.06600 4664.0
18.06800 4846.0
18.07000 5035.0
18.07200 5085.0
18.07400 4895.0
18.07600 5127.0
18.07800 5086.0
18.08000 5216.0
18.08200 5161.0
18.08400 5160.0
18.08600 5193.0
18.08800 5027.0
18.09000 4854.0
18.09200 4845.0
18.09400 4642.0
18.09600 4621.0
18.09800 4494.0
18.10000 4404.0
18.10200 4259.0
18.10400 4121.0
18.10600 3975.0
18.10800 3966.0
18.11000 3836.0
18.11200 3796.0
18.11400 3598.0
18.11600 3613.0
18.11800 3631.0
18.12000 3517.0
18.12200 3490.0
18.12400 3425.0
18.12600 3523.0
18.12800 3576.0
18.13000 3413.0
18.13200 3548.0
18.13400 3483.0
18.13600 3506.0
18.13800 3479.0
18.14000 3340.0
18.14200 3332.0
18.14400 3429.0
18.14600 3380.0
18.14800 3394.0
18.15000 3350.0
18.15200 3244.0
18.15400 3281.0
18.15600 3273.0
18.15800 3324.0
18.16000 3153.0
18.16200 3274.0
18.16400 3336.0
18.16600 3117.0
18.16800 3100.0
18.17000 3236.0
18.17200 2958.0
18.17400 3008.0
18.17600 2938.0
18.17800 3019.0
18.18000 2946.0
18.18200 2857.0
18.18400 2737.0
18.18600 2725.0
18.18800 2795.0
18.19000 2761.0
18.19200 2705.0
18.19400 2752.0
18.19600 2800.0
18.19800 2798.0
18.20000 2777.0
18.20200 2758.0
18.20400 2798.0
18.20600 2800.0
18.20800 2818.0
18.21000 2921.0
18.21200 2791.0
18.21400 2958.0
18.21600 2892.0
18.21800 2843.0
18.22000 2830.0
18.22200 2824.0
18.22400 2834.0
18.22600 2872.0
18.22800 2832.0
18.23000 2826.0
18.23200 2674.0
18.23400 2607.0
18.23600 2617.0
18.23800 2507.0
18.24000 2473.0
18.24200 2564.0
18.24400 2363.0
18.24600 2325.0
18.24800 2381.0
18.25000 2252.0
18.25200 2360.0
18.25400 2232.0
18.25600 2166.0
18.25800 2230.0
18.26000 2164.0
18.26200 2156.0
18.26400 2099.0
18.26600 2137.0
18.26800 2110.0
18.27000 2133.0
18.27200 2035.0
18.27400 2123.0
18.27600 2107.0
18.27800 2131.0
18.28000 2066.0
18.28200 2029.0
18.28400 2052.0
18.28600 2015.0
18.28800 1974.0
18.29000 2036.0
18.29200 1953.0
18.29400 2032.0
18.29600 1932.0
18.29800 1921.0
18.30000 1956.0
18.30200 1970.0
18.30400 1872.0
18.30600 1888.0
18.30800 1884.0
18.31000 1888.0
18.31200 1831.0
18.31400 1807.0
18.31600 1907.0
18.31800 1757.0
18.32000 1738.0
18.32200 1780.0
18.32400 1850.0
18.32600 1760.0
18.32800 1856.0
18.33000 1759.0
18.33200 1781.0
18.33400 1716.0
18.33600 1666.0
18.33800 1749.0
18.34000 1649.0
18.34200 1718.0
18.34400 1689.0
18.34600 1687.0
18.34800 1701.0
18.35000 1759.0
18.35200 1709.0
18.35400 1666.0
18.35600 1589.0
18.35800 1617.0
18.36000 1613.0
18.36200 1625.0
18.36400 1669.0
18.36600 1615.0
18.36800 1577.0
18.37000 1561.0
18.37200 1636.0
18.37400 1574.0
18.37600 1548.0
18.37800 1590.0
18.38000 1547.0
18.38200 1521.0
18.38400 1507.0
18.38600 1518.0
18.38800 1514.0
18.39000 1481.0
18.39200 1508.0
18.39400 1457.0
18.39600 1460.0
18.39800 1512.0
18.40000 1477.0
18.40200 1417.0
18.40400 1444.0
18.40600 1444.0
18.40800 1429.0
18.41000 1463.0
18.41200 1404.0
18.41400 1471.0
18.41600 1362.0
18.41800 1357.0
18.42000 1412.0
18.42200 1419.0
18.42400 1466.0
18.42600 1415.0
18.42800 1402.0
18.43000 1357.0
18.43200 1356.0
18.43400 1323.0
18.43600 1331.0
18.43800 1281.0
18.44000 1329.0
18.44200 1390.0
18.44400 1278.0
18.44600 1295.0
18.44800 1343.0
18.45000 1333.0
18.45200 1303.0
18.45400 1264.0
18.45600 1321.0
18.45800 1293.0
18.46000 1265.0
18.46200 1271.0
18.46400 1351.0
18.46600 1272.0
18.46800 1235.0
18.47000 1263.0
18.47200 1242.0
18.47400 1235.0
18.47600 1227.0
18.47800 1303.0
18.48000 1271.0
18.48200 1203.0
18.48400 1255.0
18.48600 1220.0
18.48800 1246.0
18.49000 1188.0
18.49200 1189.0
18.49400 1191.0
18.49600 1182.0
18.49800 1254.0
18.50000 1233.0
18.50200 1211.0
18.50400 1151.0
18.50600 1224.0
18.50800 1198.0
18.51000 1193.0
18.51200 1231.0
18.51400 1172.0
18.51600 1192.0
18.51800 1139.0
18.52000 1202.0
18.52200 1158.0
18.52400 1129.0
18.52600 1123.0
18.52800 1103.0
18.53000 1196.0
18.53200 1144.0
18.53400 1098.0
18.53600 1134.0
18.53800 1096.0
18.54000 1126.0
18.54200 1159.0
18.54400 1121.0
18.54600 1138.0
18.54800 1155.0
18.55000 1111.0
18.55200 1105.0
18.55400 1085.0
18.55600 1113.0
18.55800 1124.0
18.56000 1081.0
18.56200 1147.0
18.56400 1116.0
18.56600 1156.0
18.56800 1079.0
18.57000 1110.0
18.57200 1032.0
18.57400 1088.0
18.57600 1061.0
18.57800 1077.0
18.58000 1132.0
18.58200 1105.0
18.58400 1090.0
18.58600 1102.0
18.58800 1066.0
18.59000 1082.0
18.59200 1129.0
18.59400 1098.0
18.59600 1141.0
18.59800 1137.0
18.60000 1136.0
18.60200 1100.0
18.60400 1080.0
18.60600 1087.0
18.60800 1129.0
18.61000 1108.0
18.61200 996.0
18.61400 1104.0
18.61600 1079.0
18.61800 1044.0
18.62000 1104.0
18.62200 1103.0
18.62400 1072.0
18.62600 1039.0
18.62800 1091.0
18.63000 1105.0
18.63200 1043.0
18.63400 1093.0
18.63600 1103.0
18.63800 1106.0
18.64000 1087.0
18.64200 1148.0
18.64400 1074.0
18.64600 1089.0
18.64800 1049.0
18.65000 1092.0
18.65200 1059.0
18.65400 1158.0
18.65600 1061.0
18.65800 1080.0
18.66000 1062.0
18.66200 1089.0
18.66400 1061.0
18.66600 1052.0
18.66800 1020.0
18.67000 963.0
18.67200 902.0
18.67400 897.0
18.67600 877.0
18.67800 821.0
18.68000 842.0
18.68200 826.0
18.68400 778.0
18.68600 749.0
18.68800 794.0
18.69000 666.0
18.69200 652.0
18.69400 680.0
18.69600 623.0
18.69800 660.0
18.70000 584.0
18.70200 572.0
18.70400 595.0
18.70600 621.0
18.70800 605.0
18.71000 619.0
18.71200 563.0
18.71400 610.0
18.71600 572.0
18.71800 548.0
18.72000 586.0
18.72200 604.0
18.72400 568.0
18.72600 584.0
18.72800 560.0
18.73000 584.0
18.73200 547.0
18.73400 508.0
18.73600 559.0
18.73800 560.0
18.74000 531.0
18.74200 535.0
18.74400 528.0
18.74600 531.0
18.74800 559.0
18.75000 524.0
18.75200 530.0
18.75400 511.0
18.75600 514.0
18.75800 534.0
18.76000 497.0
18.76200 502.0
18.76400 531.0
18.76600 510.0
18.76800 528.0
18.77000 485.0
18.77200 529.0
18.77400 470.0
18.77600 502.0
18.77800 444.0
18.78000 495.0
18.78200 490.0
18.78400 460.0
18.78600 490.0
18.78800 530.0
18.79000 474.0
18.79200 486.0
18.79400 511.0
18.79600 511.0
18.79800 460.0
18.80000 521.0
18.80200 456.0
18.80400 468.0
18.80600 493.0
18.80800 470.0
18.81000 430.0
18.81200 475.0
18.81400 456.0
18.81600 459.0
18.81800 435.0
18.82000 482.0
18.82200 443.0
18.82400 479.0
18.82600 452.0
18.82800 456.0
18.83000 458.0
18.83200 453.0
18.83400 427.0
18.83600 469.0
18.83800 433.0
18.84000 465.0
18.84200 439.0
18.84400 415.0
18.84600 415.0
18.84800 440.0
18.85000 431.0
18.85200 417.0
18.85400 416.0
18.85600 369.0
18.85800 451.0
18.86000 422.0
18.86200 397.0
18.86400 427.0
18.86600 409.0
18.86800 440.0
18.87000 440.0
18.87200 415.0
18.87400 379.0
18.87600 379.0
18.87800 442.0
18.88000 405.0
18.88200 437.0
18.88400 425.0
18.88600 393.0
18.88800 398.0
18.89000 395.0
18.89200 373.0
18.89400 397.0
18.89600 396.0
18.89800 407.0
18.90000 428.0
18.90200 426.0
18.90400 392.0
18.90600 444.0
18.90800 424.0
18.91000 413.0
18.91200 401.0
18.91400 396.0
18.91600 366.0
18.91800 375.0
18.92000 383.0
18.92200 380.0
18.92400 390.0
18.92600 388.0
18.92800 383.0
18.93000 378.0
18.93200 370.0
18.93400 365.0
18.93600 381.0
18.93800 401.0
18.94000 402.0
18.94200 377.0
18.94400 376.0
18.94600 367.0
18.94800 384.0
18.95000 335.0
18.95200 358.0
18.95400 378.0
18.95600 383.0
18.95800 362.0
18.96000 369.0
18.96200 357.0
18.96400 374.0
18.96600 361.0
18.96800 361.0
18.97000 359.0
18.97200 343.0
18.97400 354.0
18.97600 338.0
18.97800 342.0
18.98000 352.0
18.98200 339.0
18.98400 335.0
18.98600 352.0
18.98800 343.0
18.99000 315.0
18.99200 305.0
18.99400 306.0
18.99600 327.0
18.99800 294.0
19.00000 348.0
19.00200 372.0
19.00400 327.0
19.00600 353.0
19.00800 341.0
19.01000 325.0
19.01200 331.0
19.01400 314.0