File: data/W6907c/XRD_Omega/scan_omega_4deg_step_0.005deg0_C8_3.xy
17.43870 58.0
17.44370 62.0
17.44870 80.0
17.45370 76.0
17.45870 72.0
17.46370 73.0
17.46870 66.0
17.47370 66.0
17.47870 56.0
17.48370 59.0
17.48870 67.0
17.49370 57.0
17.49870 74.0
17.50370 54.0
17.50870 76.0
17.51370 68.0
17.51870 67.0
17.52370 74.0
17.52870 48.0
17.53370 82.0
17.53870 69.0
17.54370 79.0
17.54870 75.0
17.55370 58.0
17.55870 74.0
17.56370 60.0
17.56870 62.0
17.57370 79.0
17.57870 85.0
17.58370 62.0
17.58870 65.0
17.59370 58.0
17.59870 57.0
17.60370 85.0
17.60870 70.0
17.61370 75.0
17.61870 61.0
17.62370 72.0
17.62870 66.0
17.63370 63.0
17.63870 64.0
17.64370 65.0
17.64870 64.0
17.65370 70.0
17.65870 65.0
17.66370 71.0
17.66870 68.0
17.67370 73.0
17.67870 82.0
17.68370 64.0
17.68870 59.0
17.69370 59.0
17.69870 65.0
17.70370 64.0
17.70870 67.0
17.71370 64.0
17.71870 62.0
17.72370 78.0
17.72870 64.0
17.73370 77.0
17.73870 51.0
17.74370 60.0
17.74870 51.0
17.75370 75.0
17.75870 59.0
17.76370 59.0
17.76870 67.0
17.77370 68.0
17.77870 77.0
17.78370 62.0
17.78870 64.0
17.79370 63.0
17.79870 63.0
17.80370 81.0
17.80870 69.0
17.81370 60.0
17.81870 54.0
17.82370 79.0
17.82870 71.0
17.83370 78.0
17.83870 57.0
17.84370 71.0
17.84870 55.0
17.85370 59.0
17.85870 55.0
17.86370 80.0
17.86870 72.0
17.87370 80.0
17.87870 79.0
17.88370 82.0
17.88870 64.0
17.89370 61.0
17.89870 56.0
17.90370 65.0
17.90870 71.0
17.91370 43.0
17.91870 63.0
17.92370 71.0
17.92870 62.0
17.93370 52.0
17.93870 63.0
17.94370 57.0
17.94870 66.0
17.95370 62.0
17.95870 60.0
17.96370 70.0
17.96870 83.0
17.97370 70.0
17.97870 65.0
17.98370 65.0
17.98870 64.0
17.99370 81.0
17.99870 63.0
18.00370 67.0
18.00870 72.0
18.01370 59.0
18.01870 72.0
18.02370 60.0
18.02870 55.0
18.03370 62.0
18.03870 61.0
18.04370 64.0
18.04870 58.0
18.05370 74.0
18.05870 65.0
18.06370 63.0
18.06870 66.0
18.07370 62.0
18.07870 71.0
18.08370 79.0
18.08870 52.0
18.09370 66.0
18.09870 82.0
18.10370 74.0
18.10870 88.0
18.11370 68.0
18.11870 59.0
18.12370 75.0
18.12870 61.0
18.13370 73.0
18.13870 67.0
18.14370 64.0
18.14870 69.0
18.15370 81.0
18.15870 77.0
18.16370 68.0
18.16870 62.0
18.17370 72.0
18.17870 59.0
18.18370 69.0
18.18870 65.0
18.19370 58.0
18.19870 58.0
18.20370 66.0
18.20870 65.0
18.21370 78.0
18.21870 87.0
18.22370 65.0
18.22870 64.0
18.23370 59.0
18.23870 66.0
18.24370 67.0
18.24870 66.0
18.25370 70.0
18.25870 59.0
18.26370 66.0
18.26870 85.0
18.27370 72.0
18.27870 65.0
18.28370 75.0
18.28870 72.0
18.29370 68.0
18.29870 73.0
18.30370 62.0
18.30870 60.0
18.31370 71.0
18.31870 74.0
18.32370 91.0
18.32870 58.0
18.33370 81.0
18.33870 80.0
18.34370 56.0
18.34870 66.0
18.35370 57.0
18.35870 60.0
18.36370 69.0
18.36870 71.0
18.37370 89.0
18.37870 85.0
18.38370 57.0
18.38870 79.0
18.39370 67.0
18.39870 71.0
18.40370 59.0
18.40870 59.0
18.41370 67.0
18.41870 50.0
18.42370 65.0
18.42870 72.0
18.43370 76.0
18.43870 70.0
18.44370 77.0
18.44870 75.0
18.45370 80.0
18.45870 70.0
18.46370 89.0
18.46870 75.0
18.47370 58.0
18.47870 58.0
18.48370 67.0
18.48870 65.0
18.49370 64.0
18.49870 76.0
18.50370 81.0
18.50870 78.0
18.51370 66.0
18.51870 59.0
18.52370 65.0
18.52870 68.0
18.53370 67.0
18.53870 77.0
18.54370 82.0
18.54870 67.0
18.55370 65.0
18.55870 69.0
18.56370 85.0
18.56870 70.0
18.57370 79.0
18.57870 55.0
18.58370 85.0
18.58870 73.0
18.59370 92.0
18.59870 67.0
18.60370 70.0
18.60870 85.0
18.61370 70.0
18.61870 73.0
18.62370 74.0
18.62870 86.0
18.63370 83.0
18.63870 78.0
18.64370 87.0
18.64870 70.0
18.65370 73.0
18.65870 72.0
18.66370 81.0
18.66870 89.0
18.67370 77.0
18.67870 79.0
18.68370 71.0
18.68870 76.0
18.69370 71.0
18.69870 62.0
18.70370 68.0
18.70870 80.0
18.71370 73.0
18.71870 60.0
18.72370 68.0
18.72870 75.0
18.73370 66.0
18.73870 84.0
18.74370 82.0
18.74870 79.0
18.75370 74.0
18.75870 65.0
18.76370 82.0
18.76870 87.0
18.77370 72.0
18.77870 75.0
18.78370 71.0
18.78870 96.0
18.79370 85.0
18.79870 66.0
18.80370 89.0
18.80870 73.0
18.81370 75.0
18.81870 80.0
18.82370 85.0
18.82870 89.0
18.83370 89.0
18.83870 77.0
18.84370 77.0
18.84870 78.0
18.85370 98.0
18.85870 68.0
18.86370 91.0
18.86870 69.0
18.87370 89.0
18.87870 78.0
18.88370 80.0
18.88870 95.0
18.89370 81.0
18.89870 83.0
18.90370 95.0
18.90870 78.0
18.91370 71.0
18.91870 92.0
18.92370 92.0
18.92870 88.0
18.93370 86.0
18.93870 85.0
18.94370 94.0
18.94870 101.0
18.95370 77.0
18.95870 88.0
18.96370 81.0
18.96870 95.0
18.97370 91.0
18.97870 81.0
18.98370 89.0
18.98870 94.0
18.99370 84.0
18.99870 102.0
19.00370 123.0
19.00870 112.0
19.01370 90.0
19.01870 87.0
19.02370 116.0
19.02870 105.0
19.03370 118.0
19.03870 123.0
19.04370 128.0
19.04870 112.0
19.05370 106.0
19.05870 94.0
19.06370 117.0
19.06870 137.0
19.07370 125.0
19.07870 131.0
19.08370 134.0
19.08870 127.0
19.09370 128.0
19.09870 131.0
19.10370 134.0
19.10870 125.0
19.11370 134.0
19.11870 127.0
19.12370 141.0
19.12870 150.0
19.13370 140.0
19.13870 142.0
19.14370 144.0
19.14870 149.0
19.15370 167.0
19.15870 161.0
19.16370 163.0
19.16870 151.0
19.17370 208.0
19.17870 171.0
19.18370 204.0
19.18870 210.0
19.19370 218.0
19.19870 214.0
19.20370 205.0
19.20870 226.0
19.21370 244.0
19.21870 250.0
19.22370 258.0
19.22870 260.0
19.23370 285.0
19.23870 266.0
19.24370 304.0
19.24870 318.0
19.25370 316.0
19.25870 328.0
19.26370 350.0
19.26870 390.0
19.27370 444.0
19.27870 514.0
19.28370 586.0
19.28870 719.0
19.29370 890.0
19.29870 956.0
19.30370 1006.0
19.30870 1126.0
19.31370 1101.0
19.31870 1197.0
19.32370 1345.0
19.32870 1472.0
19.33370 1565.0
19.33870 1680.0
19.34370 1933.0
19.34870 2157.0
19.35370 2269.0
19.35870 2471.0
19.36370 2692.0
19.36870 2997.0
19.37370 3387.0
19.37870 3509.0
19.38370 3846.0
19.38870 4005.0
19.39370 4203.0
19.39870 4393.0
19.40370 4623.0
19.40870 4638.0
19.41370 4682.0
19.41870 4978.0
19.42370 4841.0
19.42870 4632.0
19.43370 4619.0
19.43870 4580.0
19.44370 4398.0
19.44870 4228.0
19.45370 3975.0
19.45870 3855.0
19.46370 3664.0
19.46870 3447.0
19.47370 3263.0
19.47870 2889.0
19.48370 2785.0
19.48870 2578.0
19.49370 2487.0
19.49870 2156.0
19.50370 1999.0
19.50870 1847.0
19.51370 1657.0
19.51870 1546.0
19.52370 1476.0
19.52870 1316.0
19.53370 1212.0
19.53870 1110.0
19.54370 1031.0
19.54870 888.0
19.55370 732.0
19.55870 661.0
19.56370 564.0
19.56870 521.0
19.57370 477.0
19.57870 418.0
19.58370 380.0
19.58870 403.0
19.59370 330.0
19.59870 351.0
19.60370 339.0
19.60870 287.0
19.61370 301.0
19.61870 259.0
19.62370 254.0
19.62870 226.0
19.63370 220.0
19.63870 213.0
19.64370 209.0
19.64870 217.0
19.65370 206.0
19.65870 180.0
19.66370 209.0
19.66870 201.0
19.67370 181.0
19.67870 174.0
19.68370 161.0
19.68870 175.0
19.69370 172.0
19.69870 143.0
19.70370 163.0
19.70870 155.0
19.71370 137.0
19.71870 137.0
19.72370 139.0
19.72870 156.0
19.73370 126.0
19.73870 137.0
19.74370 120.0
19.74870 121.0
19.75370 118.0
19.75870 109.0
19.76370 97.0
19.76870 93.0
19.77370 108.0
19.77870 108.0
19.78370 117.0
19.78870 102.0
19.79370 115.0
19.79870 101.0
19.80370 104.0
19.80870 83.0
19.81370 90.0
19.81870 98.0
19.82370 97.0
19.82870 98.0
19.83370 75.0
19.83870 109.0
19.84370 117.0
19.84870 98.0
19.85370 94.0
19.85870 106.0
19.86370 94.0
19.86870 85.0
19.87370 80.0
19.87870 115.0
19.88370 88.0
19.88870 86.0
19.89370 92.0
19.89870 95.0
19.90370 78.0
19.90870 78.0
19.91370 105.0
19.91870 81.0
19.92370 81.0
19.92870 76.0
19.93370 69.0
19.93870 87.0
19.94370 79.0
19.94870 83.0
19.95370 87.0
19.95870 80.0
19.96370 72.0
19.96870 102.0
19.97370 78.0
19.97870 67.0
19.98370 77.0
19.98870 65.0
19.99370 83.0
19.99870 62.0
20.00370 69.0
20.00870 87.0
20.01370 86.0
20.01870 85.0
20.02370 72.0
20.02870 88.0
20.03370 67.0
20.03870 64.0
20.04370 60.0
20.04870 74.0
20.05370 81.0
20.05870 64.0
20.06370 65.0
20.06870 73.0
20.07370 86.0
20.07870 69.0
20.08370 76.0
20.08870 73.0
20.09370 81.0
20.09870 71.0
20.10370 61.0
20.10870 67.0
20.11370 75.0
20.11870 84.0
20.12370 65.0
20.12870 57.0
20.13370 77.0
20.13870 63.0
20.14370 60.0
20.14870 82.0
20.15370 69.0
20.15870 74.0
20.16370 60.0
20.16870 60.0
20.17370 62.0
20.17870 68.0
20.18370 56.0
20.18870 65.0
20.19370 63.0
20.19870 76.0
20.20370 63.0
20.20870 66.0
20.21370 68.0
20.21870 67.0
20.22370 73.0
20.22870 67.0
20.23370 68.0
20.23870 70.0
20.24370 66.0
20.24870 58.0
20.25370 61.0
20.25870 65.0
20.26370 67.0
20.26870 60.0
20.27370 70.0
20.27870 65.0
20.28370 61.0
20.28870 67.0
20.29370 57.0
20.29870 63.0
20.30370 55.0
20.30870 54.0
20.31370 65.0
20.31870 58.0
20.32370 66.0
20.32870 55.0
20.33370 59.0
20.33870 66.0
20.34370 56.0
20.34870 65.0
20.35370 69.0
20.35870 56.0
20.36370 58.0
20.36870 68.0
20.37370 67.0
20.37870 58.0
20.38370 67.0
20.38870 61.0
20.39370 68.0
20.39870 53.0
20.40370 74.0
20.40870 71.0
20.41370 75.0
20.41870 70.0
20.42370 60.0
20.42870 72.0
20.43370 79.0
20.43870 87.0
20.44370 62.0
20.44870 69.0
20.45370 77.0
20.45870 73.0
20.46370 68.0
20.46870 70.0
20.47370 55.0
20.47870 67.0
20.48370 69.0
20.48870 51.0
20.49370 68.0
20.49870 49.0
20.50370 63.0
20.50870 78.0
20.51370 70.0
20.51870 62.0
20.52370 69.0
20.52870 84.0
20.53370 71.0
20.53870 71.0
20.54370 70.0
20.54870 62.0
20.55370 62.0
20.55870 57.0
20.56370 51.0
20.56870 67.0
20.57370 65.0
20.57870 48.0
20.58370 68.0
20.58870 64.0
20.59370 66.0
20.59870 69.0
20.60370 76.0
20.60870 64.0
20.61370 65.0
20.61870 62.0
20.62370 44.0
20.62870 60.0
20.63370 64.0
20.63870 52.0
20.64370 73.0
20.64870 57.0
20.65370 48.0
20.65870 58.0
20.66370 67.0
20.66870 64.0
20.67370 56.0
20.67870 70.0
20.68370 61.0
20.68870 54.0
20.69370 65.0
20.69870 62.0
20.70370 46.0
20.70870 64.0
20.71370 43.0
20.71870 51.0
20.72370 57.0
20.72870 53.0
20.73370 65.0
20.73870 60.0
20.74370 55.0
20.74870 66.0
20.75370 52.0
20.75870 61.0
20.76370 64.0
20.76870 82.0
20.77370 57.0
20.77870 52.0
20.78370 63.0
20.78870 57.0
20.79370 57.0
20.79870 59.0
20.80370 60.0
20.80870 61.0
20.81370 64.0
20.81870 73.0
20.82370 57.0
20.82870 58.0
20.83370 53.0
20.83870 59.0
20.84370 58.0
20.84870 64.0
20.85370 48.0
20.85870 45.0
20.86370 63.0
20.86870 64.0
20.87370 66.0
20.87870 55.0
20.88370 49.0
20.88870 69.0
20.89370 49.0
20.89870 61.0
20.90370 52.0
20.90870 58.0
20.91370 59.0
20.91870 71.0
20.92370 60.0
20.92870 51.0
20.93370 63.0
20.93870 69.0
20.94370 69.0
20.94870 64.0
20.95370 64.0
20.95870 64.0
20.96370 77.0
20.96870 44.0
20.97370 49.0
20.97870 46.0
20.98370 49.0
20.98870 68.0
20.99370 66.0
20.99870 57.0
21.00370 57.0
21.00870 58.0
21.01370 65.0
21.01870 65.0
21.02370 47.0
21.02870 55.0
21.03370 65.0
21.03870 59.0
21.04370 57.0
21.04870 51.0
21.05370 53.0
21.05870 62.0
21.06370 60.0
21.06870 52.0
21.07370 59.0
21.07870 57.0
21.08370 61.0
21.08870 55.0
21.09370 48.0
21.09870 66.0
21.10370 63.0
21.10870 56.0
21.11370 54.0
21.11870 57.0
21.12370 55.0
21.12870 62.0
21.13370 64.0
21.13870 67.0
21.14370 55.0
21.14870 68.0
21.15370 59.0
21.15870 60.0
21.16370 60.0
21.16870 68.0
21.17370 64.0
21.17870 54.0
21.18370 45.0
21.18870 48.0
21.19370 59.0
21.19870 55.0
21.20370 51.0
21.20870 63.0
21.21370 49.0
21.21870 63.0
21.22370 60.0
21.22870 63.0
21.23370 68.0
21.23870 59.0
21.24370 66.0
21.24870 58.0
21.25370 60.0
21.25870 62.0
21.26370 58.0
21.26870 52.0
21.27370 56.0
21.27870 59.0
21.28370 58.0
21.28870 54.0
21.29370 57.0
21.29870 55.0
21.30370 64.0
21.30870 60.0
21.31370 65.0
21.31870 56.0
21.32370 60.0
21.32870 55.0
21.33370 51.0
21.33870 69.0
21.34370 69.0
21.34870 53.0
21.35370 55.0
21.35870 61.0
21.36370 54.0
21.36870 55.0
21.37370 58.0
21.37870 51.0
21.38370 57.0
21.38870 58.0
21.39370 50.0
21.39870 52.0