File: data/W6905a/XRD_2ThetaOmega/scan_2th-om_a_Cr2O3_30-40deg_PIXscan_4min_6.xy
30.0025 125.0
30.0123 133.0
30.0222 136.0
30.032 112.0
30.0419 111.0
30.0517 133.0
30.0615 127.0
30.0714 121.0
30.0812 110.0
30.0911 121.0
30.1009 120.0
30.1108 150.0
30.1206 125.0
30.1305 128.0
30.1403 136.0
30.1502 114.0
30.16 133.0
30.1699 108.0
30.1797 111.0
30.1896 115.0
30.1994 111.0
30.2093 123.0
30.2191 133.0
30.229 110.0
30.2388 130.0
30.2487 130.0
30.2585 109.0
30.2684 125.0
30.2782 133.0
30.288 136.0
30.2979 146.0
30.3077 120.0
30.3176 138.0
30.3274 136.0
30.3373 115.0
30.3471 115.0
30.357 130.0
30.3668 126.0
30.3767 121.0
30.3865 124.0
30.3964 129.0
30.4062 100.0
30.4161 133.0
30.4259 121.0
30.4358 122.0
30.4456 130.0
30.4555 121.0
30.4653 118.0
30.4752 132.0
30.485 102.0
30.4948 138.0
30.5047 120.0
30.5145 110.0
30.5244 117.0
30.5342 138.0
30.5441 124.0
30.5539 126.0
30.5638 121.0
30.5736 140.0
30.5835 118.0
30.5933 125.0
30.6032 114.0
30.613 124.0
30.6229 117.0
30.6327 117.0
30.6426 119.0
30.6524 111.0
30.6623 117.0
30.6721 137.0
30.682 111.0
30.6918 119.0
30.7016 121.0
30.7115 127.0
30.7213 110.0
30.7312 113.0
30.741 123.0
30.7509 127.0
30.7607 128.0
30.7706 124.0
30.7804 128.0
30.7903 134.0
30.8001 100.0
30.81 120.0
30.8198 119.0
30.8297 117.0
30.8395 127.0
30.8494 120.0
30.8592 122.0
30.8691 115.0
30.8789 135.0
30.8888 114.0
30.8986 108.0
30.9085 129.0
30.9183 105.0
30.9281 113.0
30.938 138.0
30.9478 108.0
30.9577 110.0
30.9675 135.0
30.9774 122.0
30.9872 109.0
30.9971 123.0
31.0069 89.0
31.0168 118.0
31.0266 115.0
31.0365 136.0
31.0463 134.0
31.0562 131.0
31.066 120.0
31.0759 122.0
31.0857 103.0
31.0956 129.0
31.1054 108.0
31.1153 136.0
31.1251 117.0
31.1349 124.0
31.1448 99.0
31.1546 117.0
31.1645 106.0
31.1743 123.0
31.1842 112.0
31.194 117.0
31.2039 117.0
31.2137 119.0
31.2236 128.0
31.2334 128.0
31.2433 128.0
31.2531 117.0
31.263 121.0
31.2728 121.0
31.2827 119.0
31.2925 145.0
31.3024 113.0
31.3122 107.0
31.3221 120.0
31.3319 132.0
31.3418 117.0
31.3516 99.0
31.3614 108.0
31.3713 115.0
31.3811 114.0
31.391 124.0
31.4008 102.0
31.4107 127.0
31.4205 126.0
31.4304 121.0
31.4402 138.0
31.4501 143.0
31.4599 115.0
31.4698 108.0
31.4796 114.0
31.4895 123.0
31.4993 110.0
31.5092 106.0
31.519 107.0
31.5289 113.0
31.5387 125.0
31.5486 104.0
31.5584 124.0
31.5682 103.0
31.5781 114.0
31.5879 120.0
31.5978 113.0
31.6076 120.0
31.6175 121.0
31.6273 124.0
31.6372 122.0
31.647 124.0
31.6569 130.0
31.6667 130.0
31.6766 108.0
31.6864 117.0
31.6963 110.0
31.7061 124.0
31.716 105.0
31.7258 115.0
31.7357 123.0
31.7455 126.0
31.7554 98.0
31.7652 110.0
31.7751 114.0
31.7849 122.0
31.7947 121.0
31.8046 129.0
31.8144 110.0
31.8243 135.0
31.8341 121.0
31.844 122.0
31.8538 125.0
31.8637 121.0
31.8735 124.0
31.8834 131.0
31.8932 150.0
31.9031 123.0
31.9129 156.0
31.9228 161.0
31.9326 163.0
31.9425 142.0
31.9523 149.0
31.9622 145.0
31.972 129.0
31.9819 146.0
31.9917 141.0
32.0015 148.0
32.0114 143.0
32.0212 149.0
32.0311 173.0
32.0409 145.0
32.0508 140.0
32.0606 143.0
32.0705 134.0
32.0803 127.0
32.0902 135.0
32.1 116.0
32.1099 134.0
32.1197 123.0
32.1296 146.0
32.1394 141.0
32.1493 136.0
32.1591 129.0
32.169 121.0
32.1788 116.0
32.1887 123.0
32.1985 118.0
32.2083 124.0
32.2182 143.0
32.228 131.0
32.2379 154.0
32.2477 125.0
32.2576 111.0
32.2674 107.0
32.2773 109.0
32.2871 114.0
32.297 126.0
32.3068 110.0
32.3167 104.0
32.3265 112.0
32.3364 138.0
32.3462 134.0
32.3561 121.0
32.3659 160.0
32.3758 106.0
32.3856 111.0
32.3955 124.0
32.4053 138.0
32.4152 123.0
32.425 127.0
32.4348 131.0
32.4447 127.0
32.4545 106.0
32.4644 122.0
32.4742 126.0
32.4841 119.0
32.4939 103.0
32.5038 123.0
32.5136 110.0
32.5235 122.0
32.5333 129.0
32.5432 108.0
32.553 118.0
32.5629 120.0
32.5727 119.0
32.5826 126.0
32.5924 135.0
32.6023 114.0
32.6121 138.0
32.622 144.0
32.6318 113.0
32.6416 150.0
32.6515 122.0
32.6613 107.0
32.6712 116.0
32.681 108.0
32.6909 119.0
32.7007 122.0
32.7106 119.0
32.7204 110.0
32.7303 95.0
32.7401 125.0
32.75 124.0
32.7598 123.0
32.7697 131.0
32.7795 110.0
32.7894 93.0
32.7992 135.0
32.8091 116.0
32.8189 120.0
32.8288 140.0
32.8386 136.0
32.8485 115.0
32.8583 121.0
32.8681 129.0
32.878 128.0
32.8878 117.0
32.8977 108.0
32.9075 130.0
32.9174 119.0
32.9272 137.0
32.9371 124.0
32.9469 118.0
32.9568 112.0
32.9666 108.0
32.9765 126.0
32.9863 120.0
32.9962 133.0
33.006 127.0
33.0159 109.0
33.0257 128.0
33.0356 129.0
33.0454 140.0
33.0553 132.0
33.0651 113.0
33.0749 133.0
33.0848 129.0
33.0946 113.0
33.1045 120.0
33.1143 103.0
33.1242 127.0
33.134 128.0
33.1439 120.0
33.1537 109.0
33.1636 105.0
33.1734 124.0
33.1833 120.0
33.1931 114.0
33.203 126.0
33.2128 117.0
33.2227 135.0
33.2325 129.0
33.2424 138.0
33.2522 113.0
33.2621 135.0
33.2719 127.0
33.2818 107.0
33.2916 124.0
33.3014 116.0
33.3113 129.0
33.3211 130.0
33.331 113.0
33.3408 131.0
33.3507 142.0
33.3605 140.0
33.3704 136.0
33.3802 131.0
33.3901 119.0
33.3999 140.0
33.4098 117.0
33.4196 104.0
33.4295 134.0
33.4393 126.0
33.4492 127.0
33.459 112.0
33.4689 110.0
33.4787 144.0
33.4886 126.0
33.4984 120.0
33.5082 116.0
33.5181 146.0
33.5279 100.0
33.5378 123.0
33.5476 116.0
33.5575 129.0
33.5673 137.0
33.5772 106.0
33.587 124.0
33.5969 139.0
33.6067 140.0
33.6166 123.0
33.6264 148.0
33.6363 129.0
33.6461 115.0
33.656 133.0
33.6658 139.0
33.6757 146.0
33.6855 153.0
33.6954 143.0
33.7052 146.0
33.715 139.0
33.7249 167.0
33.7347 152.0
33.7446 135.0
33.7544 125.0
33.7643 135.0
33.7741 154.0
33.784 159.0
33.7938 164.0
33.8037 139.0
33.8135 171.0
33.8234 180.0
33.8332 194.0
33.8431 186.0
33.8529 199.0
33.8628 224.0
33.8726 401.0
33.8825 629.0
33.8923 1076.0
33.9022 1461.0
33.912 1581.0
33.9219 1621.0
33.9317 1363.0
33.9415 992.0
33.9514 677.0
33.9612 443.0
33.9711 343.0
33.9809 294.0
33.9908 216.0
34.0006 216.0
34.0105 205.0
34.0203 199.0
34.0302 152.0
34.04 201.0
34.0499 196.0
34.0597 157.0
34.0696 185.0
34.0794 163.0
34.0893 178.0
34.0991 181.0
34.109 187.0
34.1188 182.0
34.1287 175.0
34.1385 155.0
34.1483 177.0
34.1582 181.0
34.168 167.0
34.1779 165.0
34.1877 175.0
34.1976 178.0
34.2074 161.0
34.2173 188.0
34.2271 189.0
34.237 165.0
34.2468 176.0
34.2567 198.0
34.2665 164.0
34.2764 184.0
34.2862 152.0
34.2961 184.0
34.3059 165.0
34.3158 159.0
34.3256 184.0
34.3355 160.0
34.3453 174.0
34.3552 154.0
34.365 161.0
34.3748 177.0
34.3847 172.0
34.3945 178.0
34.4044 174.0
34.4142 161.0
34.4241 177.0
34.4339 188.0
34.4438 189.0
34.4536 186.0
34.4635 178.0
34.4733 186.0
34.4832 195.0
34.493 200.0
34.5029 200.0
34.5127 189.0
34.5226 217.0
34.5324 169.0
34.5423 195.0
34.5521 211.0
34.562 193.0
34.5718 215.0
34.5816 164.0
34.5915 195.0
34.6013 195.0
34.6112 200.0
34.621 202.0
34.6309 219.0
34.6407 201.0
34.6506 216.0
34.6604 214.0
34.6703 206.0
34.6801 221.0
34.69 235.0
34.6998 223.0
34.7097 243.0
34.7195 243.0
34.7294 237.0
34.7392 211.0
34.7491 239.0
34.7589 261.0
34.7688 205.0
34.7786 293.0
34.7884 255.0
34.7983 292.0
34.8081 234.0
34.818 258.0
34.8278 242.0
34.8377 279.0
34.8475 262.0
34.8574 291.0
34.8672 280.0
34.8771 255.0
34.8869 295.0
34.8968 279.0
34.9066 305.0
34.9165 296.0
34.9263 342.0
34.9362 316.0
34.946 322.0
34.9559 367.0
34.9657 359.0
34.9756 336.0
34.9854 288.0
34.9953 386.0
35.0051 381.0
35.0149 399.0
35.0248 353.0
35.0346 393.0
35.0445 430.0
35.0543 381.0
35.0642 440.0
35.074 447.0
35.0839 438.0
35.0937 461.0
35.1036 467.0
35.1134 484.0
35.1233 503.0
35.1331 489.0
35.143 531.0
35.1528 516.0
35.1627 613.0
35.1725 636.0
35.1824 627.0
35.1922 665.0
35.2021 705.0
35.2119 720.0
35.2217 781.0
35.2316 819.0
35.2414 824.0
35.2513 928.0
35.2611 1019.0
35.271 1037.0
35.2808 1276.0
35.2907 1270.0
35.3005 1351.0
35.3104 1454.0
35.3202 1650.0
35.3301 1703.0
35.3399 1994.0
35.3498 2189.0
35.3596 2324.0
35.3695 2791.0
35.3793 3046.0
35.3892 3511.0
35.399 3988.0
35.4089 4513.0
35.4187 5190.0
35.4286 5930.0
35.4384 6452.0
35.4482 7048.0
35.4581 7781.0
35.4679 8345.0
35.4778 8687.0
35.4876 9090.0
35.4975 9390.0
35.5073 9791.0
35.5172 9782.0
35.527 9737.0
35.5369 9695.0
35.5467 9594.0
35.5566 9295.0
35.5664 8777.0
35.5763 8480.0
35.5861 7841.0
35.596 7618.0
35.6058 6927.0
35.6157 6460.0
35.6255 6192.0
35.6354 5566.0
35.6452 5078.0
35.655 4605.0
35.6649 4263.0
35.6747 3908.0
35.6846 3343.0
35.6944 3132.0
35.7043 2895.0
35.7141 2538.0
35.724 2339.0
35.7338 2201.0
35.7437 2067.0
35.7535 1830.0
35.7634 1805.0
35.7732 1671.0
35.7831 1579.0
35.7929 1454.0
35.8028 1417.0
35.8126 1342.0
35.8225 1288.0
35.8323 1201.0
35.8422 1166.0
35.852 1072.0
35.8619 1077.0
35.8717 994.0
35.8815 974.0
35.8914 922.0
35.9012 883.0
35.9111 907.0
35.9209 818.0
35.9308 874.0
35.9406 807.0
35.9505 756.0
35.9603 691.0
35.9702 735.0
35.98 726.0
35.9899 688.0
35.9997 715.0
36.0096 649.0
36.0194 633.0
36.0293 610.0
36.0391 613.0
36.049 578.0
36.0588 590.0
36.0687 583.0
36.0785 555.0
36.0883 537.0
36.0982 496.0
36.108 527.0
36.1179 488.0
36.1277 484.0
36.1376 484.0
36.1474 447.0
36.1573 465.0
36.1671 481.0
36.177 431.0
36.1868 418.0
36.1967 447.0
36.2065 477.0
36.2164 391.0
36.2262 432.0
36.2361 410.0
36.2459 372.0
36.2558 401.0
36.2656 394.0
36.2755 362.0
36.2853 391.0
36.2951 419.0
36.305 404.0
36.3148 359.0
36.3247 352.0
36.3345 341.0
36.3444 366.0
36.3542 328.0
36.3641 349.0
36.3739 363.0
36.3838 329.0
36.3936 352.0
36.4035 368.0
36.4133 361.0
36.4232 333.0
36.433 313.0
36.4429 320.0
36.4527 334.0
36.4626 326.0
36.4724 332.0
36.4823 316.0
36.4921 315.0
36.502 317.0
36.5118 332.0
36.5216 316.0
36.5315 348.0
36.5413 320.0
36.5512 333.0
36.561 320.0
36.5709 318.0
36.5807 315.0
36.5906 330.0
36.6004 326.0
36.6103 351.0
36.6201 355.0
36.63 355.0
36.6398 340.0
36.6497 332.0
36.6595 314.0
36.6694 359.0
36.6792 343.0
36.6891 327.0
36.6989 353.0
36.7088 350.0
36.7186 369.0
36.7284 349.0
36.7383 390.0
36.7481 404.0
36.758 369.0
36.7678 402.0
36.7777 414.0
36.7875 399.0
36.7974 452.0
36.8072 404.0
36.8171 420.0
36.8269 403.0
36.8368 392.0
36.8466 413.0
36.8565 427.0
36.8663 419.0
36.8762 419.0
36.886 448.0
36.8959 450.0
36.9057 448.0
36.9156 483.0
36.9254 446.0
36.9353 483.0
36.9451 514.0
36.9549 505.0
36.9648 488.0
36.9746 473.0
36.9845 517.0
36.9943 516.0
37.0042 505.0
37.014 539.0
37.0239 542.0
37.0337 544.0
37.0436 595.0
37.0534 580.0
37.0633 572.0
37.0731 557.0
37.083 586.0
37.0928 590.0
37.1027 638.0
37.1125 580.0
37.1224 627.0
37.1322 627.0
37.1421 645.0
37.1519 687.0
37.1617 656.0
37.1716 695.0
37.1814 688.0
37.1913 679.0
37.2011 725.0
37.211 656.0
37.2208 726.0
37.2307 794.0
37.2405 792.0
37.2504 791.0
37.2602 846.0
37.2701 873.0
37.2799 843.0
37.2898 900.0
37.2996 957.0
37.3095 941.0
37.3193 1008.0
37.3292 1003.0
37.339 1064.0
37.3489 1166.0
37.3587 1188.0
37.3686 1162.0
37.3784 1271.0
37.3882 1342.0
37.3981 1383.0
37.4079 1443.0
37.4178 1454.0
37.4276 1542.0
37.4375 1816.0
37.4473 2015.0
37.4572 2402.0
37.467 2827.0
37.4769 3492.0
37.4867 3824.0
37.4966 4388.0
37.5064 4754.0
37.5163 5079.0
37.5261 4916.0
37.536 5072.0
37.5458 5021.0
37.5557 5312.0
37.5655 5680.0
37.5754 6315.0
37.5852 7443.0
37.595 9487.0
37.6049 12420.0
37.6147 17728.0
37.6246 28011.0
37.6344 55952.0
37.6443 149644.0
37.6541 286942.0
37.664 348194.0
37.6738 362261.0
37.6837 353044.0
37.6935 275059.0
37.7034 128080.0
37.7132 58199.0
37.7231 41233.0
37.7329 53268.0
37.7428 98638.0
37.7526 150741.0
37.7625 178956.0
37.7723 183049.0
37.7822 170086.0
37.792 125401.0
37.8018 67152.0
37.8117 31739.0
37.8215 17216.0
37.8314 11203.0
37.8412 8137.0
37.8511 6407.0
37.8609 5464.0
37.8708 4732.0
37.8806 4199.0
37.8905 3777.0
37.9003 3469.0
37.9102 3027.0
37.92 2803.0
37.9299 2476.0
37.9397 2239.0
37.9496 2175.0
37.9594 1999.0
37.9693 1976.0
37.9791 1853.0
37.989 1805.0
37.9988 1667.0
38.0087 1574.0
38.0185 1545.0
38.0283 1468.0
38.0382 1408.0
38.048 1387.0
38.0579 1360.0
38.0677 1325.0
38.0776 1268.0
38.0874 1232.0
38.0973 1174.0
38.1071 1144.0
38.117 1019.0
38.1268 1027.0
38.1367 1094.0
38.1465 1050.0
38.1564 877.0
38.1662 878.0
38.1761 900.0
38.1859 858.0
38.1958 857.0
38.2056 844.0
38.2155 771.0
38.2253 724.0
38.2351 707.0
38.245 774.0
38.2548 688.0
38.2647 695.0
38.2745 675.0
38.2844 650.0
38.2942 627.0
38.3041 639.0
38.3139 615.0
38.3238 610.0
38.3336 619.0
38.3435 585.0
38.3533 528.0
38.3632 553.0
38.373 513.0
38.3829 483.0
38.3927 516.0
38.4026 494.0
38.4124 505.0
38.4223 457.0
38.4321 438.0
38.442 426.0
38.4518 445.0
38.4616 407.0
38.4715 421.0
38.4813 395.0
38.4912 402.0
38.501 356.0
38.5109 365.0
38.5207 372.0
38.5306 376.0
38.5404 337.0
38.5503 315.0
38.5601 318.0
38.57 286.0
38.5798 331.0
38.5897 326.0
38.5995 298.0
38.6094 337.0
38.6192 276.0
38.6291 294.0
38.6389 308.0
38.6488 261.0
38.6586 268.0
38.6684 224.0
38.6783 301.0
38.6881 261.0
38.698 262.0
38.7078 189.0
38.7177 201.0
38.7275 257.0
38.7374 204.0
38.7472 231.0
38.7571 221.0
38.7669 216.0
38.7768 201.0
38.7866 204.0
38.7965 211.0
38.8063 206.0
38.8162 204.0
38.826 229.0
38.8359 190.0
38.8457 199.0
38.8556 198.0
38.8654 189.0
38.8753 195.0
38.8851 207.0
38.8949 193.0
38.9048 180.0
38.9146 201.0
38.9245 194.0
38.9343 186.0
38.9442 168.0
38.954 178.0
38.9639 219.0
38.9737 165.0
38.9836 172.0
38.9934 177.0
39.0033 163.0
39.0131 184.0
39.023 184.0
39.0328 166.0
39.0427 176.0
39.0525 185.0
39.0624 172.0
39.0722 161.0
39.0821 164.0
39.0919 157.0
39.1017 165.0
39.1116 173.0
39.1214 178.0
39.1313 145.0
39.1411 178.0
39.151 169.0
39.1608 164.0
39.1707 170.0
39.1805 170.0
39.1904 139.0
39.2002 170.0
39.2101 160.0
39.2199 162.0
39.2298 160.0
39.2396 147.0
39.2495 130.0
39.2593 154.0
39.2692 161.0
39.279 159.0
39.2889 119.0
39.2987 165.0
39.3085 144.0
39.3184 142.0
39.3282 154.0
39.3381 162.0
39.3479 144.0
39.3578 138.0
39.3676 133.0
39.3775 144.0
39.3873 152.0
39.3972 140.0
39.407 153.0
39.4169 130.0
39.4267 139.0
39.4366 138.0
39.4464 152.0
39.4563 154.0
39.4661 152.0
39.476 142.0
39.4858 151.0
39.4957 152.0
39.5055 136.0
39.5154 130.0
39.5252 156.0
39.535 141.0
39.5449 122.0
39.5547 151.0
39.5646 129.0
39.5744 117.0
39.5843 138.0
39.5941 128.0
39.604 138.0
39.6138 132.0
39.6237 133.0
39.6335 115.0
39.6434 136.0
39.6532 122.0
39.6631 127.0
39.6729 143.0
39.6828 122.0
39.6926 131.0
39.7025 111.0
39.7123 120.0
39.7222 148.0
39.732 136.0
39.7418 133.0
39.7517 125.0
39.7615 118.0
39.7714 119.0
39.7812 132.0
39.7911 159.0
39.8009 138.0
39.8108 123.0
39.8206 125.0
39.8305 135.0
39.8403 132.0
39.8502 136.0
39.86 143.0
39.8699 127.0
39.8797 125.0
39.8896 122.0
39.8994 137.0
39.9093 128.0
39.9191 124.0
39.929 128.0
39.9388 153.0
39.9487 111.0
39.9585 109.0
39.9683 118.0
39.9782 134.0
39.988 122.0
39.9979 135.0