File: data/W6857m/XRD_2ThetaOmega/W6857m_absolute_2th-om_10-130deg_PIXscan_17min_6.xy
10.0035 25.0
10.0872 28.0
10.1709 33.0
10.2546 17.0
10.3383 20.0
10.422 21.0
10.5057 24.0
10.5894 19.0
10.6731 31.0
10.7568 18.0
10.8405 19.0
10.9242 21.0
11.0079 20.0
11.0916 19.0
11.1753 27.0
11.259 26.0
11.3428 21.0
11.4265 18.0
11.5102 18.0
11.5939 20.0
11.6776 19.0
11.7613 22.0
11.845 15.0
11.9287 20.0
12.0124 19.0
12.0961 24.0
12.1798 19.0
12.2635 18.0
12.3472 20.0
12.4309 12.0
12.5146 19.0
12.5983 19.0
12.682 22.0
12.7657 20.0
12.8495 17.0
12.9332 24.0
13.0169 18.0
13.1006 16.0
13.1843 18.0
13.268 16.0
13.3517 22.0
13.4354 19.0
13.5191 21.0
13.6028 15.0
13.6865 10.0
13.7702 20.0
13.8539 20.0
13.9376 16.0
14.0213 20.0
14.105 10.0
14.1887 12.0
14.2724 22.0
14.3562 13.0
14.4399 18.0
14.5236 15.0
14.6073 14.0
14.691 9.0
14.7747 13.0
14.8584 16.0
14.9421 18.0
15.0258 16.0
15.1095 12.0
15.1932 16.0
15.2769 20.0
15.3606 17.0
15.4443 18.0
15.528 16.0
15.6117 13.0
15.6954 20.0
15.7791 11.0
15.8629 13.0
15.9466 13.0
16.0303 19.0
16.114 18.0
16.1977 18.0
16.2814 14.0
16.3651 13.0
16.4488 12.0
16.5325 12.0
16.6162 11.0
16.6999 11.0
16.7836 15.0
16.8673 15.0
16.951 10.0
17.0347 21.0
17.1184 22.0
17.2021 13.0
17.2858 12.0
17.3696 15.0
17.4533 16.0
17.537 15.0
17.6207 11.0
17.7044 17.0
17.7881 11.0
17.8718 22.0
17.9555 17.0
18.0392 13.0
18.1229 17.0
18.2066 13.0
18.2903 16.0
18.374 12.0
18.4577 11.0
18.5414 16.0
18.6251 12.0
18.7088 13.0
18.7925 17.0
18.8763 18.0
18.96 14.0
19.0437 16.0
19.1274 16.0
19.2111 17.0
19.2948 15.0
19.3785 14.0
19.4622 16.0
19.5459 14.0
19.6296 9.0
19.7133 21.0
19.797 10.0
19.8807 10.0
19.9644 22.0
20.0481 18.0
20.1318 13.0
20.2155 12.0
20.2992 15.0
20.383 11.0
20.4667 12.0
20.5504 17.0
20.6341 17.0
20.7178 10.0
20.8015 15.0
20.8852 8.0
20.9689 12.0
21.0526 12.0
21.1363 11.0
21.22 12.0
21.3037 15.0
21.3874 7.0
21.4711 11.0
21.5548 13.0
21.6385 7.0
21.7222 8.0
21.8059 11.0
21.8897 15.0
21.9734 7.0
22.0571 13.0
22.1408 11.0
22.2245 14.0
22.3082 11.0
22.3919 10.0
22.4756 9.0
22.5593 10.0
22.643 10.0
22.7267 10.0
22.8104 8.0
22.8941 9.0
22.9778 12.0
23.0615 7.0
23.1452 8.0
23.2289 9.0
23.3126 9.0
23.3964 2.0
23.4801 15.0
23.5638 2.0
23.6475 10.0
23.7312 8.0
23.8149 12.0
23.8986 9.0
23.9823 11.0
24.066 6.0
24.1497 13.0
24.2334 8.0
24.3171 10.0
24.4008 5.0
24.4845 8.0
24.5682 10.0
24.6519 4.0
24.7356 11.0
24.8193 11.0
24.9031 3.0
24.9868 6.0
25.0705 8.0
25.1542 7.0
25.2379 9.0
25.3216 11.0
25.4053 7.0
25.489 13.0
25.5727 8.0
25.6564 10.0
25.7401 6.0
25.8238 9.0
25.9075 7.0
25.9912 11.0
26.0749 11.0
26.1586 4.0
26.2423 6.0
26.326 7.0
26.4098 8.0
26.4935 13.0
26.5772 9.0
26.6609 14.0
26.7446 12.0
26.8283 10.0
26.912 5.0
26.9957 6.0
27.0794 7.0
27.1631 7.0
27.2468 7.0
27.3305 6.0
27.4142 6.0
27.4979 10.0
27.5816 5.0
27.6653 8.0
27.749 3.0
27.8327 5.0
27.9165 9.0
28.0002 13.0
28.0839 7.0
28.1676 7.0
28.2513 14.0
28.335 7.0
28.4187 7.0
28.5024 2.0
28.5861 8.0
28.6698 10.0
28.7535 12.0
28.8372 7.0
28.9209 8.0
29.0046 11.0
29.0883 13.0
29.172 8.0
29.2557 9.0
29.3394 6.0
29.4232 8.0
29.5069 6.0
29.5906 7.0
29.6743 10.0
29.758 3.0
29.8417 8.0
29.9254 10.0
30.0091 10.0
30.0928 9.0
30.1765 7.0
30.2602 2.0
30.3439 5.0
30.4276 3.0
30.5113 9.0
30.595 8.0
30.6787 10.0
30.7624 7.0
30.8461 8.0
30.9298 6.0
31.0136 8.0
31.0973 5.0
31.181 8.0
31.2647 5.0
31.3484 10.0
31.4321 4.0
31.5158 6.0
31.5995 8.0
31.6832 9.0
31.7669 4.0
31.8506 8.0
31.9343 11.0
32.018 7.0
32.1017 3.0
32.1854 6.0
32.2691 9.0
32.3528 6.0
32.4365 9.0
32.5203 5.0
32.604 5.0
32.6877 6.0
32.7714 8.0
32.8551 15.0
32.9388 6.0
33.0225 7.0
33.1062 9.0
33.1899 6.0
33.2736 11.0
33.3573 7.0
33.441 5.0
33.5247 10.0
33.6084 5.0
33.6921 5.0
33.7758 9.0
33.8595 14.0
33.9432 5.0
34.027 2.0
34.1107 7.0
34.1944 9.0
34.2781 9.0
34.3618 5.0
34.4455 10.0
34.5292 11.0
34.6129 3.0
34.6966 11.0
34.7803 5.0
34.864 6.0
34.9477 7.0
35.0314 6.0
35.1151 10.0
35.1988 9.0
35.2825 6.0
35.3662 3.0
35.4499 14.0
35.5337 6.0
35.6174 3.0
35.7011 10.0
35.7848 9.0
35.8685 11.0
35.9522 10.0
36.0359 10.0
36.1196 3.0
36.2033 9.0
36.287 4.0
36.3707 6.0
36.4544 7.0
36.5381 4.0
36.6218 10.0
36.7055 5.0
36.7892 12.0
36.8729 12.0
36.9566 11.0
37.0404 13.0
37.1241 6.0
37.2078 9.0
37.2915 4.0
37.3752 7.0
37.4589 5.0
37.5426 10.0
37.6263 7.0
37.71 12.0
37.7937 5.0
37.8774 11.0
37.9611 5.0
38.0448 7.0
38.1285 6.0
38.2122 9.0
38.2959 10.0
38.3796 13.0
38.4633 9.0
38.5471 6.0
38.6308 8.0
38.7145 10.0
38.7982 7.0
38.8819 6.0
38.9656 9.0
39.0493 11.0
39.133 12.0
39.2167 9.0
39.3004 10.0
39.3841 12.0
39.4678 12.0
39.5515 9.0
39.6352 7.0
39.7189 5.0
39.8026 8.0
39.8863 5.0
39.97 7.0
40.0538 7.0
40.1375 7.0
40.2212 10.0
40.3049 6.0
40.3886 10.0
40.4723 6.0
40.556 8.0
40.6397 6.0
40.7234 16.0
40.8071 5.0
40.8908 10.0
40.9745 6.0
41.0582 4.0
41.1419 5.0
41.2256 3.0
41.3093 9.0
41.393 11.0
41.4767 6.0
41.5605 7.0
41.6442 5.0
41.7279 9.0
41.8116 13.0
41.8953 12.0
41.979 6.0
42.0627 8.0
42.1464 17.0
42.2301 8.0
42.3138 9.0
42.3975 9.0
42.4812 10.0
42.5649 13.0
42.6486 12.0
42.7323 8.0
42.816 7.0
42.8997 14.0
42.9834 14.0
43.0672 10.0
43.1509 8.0
43.2346 4.0
43.3183 14.0
43.402 10.0
43.4857 11.0
43.5694 12.0
43.6531 9.0
43.7368 15.0
43.8205 5.0
43.9042 17.0
43.9879 13.0
44.0716 13.0
44.1553 14.0
44.239 12.0
44.3227 16.0
44.4064 16.0
44.4901 13.0
44.5739 21.0
44.6576 14.0
44.7413 12.0
44.825 9.0
44.9087 14.0
44.9924 8.0
45.0761 10.0
45.1598 7.0
45.2435 6.0
45.3272 7.0
45.4109 7.0
45.4946 7.0
45.5783 7.0
45.662 12.0
45.7457 8.0
45.8294 10.0
45.9131 3.0
45.9968 4.0
46.0806 6.0
46.1643 11.0
46.248 9.0
46.3317 13.0
46.4154 6.0
46.4991 12.0
46.5828 7.0
46.6665 10.0
46.7502 8.0
46.8339 1.0
46.9176 11.0
47.0013 6.0
47.085 11.0
47.1687 6.0
47.2524 2.0
47.3361 14.0
47.4198 6.0
47.5035 8.0
47.5873 14.0
47.671 6.0
47.7547 15.0
47.8384 9.0
47.9221 9.0
48.0058 6.0
48.0895 10.0
48.1732 11.0
48.2569 10.0
48.3406 10.0
48.4243 5.0
48.508 9.0
48.5917 7.0
48.6754 8.0
48.7591 9.0
48.8428 10.0
48.9265 6.0
49.0102 14.0
49.094 9.0
49.1777 7.0
49.2614 7.0
49.3451 13.0
49.4288 5.0
49.5125 6.0
49.5962 7.0
49.6799 9.0
49.7636 9.0
49.8473 10.0
49.931 5.0
50.0147 5.0
50.0984 10.0
50.1821 16.0
50.2658 10.0
50.3495 10.0
50.4332 9.0
50.5169 5.0
50.6007 7.0
50.6844 12.0
50.7681 17.0
50.8518 9.0
50.9355 6.0
51.0192 9.0
51.1029 4.0
51.1866 5.0
51.2703 9.0
51.354 11.0
51.4377 8.0
51.5214 9.0
51.6051 16.0
51.6888 8.0
51.7725 5.0
51.8562 7.0
51.9399 8.0
52.0236 9.0
52.1074 11.0
52.1911 3.0
52.2748 16.0
52.3585 8.0
52.4422 9.0
52.5259 9.0
52.6096 6.0
52.6933 7.0
52.777 10.0
52.8607 15.0
52.9444 6.0
53.0281 9.0
53.1118 12.0
53.1955 6.0
53.2792 11.0
53.3629 7.0
53.4466 9.0
53.5303 4.0
53.6141 7.0
53.6978 9.0
53.7815 12.0
53.8652 5.0
53.9489 12.0
54.0326 10.0
54.1163 8.0
54.2 11.0
54.2837 6.0
54.3674 9.0
54.4511 9.0
54.5348 10.0
54.6185 8.0
54.7022 9.0
54.7859 10.0
54.8696 15.0
54.9533 11.0
55.037 7.0
55.1208 8.0
55.2045 13.0
55.2882 13.0
55.3719 4.0
55.4556 15.0
55.5393 25.0
55.623 15.0
55.7067 8.0
55.7904 10.0
55.8741 7.0
55.9578 11.0
56.0415 11.0
56.1252 11.0
56.2089 7.0
56.2926 9.0
56.3763 6.0
56.46 13.0
56.5437 10.0
56.6275 9.0
56.7112 10.0
56.7949 4.0
56.8786 9.0
56.9623 10.0
57.046 11.0
57.1297 12.0
57.2134 11.0
57.2971 7.0
57.3808 9.0
57.4645 7.0
57.5482 10.0
57.6319 10.0
57.7156 8.0
57.7993 16.0
57.883 11.0
57.9667 8.0
58.0504 5.0
58.1342 11.0
58.2179 11.0
58.3016 10.0
58.3853 11.0
58.469 5.0
58.5527 17.0
58.6364 8.0
58.7201 12.0
58.8038 13.0
58.8875 7.0
58.9712 7.0
59.0549 9.0
59.1386 6.0
59.2223 13.0
59.306 10.0
59.3897 7.0
59.4734 10.0
59.5571 12.0
59.6409 10.0
59.7246 11.0
59.8083 10.0
59.892 11.0
59.9757 14.0
60.0594 8.0
60.1431 10.0
60.2268 12.0
60.3105 9.0
60.3942 11.0
60.4779 10.0
60.5616 12.0
60.6453 16.0
60.729 13.0
60.8127 71.0
60.8964 77.0
60.9801 23.0
61.0638 13.0
61.1476 13.0
61.2313 14.0
61.315 18.0
61.3987 11.0
61.4824 17.0
61.5661 10.0
61.6498 8.0
61.7335 10.0
61.8172 20.0
61.9009 15.0
61.9846 16.0
62.0683 14.0
62.152 22.0
62.2357 20.0
62.3194 19.0
62.4031 10.0
62.4868 15.0
62.5705 13.0
62.6543 15.0
62.738 13.0
62.8217 16.0
62.9054 16.0
62.9891 17.0
63.0728 10.0
63.1565 19.0
63.2402 13.0
63.3239 13.0
63.4076 12.0
63.4913 17.0
63.575 17.0
63.6587 23.0
63.7424 18.0
63.8261 33.0
63.9098 26.0
63.9935 39.0
64.0772 62.0
64.161 60.0
64.2447 96.0
64.3284 144.0
64.4121 137.0
64.4958 153.0
64.5795 128.0
64.6632 82.0
64.7469 75.0
64.8306 51.0
64.9143 167.0
64.998 108.0
65.0817 36.0
65.1654 27.0
65.2491 23.0
65.3328 15.0
65.4165 26.0
65.5002 39.0
65.5839 14.0
65.6677 13.0
65.7514 20.0
65.8351 17.0
65.9188 12.0
66.0025 17.0
66.0862 20.0
66.1699 15.0
66.2536 16.0
66.3373 15.0
66.421 23.0
66.5047 18.0
66.5884 20.0
66.6721 19.0
66.7558 13.0
66.8395 34.0
66.9232 31.0
67.0069 31.0
67.0906 32.0
67.1744 44.0
67.2581 32.0
67.3418 41.0
67.4255 38.0
67.5092 67.0
67.5929 72.0
67.6766 95.0
67.7603 189.0
67.844 313.0
67.9277 301.0
68.0114 662.0
68.0951 5561.0
68.1788 13427.0
68.2625 1905.0
68.3462 16369.0
68.4299 1103.0
68.5136 398.0
68.5973 267.0
68.6811 147.0
68.7648 152.0
68.8485 106.0
68.9322 85.0
69.0159 97.0
69.0996 74.0
69.1833 70.0
69.267 77.0
69.3507 63.0
69.4344 48.0
69.5181 54.0
69.6018 53.0
69.6855 48.0
69.7692 50.0
69.8529 52.0
69.9366 30.0
70.0203 41.0
70.104 28.0
70.1878 34.0
70.2715 20.0
70.3552 27.0
70.4389 35.0
70.5226 21.0
70.6063 19.0
70.69 26.0
70.7737 12.0
70.8574 23.0
70.9411 18.0
71.0248 21.0
71.1085 15.0
71.1922 11.0
71.2759 30.0
71.3596 16.0
71.4433 12.0
71.527 14.0
71.6107 20.0
71.6945 15.0
71.7782 18.0
71.8619 16.0
71.9456 19.0
72.0293 12.0
72.113 11.0
72.1967 11.0
72.2804 9.0
72.3641 18.0
72.4478 19.0
72.5315 9.0
72.6152 19.0
72.6989 18.0
72.7826 5.0
72.8663 7.0
72.95 16.0
73.0337 8.0
73.1174 14.0
73.2012 10.0
73.2849 15.0
73.3686 10.0
73.4523 8.0
73.536 11.0
73.6197 12.0
73.7034 7.0
73.7871 14.0
73.8708 7.0
73.9545 9.0
74.0382 12.0
74.1219 12.0
74.2056 18.0
74.2893 12.0
74.373 11.0
74.4567 12.0
74.5404 10.0
74.6241 7.0
74.7079 15.0
74.7916 16.0
74.8753 18.0
74.959 10.0
75.0427 9.0
75.1264 11.0
75.2101 8.0
75.2938 9.0
75.3775 15.0
75.4612 12.0
75.5449 14.0
75.6286 14.0
75.7123 12.0
75.796 15.0
75.8797 11.0
75.9634 9.0
76.0471 8.0
76.1308 12.0
76.2146 14.0
76.2983 9.0
76.382 4.0
76.4657 7.0
76.5494 12.0
76.6331 11.0
76.7168 11.0
76.8005 8.0
76.8842 14.0
76.9679 14.0
77.0516 8.0
77.1353 6.0
77.219 8.0
77.3027 9.0
77.3864 7.0
77.4701 10.0
77.5538 13.0
77.6375 7.0
77.7213 10.0
77.805 15.0
77.8887 15.0
77.9724 7.0
78.0561 10.0
78.1398 14.0
78.2235 12.0
78.3072 14.0
78.3909 14.0
78.4746 10.0
78.5583 12.0
78.642 10.0
78.7257 13.0
78.8094 13.0
78.8931 12.0
78.9768 11.0
79.0605 11.0
79.1442 11.0
79.228 9.0
79.3117 8.0
79.3954 9.0
79.4791 16.0
79.5628 12.0
79.6465 10.0
79.7302 11.0
79.8139 10.0
79.8976 9.0
79.9813 5.0
80.065 4.0
80.1487 14.0
80.2324 10.0
80.3161 6.0
80.3998 10.0
80.4835 12.0
80.5672 9.0
80.6509 7.0
80.7347 13.0
80.8184 12.0
80.9021 9.0
80.9858 9.0
81.0695 10.0
81.1532 11.0
81.2369 13.0
81.3206 5.0
81.4043 10.0
81.488 11.0
81.5717 15.0
81.6554 12.0
81.7391 11.0
81.8228 15.0
81.9065 7.0
81.9902 16.0
82.0739 10.0
82.1576 11.0
82.2414 13.0
82.3251 14.0
82.4088 7.0
82.4925 14.0
82.5762 10.0
82.6599 10.0
82.7436 8.0
82.8273 9.0
82.911 10.0
82.9947 18.0
83.0784 13.0
83.1621 6.0
83.2458 7.0
83.3295 10.0
83.4132 10.0
83.4969 8.0
83.5806 13.0
83.6643 11.0
83.7481 12.0
83.8318 5.0
83.9155 10.0
83.9992 22.0
84.0829 8.0
84.1666 8.0
84.2503 7.0
84.334 10.0
84.4177 8.0
84.5014 11.0
84.5851 17.0
84.6688 12.0
84.7525 17.0
84.8362 10.0
84.9199 9.0
85.0036 7.0
85.0873 11.0
85.171 6.0
85.2548 7.0
85.3385 7.0
85.4222 12.0
85.5059 15.0
85.5896 14.0
85.6733 11.0
85.757 15.0
85.8407 7.0
85.9244 8.0
86.0081 9.0
86.0918 11.0
86.1755 7.0
86.2592 8.0
86.3429 11.0
86.4266 6.0
86.5103 8.0
86.594 7.0
86.6777 13.0
86.7615 11.0
86.8452 7.0
86.9289 14.0
87.0126 11.0
87.0963 13.0
87.18 11.0
87.2637 12.0
87.3474 6.0
87.4311 8.0
87.5148 11.0
87.5985 11.0
87.6822 9.0
87.7659 6.0
87.8496 16.0
87.9333 10.0
88.017 17.0
88.1007 10.0
88.1844 13.0
88.2682 11.0
88.3519 13.0
88.4356 7.0
88.5193 10.0
88.603 6.0
88.6867 18.0
88.7704 4.0
88.8541 8.0
88.9378 9.0
89.0215 12.0
89.1052 11.0
89.1889 6.0
89.2726 10.0
89.3563 10.0
89.44 6.0
89.5237 10.0
89.6074 9.0
89.6911 10.0
89.7749 15.0
89.8586 13.0
89.9423 11.0
90.026 13.0
90.1097 11.0
90.1934 11.0
90.2771 11.0
90.3608 10.0
90.4445 9.0
90.5282 10.0
90.6119 5.0
90.6956 19.0
90.7793 11.0
90.863 6.0
90.9467 9.0
91.0304 7.0
91.1141 11.0
91.1978 11.0
91.2816 6.0
91.3653 13.0
91.449 14.0
91.5327 10.0
91.6164 5.0
91.7001 9.0
91.7838 9.0
91.8675 12.0
91.9512 9.0
92.0349 11.0
92.1186 8.0
92.2023 10.0
92.286 7.0
92.3697 9.0
92.4534 6.0
92.5371 8.0
92.6208 9.0
92.7045 16.0
92.7883 15.0
92.872 11.0
92.9557 12.0
93.0394 11.0
93.1231 15.0
93.2068 13.0
93.2905 9.0
93.3742 17.0
93.4579 9.0
93.5416 14.0
93.6253 6.0
93.709 8.0
93.7927 13.0
93.8764 12.0
93.9601 7.0
94.0438 11.0
94.1275 16.0
94.2112 10.0
94.295 9.0
94.3787 13.0
94.4624 12.0
94.5461 16.0
94.6298 11.0
94.7135 10.0
94.7972 13.0
94.8809 6.0
94.9646 11.0
95.0483 16.0
95.132 13.0
95.2157 10.0
95.2994 12.0
95.3831 8.0
95.4668 10.0
95.5505 13.0
95.6342 12.0
95.7179 12.0
95.8017 10.0
95.8854 12.0
95.9691 13.0
96.0528 6.0
96.1365 10.0
96.2202 12.0
96.3039 12.0
96.3876 11.0
96.4713 15.0
96.555 9.0
96.6387 17.0
96.7224 8.0
96.8061 10.0
96.8898 10.0
96.9735 9.0
97.0572 7.0
97.1409 13.0
97.2246 11.0
97.3084 14.0
97.3921 14.0
97.4758 9.0
97.5595 7.0
97.6432 11.0
97.7269 9.0
97.8106 12.0
97.8943 14.0
97.978 10.0
98.0617 11.0
98.1454 11.0
98.2291 8.0
98.3128 14.0
98.3965 10.0
98.4802 14.0
98.5639 11.0
98.6476 15.0
98.7313 16.0
98.8151 9.0
98.8988 8.0
98.9825 16.0
99.0662 16.0
99.1499 9.0
99.2336 8.0
99.3173 9.0
99.401 14.0
99.4847 9.0
99.5684 9.0
99.6521 7.0
99.7358 15.0
99.8195 9.0
99.9032 9.0
99.9869 14.0
100.071 8.0
100.154 9.0
100.238 12.0
100.322 14.0
100.405 7.0
100.489 14.0
100.573 8.0
100.657 12.0
100.74 11.0
100.824 9.0
100.908 10.0
100.991 14.0
101.075 15.0
101.159 14.0
101.243 12.0
101.326 11.0
101.41 12.0
101.494 9.0
101.577 11.0
101.661 6.0
101.745 10.0
101.828 9.0
101.912 11.0
101.996 7.0
102.08 15.0
102.163 10.0
102.247 14.0
102.331 11.0
102.414 11.0
102.498 6.0
102.582 6.0
102.666 11.0
102.749 5.0
102.833 7.0
102.917 17.0
103 11.0
103.084 11.0
103.168 11.0
103.251 3.0
103.335 18.0
103.419 15.0
103.503 12.0
103.586 11.0
103.67 9.0
103.754 7.0
103.837 6.0
103.921 11.0
104.005 7.0
104.089 15.0
104.172 12.0
104.256 8.0
104.34 12.0
104.423 9.0
104.507 8.0
104.591 12.0
104.674 10.0
104.758 13.0
104.842 11.0
104.926 9.0
105.009 12.0
105.093 10.0
105.177 10.0
105.26 8.0
105.344 14.0
105.428 7.0
105.511 11.0
105.595 11.0
105.679 9.0
105.763 11.0
105.846 14.0
105.93 6.0
106.014 7.0
106.097 13.0
106.181 7.0
106.265 8.0
106.349 10.0
106.432 8.0
106.516 7.0
106.6 9.0
106.683 10.0
106.767 11.0
106.851 8.0
106.934 12.0
107.018 15.0
107.102 5.0
107.186 10.0
107.269 10.0
107.353 10.0
107.437 9.0
107.52 8.0
107.604 10.0
107.688 11.0
107.772 10.0
107.855 15.0
107.939 12.0
108.023 9.0
108.106 5.0
108.19 12.0
108.274 7.0
108.357 22.0
108.441 11.0
108.525 10.0
108.609 8.0
108.692 14.0
108.776 12.0
108.86 5.0
108.943 9.0
109.027 19.0
109.111 10.0
109.195 9.0
109.278 13.0
109.362 12.0
109.446 9.0
109.529 6.0
109.613 6.0
109.697 7.0
109.78 12.0
109.864 7.0
109.948 3.0
110.032 5.0
110.115 10.0
110.199 15.0
110.283 8.0
110.366 5.0
110.45 8.0
110.534 7.0
110.618 9.0
110.701 9.0
110.785 3.0
110.869 3.0
110.952 10.0
111.036 6.0
111.12 11.0
111.203 8.0
111.287 11.0
111.371 9.0
111.455 7.0
111.538 11.0
111.622 10.0
111.706 8.0
111.789 10.0
111.873 12.0
111.957 14.0
112.041 8.0
112.124 9.0
112.208 6.0
112.292 6.0
112.375 13.0
112.459 9.0
112.543 14.0
112.626 8.0
112.71 8.0
112.794 11.0
112.878 8.0
112.961 4.0
113.045 12.0
113.129 12.0
113.212 14.0
113.296 9.0
113.38 12.0
113.464 9.0
113.547 12.0
113.631 12.0
113.715 9.0
113.798 5.0
113.882 15.0
113.966 13.0
114.049 10.0
114.133 12.0
114.217 10.0
114.301 11.0
114.384 10.0
114.468 10.0
114.552 10.0
114.635 8.0
114.719 10.0
114.803 6.0
114.887 11.0
114.97 5.0
115.054 7.0
115.138 18.0
115.221 10.0
115.305 13.0
115.389 15.0
115.472 10.0
115.556 7.0
115.64 10.0
115.724 15.0
115.807 7.0
115.891 8.0
115.975 12.0
116.058 11.0
116.142 16.0
116.226 8.0
116.31 12.0
116.393 11.0
116.477 8.0
116.561 7.0
116.644 5.0
116.728 13.0
116.812 13.0
116.895 7.0
116.979 13.0
117.063 8.0
117.147 13.0
117.23 12.0
117.314 7.0
117.398 10.0
117.481 10.0
117.565 7.0
117.649 12.0
117.733 7.0
117.816 9.0
117.9 14.0
117.984 13.0
118.067 6.0
118.151 11.0
118.235 16.0
118.318 4.0
118.402 16.0
118.486 14.0
118.57 6.0
118.653 12.0
118.737 10.0
118.821 6.0
118.904 11.0
118.988 9.0
119.072 9.0
119.156 11.0
119.239 9.0
119.323 9.0
119.407 8.0
119.49 15.0
119.574 10.0
119.658 13.0
119.741 10.0
119.825 12.0
119.909 13.0
119.993 9.0
120.076 10.0
120.16 8.0
120.244 7.0
120.327 6.0
120.411 10.0
120.495 11.0
120.578 17.0
120.662 9.0
120.746 8.0
120.83 11.0
120.913 10.0
120.997 11.0
121.081 5.0
121.164 10.0
121.248 7.0
121.332 13.0
121.416 9.0
121.499 10.0
121.583 10.0
121.667 7.0
121.75 4.0
121.834 8.0
121.918 11.0
122.001 10.0
122.085 13.0
122.169 9.0
122.253 5.0
122.336 9.0
122.42 7.0
122.504 6.0
122.587 12.0
122.671 11.0
122.755 10.0
122.839 6.0
122.922 13.0
123.006 13.0
123.09 11.0
123.173 12.0
123.257 7.0
123.341 11.0
123.424 10.0
123.508 6.0
123.592 8.0
123.676 9.0
123.759 7.0
123.843 11.0
123.927 9.0
124.01 8.0
124.094 10.0
124.178 10.0
124.262 7.0
124.345 11.0
124.429 14.0
124.513 9.0
124.596 5.0
124.68 5.0
124.764 12.0
124.847 7.0
124.931 9.0
125.015 9.0
125.099 7.0
125.182 11.0
125.266 11.0
125.35 10.0
125.433 14.0
125.517 10.0
125.601 3.0
125.685 11.0
125.768 4.0
125.852 8.0
125.936 14.0
126.019 7.0
126.103 7.0
126.187 9.0
126.27 10.0
126.354 13.0
126.438 5.0
126.522 4.0
126.605 14.0
126.689 9.0
126.773 7.0
126.856 5.0
126.94 7.0
127.024 8.0
127.108 9.0
127.191 5.0
127.275 9.0
127.359 10.0
127.442 8.0
127.526 7.0
127.61 8.0
127.693 7.0
127.777 9.0
127.861 10.0
127.945 8.0
128.028 13.0
128.112 9.0
128.196 13.0
128.279 5.0
128.363 7.0
128.447 10.0
128.531 7.0
128.614 16.0
128.698 10.0
128.782 10.0
128.865 8.0
128.949 7.0
129.033 6.0
129.116 4.0
129.2 9.0
129.284 14.0
129.368 4.0
129.451 9.0
129.535 5.0
129.619 11.0
129.702 13.0
129.786 12.0
129.87 13.0
129.954 14.0
129.998 9.0