File: data/W6911c/XRD_2ThetaOmega/w6911c_scan_2th-om_c_Cr2O3_35-45deg_PIXscan_4min.xy
35.0021 115.0
35.0119 98.0
35.0218 135.0
35.0316 122.0
35.0415 121.0
35.0513 114.0
35.0611 120.0
35.071 141.0
35.0808 122.0
35.0907 128.0
35.1005 120.0
35.1104 122.0
35.1202 117.0
35.1301 117.0
35.1399 122.0
35.1498 107.0
35.1596 106.0
35.1695 112.0
35.1793 129.0
35.1892 108.0
35.199 128.0
35.2089 108.0
35.2187 115.0
35.2286 107.0
35.2384 119.0
35.2483 122.0
35.2581 128.0
35.268 106.0
35.2778 116.0
35.2876 114.0
35.2975 100.0
35.3073 114.0
35.3172 109.0
35.327 127.0
35.3369 112.0
35.3467 141.0
35.3566 139.0
35.3664 134.0
35.3763 113.0
35.3861 123.0
35.396 110.0
35.4058 109.0
35.4157 131.0
35.4255 127.0
35.4354 129.0
35.4452 116.0
35.4551 123.0
35.4649 129.0
35.4748 134.0
35.4846 104.0
35.4944 129.0
35.5043 136.0
35.5141 120.0
35.524 131.0
35.5338 122.0
35.5437 127.0
35.5535 123.0
35.5634 142.0
35.5732 118.0
35.5831 96.0
35.5929 129.0
35.6028 125.0
35.6126 124.0
35.6225 125.0
35.6323 123.0
35.6422 126.0
35.652 120.0
35.6619 126.0
35.6717 123.0
35.6816 133.0
35.6914 119.0
35.7012 124.0
35.7111 99.0
35.7209 97.0
35.7308 137.0
35.7406 118.0
35.7505 130.0
35.7603 105.0
35.7702 111.0
35.78 114.0
35.7899 122.0
35.7997 101.0
35.8096 118.0
35.8194 135.0
35.8293 119.0
35.8391 125.0
35.849 132.0
35.8588 124.0
35.8687 116.0
35.8785 100.0
35.8884 127.0
35.8982 133.0
35.9081 103.0
35.9179 131.0
35.9277 111.0
35.9376 117.0
35.9474 121.0
35.9573 104.0
35.9671 136.0
35.977 96.0
35.9868 135.0
35.9967 114.0
36.0065 103.0
36.0164 134.0
36.0262 123.0
36.0361 126.0
36.0459 134.0
36.0558 114.0
36.0656 124.0
36.0755 131.0
36.0853 118.0
36.0952 120.0
36.105 128.0
36.1149 116.0
36.1247 96.0
36.1345 117.0
36.1444 137.0
36.1542 127.0
36.1641 119.0
36.1739 114.0
36.1838 126.0
36.1936 125.0
36.2035 108.0
36.2133 123.0
36.2232 118.0
36.233 118.0
36.2429 123.0
36.2527 125.0
36.2626 115.0
36.2724 129.0
36.2823 139.0
36.2921 126.0
36.302 130.0
36.3118 127.0
36.3217 109.0
36.3315 131.0
36.3414 134.0
36.3512 135.0
36.361 112.0
36.3709 123.0
36.3807 117.0
36.3906 148.0
36.4004 120.0
36.4103 136.0
36.4201 124.0
36.43 126.0
36.4398 102.0
36.4497 98.0
36.4595 122.0
36.4694 130.0
36.4792 133.0
36.4891 118.0
36.4989 101.0
36.5088 127.0
36.5186 100.0
36.5285 115.0
36.5383 109.0
36.5482 126.0
36.558 107.0
36.5678 117.0
36.5777 113.0
36.5875 132.0
36.5974 110.0
36.6072 150.0
36.6171 149.0
36.6269 129.0
36.6368 96.0
36.6466 128.0
36.6565 136.0
36.6663 125.0
36.6762 108.0
36.686 112.0
36.6959 133.0
36.7057 145.0
36.7156 97.0
36.7254 109.0
36.7353 133.0
36.7451 134.0
36.755 126.0
36.7648 128.0
36.7747 119.0
36.7845 121.0
36.7943 128.0
36.8042 126.0
36.814 97.0
36.8239 122.0
36.8337 120.0
36.8436 123.0
36.8534 119.0
36.8633 113.0
36.8731 111.0
36.883 118.0
36.8928 131.0
36.9027 136.0
36.9125 106.0
36.9224 111.0
36.9322 128.0
36.9421 115.0
36.9519 108.0
36.9618 117.0
36.9716 121.0
36.9815 129.0
36.9913 104.0
37.0011 123.0
37.011 103.0
37.0208 133.0
37.0307 123.0
37.0405 138.0
37.0504 118.0
37.0602 111.0
37.0701 110.0
37.0799 117.0
37.0898 121.0
37.0996 105.0
37.1095 130.0
37.1193 125.0
37.1292 126.0
37.139 119.0
37.1489 125.0
37.1587 137.0
37.1686 121.0
37.1784 134.0
37.1883 127.0
37.1981 128.0
37.2079 106.0
37.2178 111.0
37.2276 122.0
37.2375 119.0
37.2473 125.0
37.2572 130.0
37.267 108.0
37.2769 125.0
37.2867 137.0
37.2966 117.0
37.3064 134.0
37.3163 110.0
37.3261 108.0
37.336 135.0
37.3458 124.0
37.3557 129.0
37.3655 116.0
37.3754 173.0
37.3852 180.0
37.3951 216.0
37.4049 282.0
37.4148 310.0
37.4246 352.0
37.4344 328.0
37.4443 330.0
37.4541 278.0
37.464 215.0
37.4738 176.0
37.4837 169.0
37.4935 155.0
37.5034 140.0
37.5132 131.0
37.5231 150.0
37.5329 138.0
37.5428 136.0
37.5526 124.0
37.5625 143.0
37.5723 141.0
37.5822 122.0
37.592 135.0
37.6019 110.0
37.6117 162.0
37.6216 129.0
37.6314 124.0
37.6412 120.0
37.6511 120.0
37.6609 139.0
37.6708 120.0
37.6806 119.0
37.6905 130.0
37.7003 113.0
37.7102 118.0
37.72 116.0
37.7299 120.0
37.7397 151.0
37.7496 125.0
37.7594 110.0
37.7693 104.0
37.7791 135.0
37.789 132.0
37.7988 143.0
37.8087 141.0
37.8185 131.0
37.8284 117.0
37.8382 118.0
37.8481 126.0
37.8579 125.0
37.8677 101.0
37.8776 134.0
37.8874 125.0
37.8973 134.0
37.9071 134.0
37.917 121.0
37.9268 120.0
37.9367 114.0
37.9465 138.0
37.9564 120.0
37.9662 132.0
37.9761 141.0
37.9859 128.0
37.9958 121.0
38.0056 127.0
38.0155 127.0
38.0253 121.0
38.0352 121.0
38.045 127.0
38.0549 123.0
38.0647 160.0
38.0745 140.0
38.0844 120.0
38.0942 122.0
38.1041 122.0
38.1139 122.0
38.1238 128.0
38.1336 146.0
38.1435 130.0
38.1533 143.0
38.1632 127.0
38.173 129.0
38.1829 139.0
38.1927 137.0
38.2026 126.0
38.2124 123.0
38.2223 150.0
38.2321 123.0
38.242 130.0
38.2518 140.0
38.2617 129.0
38.2715 115.0
38.2814 115.0
38.2912 133.0
38.301 136.0
38.3109 136.0
38.3207 135.0
38.3306 119.0
38.3404 117.0
38.3503 147.0
38.3601 139.0
38.37 135.0
38.3798 131.0
38.3897 146.0
38.3995 130.0
38.4094 153.0
38.4192 137.0
38.4291 147.0
38.4389 124.0
38.4488 144.0
38.4586 131.0
38.4685 132.0
38.4783 127.0
38.4882 124.0
38.498 132.0
38.5078 141.0
38.5177 148.0
38.5275 140.0
38.5374 149.0
38.5472 158.0
38.5571 124.0
38.5669 135.0
38.5768 146.0
38.5866 140.0
38.5965 163.0
38.6063 154.0
38.6162 135.0
38.626 165.0
38.6359 159.0
38.6457 151.0
38.6556 138.0
38.6654 141.0
38.6753 140.0
38.6851 166.0
38.695 142.0
38.7048 144.0
38.7146 132.0
38.7245 156.0
38.7343 155.0
38.7442 153.0
38.754 158.0
38.7639 152.0
38.7737 177.0
38.7836 179.0
38.7934 176.0
38.8033 140.0
38.8131 166.0
38.823 164.0
38.8328 164.0
38.8427 145.0
38.8525 155.0
38.8624 151.0
38.8722 174.0
38.8821 154.0
38.8919 157.0
38.9018 186.0
38.9116 173.0
38.9215 180.0
38.9313 178.0
38.9411 194.0
38.951 195.0
38.9608 186.0
38.9707 191.0
38.9805 175.0
38.9904 196.0
39.0002 177.0
39.0101 175.0
39.0199 205.0
39.0298 204.0
39.0396 205.0
39.0495 212.0
39.0593 228.0
39.0692 259.0
39.079 271.0
39.0889 258.0
39.0987 284.0
39.1086 271.0
39.1184 272.0
39.1283 288.0
39.1381 285.0
39.1479 279.0
39.1578 267.0
39.1676 287.0
39.1775 307.0
39.1873 345.0
39.1972 339.0
39.207 389.0
39.2169 397.0
39.2267 486.0
39.2366 495.0
39.2464 481.0
39.2563 523.0
39.2661 542.0
39.276 547.0
39.2858 551.0
39.2957 570.0
39.3055 603.0
39.3154 630.0
39.3252 668.0
39.3351 700.0
39.3449 797.0
39.3548 1015.0
39.3646 1099.0
39.3744 1307.0
39.3843 1584.0
39.3941 1768.0
39.404 2045.0
39.4138 2298.0
39.4237 2635.0
39.4335 2837.0
39.4434 2984.0
39.4532 3190.0
39.4631 3340.0
39.4729 3360.0
39.4828 3540.0
39.4926 3490.0
39.5025 3493.0
39.5123 3416.0
39.5222 3359.0
39.532 3214.0
39.5419 3180.0
39.5517 3041.0
39.5616 2826.0
39.5714 2552.0
39.5812 2468.0
39.5911 2268.0
39.6009 2048.0
39.6108 1901.0
39.6206 1678.0
39.6305 1613.0
39.6403 1457.0
39.6502 1267.0
39.66 1119.0
39.6699 1071.0
39.6797 877.0
39.6896 767.0
39.6994 700.0
39.7093 682.0
39.7191 483.0
39.729 495.0
39.7388 445.0
39.7487 441.0
39.7585 427.0
39.7684 390.0
39.7782 377.0
39.788 346.0
39.7979 367.0
39.8077 307.0
39.8176 303.0
39.8274 290.0
39.8373 302.0
39.8471 298.0
39.857 239.0
39.8668 233.0
39.8767 211.0
39.8865 212.0
39.8964 207.0
39.9062 198.0
39.9161 181.0
39.9259 195.0
39.9358 205.0
39.9456 161.0
39.9555 191.0
39.9653 208.0
39.9752 178.0
39.985 164.0
39.9949 179.0
40.0047 162.0
40.0145 174.0
40.0244 128.0
40.0342 153.0
40.0441 139.0
40.0539 182.0
40.0638 186.0
40.0736 145.0
40.0835 160.0
40.0933 176.0
40.1032 145.0
40.113 171.0
40.1229 135.0
40.1327 157.0
40.1426 147.0
40.1524 124.0
40.1623 114.0
40.1721 160.0
40.182 166.0
40.1918 156.0
40.2017 174.0
40.2115 144.0
40.2213 155.0
40.2312 160.0
40.241 129.0
40.2509 142.0
40.2607 139.0
40.2706 146.0
40.2804 146.0
40.2903 131.0
40.3001 154.0
40.31 119.0
40.3198 160.0
40.3297 151.0
40.3395 127.0
40.3494 143.0
40.3592 170.0
40.3691 167.0
40.3789 154.0
40.3888 173.0
40.3986 137.0
40.4085 161.0
40.4183 149.0
40.4282 172.0
40.438 132.0
40.4478 135.0
40.4577 146.0
40.4675 148.0
40.4774 154.0
40.4872 171.0
40.4971 147.0
40.5069 151.0
40.5168 164.0
40.5266 136.0
40.5365 162.0
40.5463 138.0
40.5562 153.0
40.566 146.0
40.5759 163.0
40.5857 162.0
40.5956 165.0
40.6054 174.0
40.6153 161.0
40.6251 150.0
40.635 170.0
40.6448 173.0
40.6546 167.0
40.6645 152.0
40.6743 174.0
40.6842 153.0
40.694 168.0
40.7039 191.0
40.7137 178.0
40.7236 162.0
40.7334 171.0
40.7433 177.0
40.7531 169.0
40.763 197.0
40.7728 165.0
40.7827 146.0
40.7925 163.0
40.8024 160.0
40.8122 188.0
40.8221 191.0
40.8319 177.0
40.8418 182.0
40.8516 169.0
40.8615 179.0
40.8713 177.0
40.8811 154.0
40.891 181.0
40.9008 175.0
40.9107 169.0
40.9205 174.0
40.9304 195.0
40.9402 201.0
40.9501 197.0
40.9599 188.0
40.9698 200.0
40.9796 180.0
40.9895 218.0
40.9993 209.0
41.0092 206.0
41.019 211.0
41.0289 204.0
41.0387 189.0
41.0486 210.0
41.0584 214.0
41.0683 223.0
41.0781 226.0
41.0879 182.0
41.0978 216.0
41.1076 193.0
41.1175 206.0
41.1273 206.0
41.1372 209.0
41.147 257.0
41.1569 223.0
41.1667 202.0
41.1766 215.0
41.1864 263.0
41.1963 271.0
41.2061 280.0
41.216 219.0
41.2258 233.0
41.2357 308.0
41.2455 292.0
41.2554 295.0
41.2652 298.0
41.2751 278.0
41.2849 309.0
41.2947 323.0
41.3046 369.0
41.3144 340.0
41.3243 347.0
41.3341 393.0
41.344 403.0
41.3538 443.0
41.3637 508.0
41.3735 598.0
41.3834 678.0
41.3932 777.0
41.4031 879.0
41.4129 969.0
41.4228 1046.0
41.4326 1017.0
41.4425 1007.0
41.4523 1037.0
41.4622 1003.0
41.472 982.0
41.4819 987.0
41.4917 1075.0
41.5016 1292.0
41.5114 1462.0
41.5212 1785.0
41.5311 2426.0
41.5409 3365.0
41.5508 5230.0
41.5606 9478.0
41.5705 22649.0
41.5803 45278.0
41.5902 58232.0
41.6 63270.0
41.6099 63786.0
41.6197 59887.0
41.6296 43863.0
41.6394 21300.0
41.6493 10469.0
41.6591 7132.0
41.669 7906.0
41.6788 13257.0
41.6887 23478.0
41.6985 29163.0
41.7084 31835.0
41.7182 31374.0
41.728 29031.0
41.7379 21199.0
41.7477 10948.0
41.7576 5354.0
41.7674 2980.0
41.7773 1987.0
41.7871 1594.0
41.797 1278.0
41.8068 1139.0
41.8167 957.0
41.8265 831.0
41.8364 728.0
41.8462 685.0
41.8561 666.0
41.8659 561.0
41.8758 546.0
41.8856 492.0
41.8955 454.0
41.9053 472.0
41.9152 426.0
41.925 414.0
41.9349 406.0
41.9447 426.0
41.9545 356.0
41.9644 364.0
41.9742 348.0
41.9841 315.0
41.9939 310.0
42.0038 313.0
42.0136 285.0
42.0235 230.0
42.0333 273.0
42.0432 269.0
42.053 255.0
42.0629 261.0
42.0727 256.0
42.0826 257.0
42.0924 212.0
42.1023 197.0
42.1121 224.0
42.122 213.0
42.1318 203.0
42.1417 202.0
42.1515 218.0
42.1613 170.0
42.1712 198.0
42.181 193.0
42.1909 186.0
42.2007 181.0
42.2106 187.0
42.2204 193.0
42.2303 190.0
42.2401 176.0
42.25 185.0
42.2598 192.0
42.2697 187.0
42.2795 181.0
42.2894 188.0
42.2992 188.0
42.3091 166.0
42.3189 169.0
42.3288 169.0
42.3386 161.0
42.3485 166.0
42.3583 156.0
42.3682 149.0
42.378 151.0
42.3878 149.0
42.3977 174.0
42.4075 159.0
42.4174 179.0
42.4272 153.0
42.4371 146.0
42.4469 173.0
42.4568 157.0
42.4666 156.0
42.4765 123.0
42.4863 146.0
42.4962 159.0
42.506 136.0
42.5159 146.0
42.5257 156.0
42.5356 148.0
42.5454 165.0
42.5553 149.0
42.5651 148.0
42.575 122.0
42.5848 142.0
42.5946 149.0
42.6045 139.0
42.6143 154.0
42.6242 147.0
42.634 151.0
42.6439 138.0
42.6537 133.0
42.6636 124.0
42.6734 141.0
42.6833 148.0
42.6931 120.0
42.703 119.0
42.7128 140.0
42.7227 132.0
42.7325 149.0
42.7424 142.0
42.7522 150.0
42.7621 153.0
42.7719 135.0
42.7818 139.0
42.7916 143.0
42.8014 133.0
42.8113 114.0
42.8211 127.0
42.831 119.0
42.8408 131.0
42.8507 104.0
42.8605 135.0
42.8704 148.0
42.8802 142.0
42.8901 138.0
42.8999 142.0
42.9098 141.0
42.9196 129.0
42.9295 158.0
42.9393 122.0
42.9492 148.0
42.959 155.0
42.9689 150.0
42.9787 150.0
42.9886 128.0
42.9984 137.0
43.0083 126.0
43.0181 124.0
43.0279 148.0
43.0378 140.0
43.0476 126.0
43.0575 135.0
43.0673 136.0
43.0772 143.0
43.087 126.0
43.0969 130.0
43.1067 120.0
43.1166 141.0
43.1264 125.0
43.1363 127.0
43.1461 126.0
43.156 134.0
43.1658 129.0
43.1757 127.0
43.1855 124.0
43.1954 128.0
43.2052 137.0
43.2151 127.0
43.2249 136.0
43.2347 126.0
43.2446 120.0
43.2544 128.0
43.2643 121.0
43.2741 117.0
43.284 147.0
43.2938 151.0
43.3037 106.0
43.3135 122.0
43.3234 122.0
43.3332 160.0
43.3431 123.0
43.3529 146.0
43.3628 151.0
43.3726 126.0
43.3825 144.0
43.3923 132.0
43.4022 127.0
43.412 119.0
43.4219 122.0
43.4317 123.0
43.4416 140.0
43.4514 129.0
43.4612 139.0
43.4711 137.0
43.4809 126.0
43.4908 130.0
43.5006 153.0
43.5105 125.0
43.5203 152.0
43.5302 126.0
43.54 127.0
43.5499 143.0
43.5597 135.0
43.5696 131.0
43.5794 128.0
43.5893 139.0
43.5991 123.0
43.609 132.0
43.6188 124.0
43.6287 102.0
43.6385 129.0
43.6484 126.0
43.6582 141.0
43.668 133.0
43.6779 126.0
43.6877 155.0
43.6976 140.0
43.7074 132.0
43.7173 134.0
43.7271 128.0
43.737 131.0
43.7468 127.0
43.7567 128.0
43.7665 124.0
43.7764 135.0
43.7862 111.0
43.7961 136.0
43.8059 131.0
43.8158 128.0
43.8256 128.0
43.8355 136.0
43.8453 138.0
43.8552 132.0
43.865 133.0
43.8749 121.0
43.8847 134.0
43.8945 140.0
43.9044 140.0
43.9142 163.0
43.9241 117.0
43.9339 154.0
43.9438 136.0
43.9536 147.0
43.9635 157.0
43.9733 157.0
43.9832 137.0
43.993 151.0
44.0029 148.0
44.0127 178.0
44.0226 153.0
44.0324 176.0
44.0423 167.0
44.0521 151.0
44.062 159.0
44.0718 126.0
44.0817 165.0
44.0915 173.0
44.1013 159.0
44.1112 138.0
44.121 161.0
44.1309 146.0
44.1407 174.0
44.1506 146.0
44.1604 167.0
44.1703 145.0
44.1801 171.0
44.19 155.0
44.1998 183.0
44.2097 180.0
44.2195 162.0
44.2294 209.0
44.2392 208.0
44.2491 185.0
44.2589 190.0
44.2688 217.0
44.2786 202.0
44.2885 219.0
44.2983 206.0
44.3081 217.0
44.318 220.0
44.3278 258.0
44.3377 242.0
44.3475 242.0
44.3574 259.0
44.3672 261.0
44.3771 259.0
44.3869 282.0
44.3968 275.0
44.4066 277.0
44.4165 267.0
44.4263 249.0
44.4362 281.0
44.446 287.0
44.4559 269.0
44.4657 241.0
44.4756 259.0
44.4854 233.0
44.4953 255.0
44.5051 247.0
44.515 243.0
44.5248 265.0
44.5346 223.0
44.5445 218.0
44.5543 227.0
44.5642 209.0
44.574 240.0
44.5839 200.0
44.5937 208.0
44.6036 218.0
44.6134 156.0
44.6233 163.0
44.6331 172.0
44.643 169.0
44.6528 172.0
44.6627 166.0
44.6725 156.0
44.6824 159.0
44.6922 162.0
44.7021 151.0
44.7119 151.0
44.7218 159.0
44.7316 161.0
44.7414 130.0
44.7513 164.0
44.7611 164.0
44.771 146.0
44.7808 151.0
44.7907 149.0
44.8005 155.0
44.8104 144.0
44.8202 139.0
44.8301 136.0
44.8399 158.0
44.8498 135.0
44.8596 129.0
44.8695 132.0
44.8793 158.0
44.8892 139.0
44.899 127.0
44.9089 143.0
44.9187 132.0
44.9286 116.0
44.9384 129.0
44.9483 139.0
44.9581 127.0
44.9679 119.0
44.9778 136.0
44.9876 134.0
44.9975 148.0