File: data/W6857a/XRD_2ThetaOmega/W6857a_(changed from r to a)_10-130deg.xy
10.0035 11.0
10.0872 21.0
10.1709 18.0
10.2546 26.0
10.3383 26.0
10.422 26.0
10.5057 20.0
10.5894 26.0
10.6731 27.0
10.7568 30.0
10.8405 15.0
10.9242 19.0
11.0079 19.0
11.0916 32.0
11.1753 18.0
11.259 18.0
11.3428 19.0
11.4265 20.0
11.5102 23.0
11.5939 24.0
11.6776 20.0
11.7613 22.0
11.845 22.0
11.9287 25.0
12.0124 20.0
12.0961 18.0
12.1798 17.0
12.2635 14.0
12.3472 22.0
12.4309 24.0
12.5146 12.0
12.5983 15.0
12.682 24.0
12.7657 21.0
12.8495 13.0
12.9332 15.0
13.0169 23.0
13.1006 22.0
13.1843 30.0
13.268 18.0
13.3517 14.0
13.4354 24.0
13.5191 24.0
13.6028 16.0
13.6865 24.0
13.7702 17.0
13.8539 21.0
13.9376 22.0
14.0213 17.0
14.105 12.0
14.1887 24.0
14.2724 16.0
14.3562 8.0
14.4399 14.0
14.5236 15.0
14.6073 13.0
14.691 18.0
14.7747 17.0
14.8584 22.0
14.9421 19.0
15.0258 16.0
15.1095 13.0
15.1932 20.0
15.2769 11.0
15.3606 17.0
15.4443 10.0
15.528 10.0
15.6117 17.0
15.6954 19.0
15.7791 10.0
15.8629 16.0
15.9466 24.0
16.0303 13.0
16.114 20.0
16.1977 21.0
16.2814 21.0
16.3651 19.0
16.4488 14.0
16.5325 15.0
16.6162 20.0
16.6999 13.0
16.7836 18.0
16.8673 14.0
16.951 22.0
17.0347 15.0
17.1184 15.0
17.2021 13.0
17.2858 14.0
17.3696 15.0
17.4533 25.0
17.537 22.0
17.6207 22.0
17.7044 22.0
17.7881 11.0
17.8718 16.0
17.9555 4.0
18.0392 23.0
18.1229 13.0
18.2066 11.0
18.2903 25.0
18.374 21.0
18.4577 16.0
18.5414 17.0
18.6251 20.0
18.7088 15.0
18.7925 16.0
18.8763 16.0
18.96 17.0
19.0437 20.0
19.1274 17.0
19.2111 15.0
19.2948 13.0
19.3785 14.0
19.4622 16.0
19.5459 14.0
19.6296 11.0
19.7133 16.0
19.797 18.0
19.8807 12.0
19.9644 15.0
20.0481 14.0
20.1318 8.0
20.2155 18.0
20.2992 12.0
20.383 15.0
20.4667 15.0
20.5504 20.0
20.6341 17.0
20.7178 14.0
20.8015 16.0
20.8852 21.0
20.9689 5.0
21.0526 14.0
21.1363 18.0
21.22 15.0
21.3037 14.0
21.3874 18.0
21.4711 14.0
21.5548 12.0
21.6385 15.0
21.7222 19.0
21.8059 17.0
21.8897 12.0
21.9734 19.0
22.0571 6.0
22.1408 13.0
22.2245 16.0
22.3082 10.0
22.3919 19.0
22.4756 6.0
22.5593 11.0
22.643 11.0
22.7267 12.0
22.8104 16.0
22.8941 12.0
22.9778 9.0
23.0615 24.0
23.1452 8.0
23.2289 14.0
23.3126 12.0
23.3964 14.0
23.4801 14.0
23.5638 18.0
23.6475 12.0
23.7312 11.0
23.8149 13.0
23.8986 10.0
23.9823 9.0
24.066 8.0
24.1497 12.0
24.2334 10.0
24.3171 15.0
24.4008 17.0
24.4845 9.0
24.5682 17.0
24.6519 11.0
24.7356 6.0
24.8193 10.0
24.9031 9.0
24.9868 17.0
25.0705 11.0
25.1542 14.0
25.2379 10.0
25.3216 13.0
25.4053 9.0
25.489 18.0
25.5727 11.0
25.6564 18.0
25.7401 12.0
25.8238 9.0
25.9075 9.0
25.9912 12.0
26.0749 16.0
26.1586 10.0
26.2423 15.0
26.326 12.0
26.4098 14.0
26.4935 13.0
26.5772 14.0
26.6609 19.0
26.7446 12.0
26.8283 15.0
26.912 10.0
26.9957 17.0
27.0794 7.0
27.1631 6.0
27.2468 8.0
27.3305 14.0
27.4142 13.0
27.4979 7.0
27.5816 15.0
27.6653 12.0
27.749 16.0
27.8327 10.0
27.9165 13.0
28.0002 15.0
28.0839 11.0
28.1676 7.0
28.2513 10.0
28.335 10.0
28.4187 15.0
28.5024 15.0
28.5861 14.0
28.6698 10.0
28.7535 11.0
28.8372 11.0
28.9209 10.0
29.0046 7.0
29.0883 15.0
29.172 9.0
29.2557 6.0
29.3394 9.0
29.4232 10.0
29.5069 12.0
29.5906 14.0
29.6743 11.0
29.758 12.0
29.8417 14.0
29.9254 6.0
30.0091 16.0
30.0928 2.0
30.1765 9.0
30.2602 12.0
30.3439 9.0
30.4276 9.0
30.5113 10.0
30.595 11.0
30.6787 14.0
30.7624 13.0
30.8461 12.0
30.9298 10.0
31.0136 6.0
31.0973 12.0
31.181 11.0
31.2647 8.0
31.3484 10.0
31.4321 8.0
31.5158 16.0
31.5995 11.0
31.6832 8.0
31.7669 13.0
31.8506 8.0
31.9343 9.0
32.018 12.0
32.1017 11.0
32.1854 16.0
32.2691 6.0
32.3528 8.0
32.4365 14.0
32.5203 11.0
32.604 7.0
32.6877 10.0
32.7714 10.0
32.8551 13.0
32.9388 13.0
33.0225 11.0
33.1062 10.0
33.1899 13.0
33.2736 15.0
33.3573 15.0
33.441 12.0
33.5247 14.0
33.6084 13.0
33.6921 10.0
33.7758 16.0
33.8595 19.0
33.9432 79.0
34.027 28.0
34.1107 18.0
34.1944 22.0
34.2781 15.0
34.3618 25.0
34.4455 24.0
34.5292 18.0
34.6129 19.0
34.6966 18.0
34.7803 26.0
34.864 41.0
34.9477 34.0
35.0314 31.0
35.1151 36.0
35.1988 53.0
35.2825 76.0
35.3662 210.0
35.4499 611.0
35.5337 1484.0
35.6174 1745.0
35.7011 1257.0
35.7848 692.0
35.8685 277.0
35.9522 145.0
36.0359 134.0
36.1196 205.0
36.2033 57.0
36.287 42.0
36.3707 60.0
36.4544 37.0
36.5381 37.0
36.6218 24.0
36.7055 31.0
36.7892 35.0
36.8729 31.0
36.9566 42.0
37.0404 44.0
37.1241 30.0
37.2078 48.0
37.2915 59.0
37.3752 92.0
37.4589 114.0
37.5426 354.0
37.6263 696.0
37.71 30802.0
37.7937 13872.0
37.8774 1135.0
37.9611 333.0
38.0448 188.0
38.1285 141.0
38.2122 90.0
38.2959 100.0
38.3796 88.0
38.4633 61.0
38.5471 74.0
38.6308 46.0
38.7145 63.0
38.7982 39.0
38.8819 45.0
38.9656 25.0
39.0493 27.0
39.133 23.0
39.2167 28.0
39.3004 22.0
39.3841 19.0
39.4678 15.0
39.5515 12.0
39.6352 20.0
39.7189 14.0
39.8026 15.0
39.8863 10.0
39.97 8.0
40.0538 10.0
40.1375 17.0
40.2212 11.0
40.3049 14.0
40.3886 9.0
40.4723 11.0
40.556 13.0
40.6397 19.0
40.7234 14.0
40.8071 15.0
40.8908 20.0
40.9745 18.0
41.0582 11.0
41.1419 16.0
41.2256 14.0
41.3093 15.0
41.393 18.0
41.4767 13.0
41.5605 7.0
41.6442 11.0
41.7279 11.0
41.8116 12.0
41.8953 17.0
41.979 11.0
42.0627 8.0
42.1464 10.0
42.2301 13.0
42.3138 17.0
42.3975 13.0
42.4812 12.0
42.5649 13.0
42.6486 15.0
42.7323 14.0
42.816 5.0
42.8997 9.0
42.9834 16.0
43.0672 17.0
43.1509 10.0
43.2346 14.0
43.3183 11.0
43.402 17.0
43.4857 9.0
43.5694 12.0
43.6531 10.0
43.7368 18.0
43.8205 10.0
43.9042 13.0
43.9879 13.0
44.0716 14.0
44.1553 17.0
44.239 25.0
44.3227 17.0
44.4064 15.0
44.4901 23.0
44.5739 20.0
44.6576 11.0
44.7413 17.0
44.825 10.0
44.9087 11.0
44.9924 7.0
45.0761 11.0
45.1598 14.0
45.2435 11.0
45.3272 8.0
45.4109 7.0
45.4946 16.0
45.5783 15.0
45.662 13.0
45.7457 10.0
45.8294 10.0
45.9131 10.0
45.9968 13.0
46.0806 8.0
46.1643 7.0
46.248 12.0
46.3317 7.0
46.4154 11.0
46.4991 12.0
46.5828 8.0
46.6665 12.0
46.7502 14.0
46.8339 7.0
46.9176 15.0
47.0013 6.0
47.085 11.0
47.1687 13.0
47.2524 13.0
47.3361 18.0
47.4198 10.0
47.5035 15.0
47.5873 13.0
47.671 14.0
47.7547 11.0
47.8384 12.0
47.9221 8.0
48.0058 15.0
48.0895 10.0
48.1732 19.0
48.2569 21.0
48.3406 9.0
48.4243 14.0
48.508 10.0
48.5917 12.0
48.6754 10.0
48.7591 11.0
48.8428 15.0
48.9265 7.0
49.0102 7.0
49.094 10.0
49.1777 7.0
49.2614 10.0
49.3451 9.0
49.4288 14.0
49.5125 13.0
49.5962 12.0
49.6799 9.0
49.7636 14.0
49.8473 10.0
49.931 13.0
50.0147 11.0
50.0984 14.0
50.1821 12.0
50.2658 8.0
50.3495 6.0
50.4332 16.0
50.5169 16.0
50.6007 11.0
50.6844 14.0
50.7681 4.0
50.8518 8.0
50.9355 8.0
51.0192 10.0
51.1029 12.0
51.1866 13.0
51.2703 8.0
51.354 15.0
51.4377 14.0
51.5214 10.0
51.6051 8.0
51.6888 13.0
51.7725 7.0
51.8562 13.0
51.9399 14.0
52.0236 11.0
52.1074 6.0
52.1911 13.0
52.2748 12.0
52.3585 15.0
52.4422 13.0
52.5259 17.0
52.6096 22.0
52.6933 12.0
52.777 8.0
52.8607 17.0
52.9444 17.0
53.0281 10.0
53.1118 13.0
53.1955 10.0
53.2792 14.0
53.3629 12.0
53.4466 12.0
53.5303 13.0
53.6141 10.0
53.6978 7.0
53.7815 20.0
53.8652 11.0
53.9489 5.0
54.0326 10.0
54.1163 8.0
54.2 10.0
54.2837 12.0
54.3674 14.0
54.4511 8.0
54.5348 8.0
54.6185 9.0
54.7022 10.0
54.7859 11.0
54.8696 14.0
54.9533 6.0
55.037 16.0
55.1208 10.0
55.2045 13.0
55.2882 6.0
55.3719 9.0
55.4556 5.0
55.5393 15.0
55.623 5.0
55.7067 13.0
55.7904 8.0
55.8741 9.0
55.9578 12.0
56.0415 9.0
56.1252 6.0
56.2089 8.0
56.2926 9.0
56.3763 11.0
56.46 10.0
56.5437 10.0
56.6275 7.0
56.7112 7.0
56.7949 7.0
56.8786 10.0
56.9623 13.0
57.046 14.0
57.1297 16.0
57.2134 11.0
57.2971 5.0
57.3808 14.0
57.4645 8.0
57.5482 9.0
57.6319 10.0
57.7156 13.0
57.7993 9.0
57.883 11.0
57.9667 9.0
58.0504 14.0
58.1342 15.0
58.2179 12.0
58.3016 8.0
58.3853 14.0
58.469 5.0
58.5527 9.0
58.6364 12.0
58.7201 11.0
58.8038 16.0
58.8875 16.0
58.9712 10.0
59.0549 4.0
59.1386 9.0
59.2223 18.0
59.306 11.0
59.3897 12.0
59.4734 9.0
59.5571 7.0
59.6409 12.0
59.7246 10.0
59.8083 18.0
59.892 16.0
59.9757 13.0
60.0594 11.0
60.1431 12.0
60.2268 15.0
60.3105 12.0
60.3942 11.0
60.4779 12.0
60.5616 14.0
60.6453 8.0
60.729 15.0
60.8127 8.0
60.8964 12.0
60.9801 8.0
61.0638 10.0
61.1476 11.0
61.2313 16.0
61.315 16.0
61.3987 11.0
61.4824 10.0
61.5661 10.0
61.6498 8.0
61.7335 9.0
61.8172 13.0
61.9009 18.0
61.9846 8.0
62.0683 11.0
62.152 11.0
62.2357 10.0
62.3194 7.0
62.4031 13.0
62.4868 12.0
62.5705 17.0
62.6543 6.0
62.738 12.0
62.8217 15.0
62.9054 12.0
62.9891 10.0
63.0728 11.0
63.1565 11.0
63.2402 17.0
63.3239 8.0
63.4076 16.0
63.4913 15.0
63.575 11.0
63.6587 8.0
63.7424 9.0
63.8261 16.0
63.9098 6.0
63.9935 13.0
64.0772 12.0
64.161 15.0
64.2447 9.0
64.3284 12.0
64.4121 10.0
64.4958 7.0
64.5795 15.0
64.6632 9.0
64.7469 10.0
64.8306 9.0
64.9143 11.0
64.998 9.0
65.0817 25.0
65.1654 20.0
65.2491 10.0
65.3328 13.0
65.4165 11.0
65.5002 10.0
65.5839 5.0
65.6677 7.0
65.7514 15.0
65.8351 14.0
65.9188 13.0
66.0025 12.0
66.0862 13.0
66.1699 16.0
66.2536 6.0
66.3373 14.0
66.421 14.0
66.5047 14.0
66.5884 19.0
66.6721 9.0
66.7558 6.0
66.8395 15.0
66.9232 13.0
67.0069 18.0
67.0906 10.0
67.1744 10.0
67.2581 6.0
67.3418 10.0
67.4255 10.0
67.5092 10.0
67.5929 9.0
67.6766 14.0
67.7603 7.0
67.844 6.0
67.9277 11.0
68.0114 18.0
68.0951 19.0
68.1788 16.0
68.2625 9.0
68.3462 12.0
68.4299 10.0
68.5136 12.0
68.5973 11.0
68.6811 8.0
68.7648 19.0
68.8485 5.0
68.9322 16.0
69.0159 13.0
69.0996 8.0
69.1833 13.0
69.267 6.0
69.3507 8.0
69.4344 9.0
69.5181 8.0
69.6018 11.0
69.6855 13.0
69.7692 8.0
69.8529 13.0
69.9366 14.0
70.0203 8.0
70.104 7.0
70.1878 16.0
70.2715 9.0
70.3552 9.0
70.4389 8.0
70.5226 10.0
70.6063 4.0
70.69 9.0
70.7737 7.0
70.8574 12.0
70.9411 13.0
71.0248 17.0
71.1085 11.0
71.1922 8.0
71.2759 11.0
71.3596 15.0
71.4433 4.0
71.527 18.0
71.6107 30.0
71.6945 23.0
71.7782 13.0
71.8619 13.0
71.9456 15.0
72.0293 14.0
72.113 17.0
72.1967 18.0
72.2804 8.0
72.3641 11.0
72.4478 8.0
72.5315 8.0
72.6152 10.0
72.6989 12.0
72.7826 9.0
72.8663 14.0
72.95 8.0
73.0337 14.0
73.1174 16.0
73.2012 14.0
73.2849 8.0
73.3686 12.0
73.4523 17.0
73.536 13.0
73.6197 14.0
73.7034 14.0
73.7871 12.0
73.8708 9.0
73.9545 9.0
74.0382 10.0
74.1219 14.0
74.2056 7.0
74.2893 10.0
74.373 17.0
74.4567 7.0
74.5404 6.0
74.6241 18.0
74.7079 18.0
74.7916 16.0
74.8753 20.0
74.959 24.0
75.0427 23.0
75.1264 42.0
75.2101 50.0
75.2938 59.0
75.3775 74.0
75.4612 70.0
75.5449 61.0
75.6286 70.0
75.7123 65.0
75.796 44.0
75.8797 49.0
75.9634 42.0
76.0471 33.0
76.1308 22.0
76.2146 24.0
76.2983 22.0
76.382 13.0
76.4657 24.0
76.5494 15.0
76.6331 46.0
76.7168 28.0
76.8005 20.0
76.8842 10.0
76.9679 19.0
77.0516 16.0
77.1353 18.0
77.219 18.0
77.3027 21.0
77.3864 10.0
77.4701 13.0
77.5538 13.0
77.6375 20.0
77.7213 14.0
77.805 12.0
77.8887 17.0
77.9724 14.0
78.0561 13.0
78.1398 14.0
78.2235 15.0
78.3072 6.0
78.3909 14.0
78.4746 15.0
78.5583 20.0
78.642 15.0
78.7257 17.0
78.8094 17.0
78.8931 14.0
78.9768 18.0
79.0605 11.0
79.1442 17.0
79.228 14.0
79.3117 15.0
79.3954 12.0
79.4791 20.0
79.5628 18.0
79.6465 13.0
79.7302 25.0
79.8139 21.0
79.8976 17.0
79.9813 27.0
80.065 26.0
80.1487 40.0
80.2324 74.0
80.3161 64.0
80.3998 56.0
80.4835 112.0
80.5672 605.0
80.6509 8666.0
80.7347 773.0
80.8184 554.0
80.9021 4558.0
80.9858 383.0
81.0695 115.0
81.1532 69.0
81.2369 55.0
81.3206 48.0
81.4043 46.0
81.488 41.0
81.5717 35.0
81.6554 24.0
81.7391 25.0
81.8228 32.0
81.9065 27.0
81.9902 23.0
82.0739 28.0
82.1576 25.0
82.2414 25.0
82.3251 18.0
82.4088 17.0
82.4925 21.0
82.5762 15.0
82.6599 24.0
82.7436 14.0
82.8273 27.0
82.911 19.0
82.9947 20.0
83.0784 13.0
83.1621 16.0
83.2458 22.0
83.3295 17.0
83.4132 12.0
83.4969 16.0
83.5806 19.0
83.6643 10.0
83.7481 10.0
83.8318 19.0
83.9155 20.0
83.9992 11.0
84.0829 19.0
84.1666 20.0
84.2503 23.0
84.334 14.0
84.4177 9.0
84.5014 18.0
84.5851 22.0
84.6688 10.0
84.7525 12.0
84.8362 18.0
84.9199 17.0
85.0036 16.0
85.0873 10.0
85.171 20.0
85.2548 12.0
85.3385 13.0
85.4222 12.0
85.5059 3.0
85.5896 15.0
85.6733 12.0
85.757 12.0
85.8407 10.0
85.9244 15.0
86.0081 12.0
86.0918 16.0
86.1755 8.0
86.2592 12.0
86.3429 17.0
86.4266 13.0
86.5103 4.0
86.594 6.0
86.6777 11.0
86.7615 6.0
86.8452 13.0
86.9289 7.0
87.0126 15.0
87.0963 13.0
87.18 8.0
87.2637 26.0
87.3474 9.0
87.4311 13.0
87.5148 10.0
87.5985 15.0
87.6822 7.0
87.7659 17.0
87.8496 18.0
87.9333 14.0
88.017 14.0
88.1007 7.0
88.1844 7.0
88.2682 14.0
88.3519 14.0
88.4356 10.0
88.5193 16.0
88.603 10.0
88.6867 8.0
88.7704 12.0
88.8541 8.0
88.9378 13.0
89.0215 7.0
89.1052 9.0
89.1889 7.0
89.2726 15.0
89.3563 9.0
89.44 12.0
89.5237 16.0
89.6074 8.0
89.6911 19.0
89.7749 19.0
89.8586 15.0
89.9423 13.0
90.026 11.0
90.1097 14.0
90.1934 16.0
90.2771 14.0
90.3608 10.0
90.4445 11.0
90.5282 10.0
90.6119 14.0
90.6956 10.0
90.7793 12.0
90.863 16.0
90.9467 16.0
91.0304 12.0
91.1141 14.0
91.1978 11.0
91.2816 10.0
91.3653 9.0
91.449 13.0
91.5327 7.0
91.6164 9.0
91.7001 9.0
91.7838 11.0
91.8675 12.0
91.9512 7.0
92.0349 10.0
92.1186 13.0
92.2023 15.0
92.286 16.0
92.3697 6.0
92.4534 17.0
92.5371 7.0
92.6208 17.0
92.7045 15.0
92.7883 6.0
92.872 11.0
92.9557 12.0
93.0394 9.0
93.1231 13.0
93.2068 13.0
93.2905 12.0
93.3742 11.0
93.4579 13.0
93.5416 8.0
93.6253 10.0
93.709 15.0
93.7927 12.0
93.8764 8.0
93.9601 11.0
94.0438 12.0
94.1275 12.0
94.2112 12.0
94.295 5.0
94.3787 15.0
94.4624 6.0
94.5461 16.0
94.6298 15.0
94.7135 9.0
94.7972 14.0
94.8809 11.0
94.9646 7.0
95.0483 12.0
95.132 15.0
95.2157 12.0
95.2994 9.0
95.3831 10.0
95.4668 8.0
95.5505 13.0
95.6342 12.0
95.7179 5.0
95.8017 10.0
95.8854 8.0
95.9691 16.0
96.0528 13.0
96.1365 9.0
96.2202 9.0
96.3039 7.0
96.3876 9.0
96.4713 15.0
96.555 8.0
96.6387 7.0
96.7224 12.0
96.8061 15.0
96.8898 14.0
96.9735 13.0
97.0572 14.0
97.1409 11.0
97.2246 12.0
97.3084 12.0
97.3921 11.0
97.4758 16.0
97.5595 13.0
97.6432 12.0
97.7269 7.0
97.8106 9.0
97.8943 12.0
97.978 16.0
98.0617 15.0
98.1454 21.0
98.2291 9.0
98.3128 12.0
98.3965 24.0
98.4802 15.0
98.5639 13.0
98.6476 16.0
98.7313 5.0
98.8151 14.0
98.8988 9.0
98.9825 11.0
99.0662 20.0
99.1499 12.0
99.2336 14.0
99.3173 19.0
99.401 13.0
99.4847 15.0
99.5684 9.0
99.6521 10.0
99.7358 9.0
99.8195 7.0
99.9032 13.0
99.9869 18.0
100.071 18.0
100.154 9.0
100.238 10.0
100.322 12.0
100.405 11.0
100.489 8.0
100.573 6.0
100.657 12.0
100.74 7.0
100.824 10.0
100.908 14.0
100.991 7.0
101.075 14.0
101.159 15.0
101.243 16.0
101.326 7.0
101.41 15.0
101.494 12.0
101.577 8.0
101.661 11.0
101.745 6.0
101.828 10.0
101.912 8.0
101.996 14.0
102.08 13.0
102.163 11.0
102.247 15.0
102.331 20.0
102.414 9.0
102.498 10.0
102.582 8.0
102.666 5.0
102.749 14.0
102.833 10.0
102.917 11.0
103 13.0
103.084 11.0
103.168 10.0
103.251 19.0
103.335 9.0
103.419 7.0
103.503 11.0
103.586 10.0
103.67 9.0
103.754 14.0
103.837 9.0
103.921 9.0
104.005 17.0
104.089 15.0
104.172 15.0
104.256 10.0
104.34 12.0
104.423 9.0
104.507 18.0
104.591 12.0
104.674 15.0
104.758 11.0
104.842 9.0
104.926 14.0
105.009 10.0
105.093 12.0
105.177 10.0
105.26 17.0
105.344 9.0
105.428 15.0
105.511 13.0
105.595 15.0
105.679 11.0
105.763 9.0
105.846 10.0
105.93 8.0
106.014 5.0
106.097 11.0
106.181 14.0
106.265 15.0
106.349 12.0
106.432 3.0
106.516 8.0
106.6 11.0
106.683 11.0
106.767 14.0
106.851 15.0
106.934 21.0
107.018 16.0
107.102 14.0
107.186 19.0
107.269 9.0
107.353 11.0
107.437 10.0
107.52 12.0
107.604 14.0
107.688 7.0
107.772 17.0
107.855 17.0
107.939 15.0
108.023 10.0
108.106 15.0
108.19 9.0
108.274 17.0
108.357 9.0
108.441 12.0
108.525 13.0
108.609 18.0
108.692 15.0
108.776 12.0
108.86 17.0
108.943 10.0
109.027 8.0
109.111 17.0
109.195 13.0
109.278 15.0
109.362 15.0
109.446 13.0
109.529 11.0
109.613 13.0
109.697 17.0
109.78 14.0
109.864 11.0
109.948 11.0
110.032 11.0
110.115 14.0
110.199 11.0
110.283 2.0
110.366 11.0
110.45 15.0
110.534 14.0
110.618 15.0
110.701 12.0
110.785 9.0
110.869 12.0
110.952 12.0
111.036 13.0
111.12 13.0
111.203 8.0
111.287 9.0
111.371 19.0
111.455 5.0
111.538 9.0
111.622 11.0
111.706 8.0
111.789 9.0
111.873 14.0
111.957 14.0
112.041 9.0
112.124 12.0
112.208 8.0
112.292 11.0
112.375 11.0
112.459 13.0
112.543 13.0
112.626 10.0
112.71 10.0
112.794 11.0
112.878 11.0
112.961 11.0
113.045 7.0
113.129 10.0
113.212 11.0
113.296 10.0
113.38 12.0
113.464 10.0
113.547 16.0
113.631 13.0
113.715 16.0
113.798 11.0
113.882 11.0
113.966 12.0
114.049 12.0
114.133 10.0
114.217 8.0
114.301 16.0
114.384 7.0
114.468 3.0
114.552 14.0
114.635 16.0
114.719 11.0
114.803 8.0
114.887 12.0
114.97 15.0
115.054 16.0
115.138 14.0
115.221 13.0
115.305 21.0
115.389 14.0
115.472 16.0
115.556 13.0
115.64 11.0
115.724 11.0
115.807 11.0
115.891 11.0
115.975 19.0
116.058 18.0
116.142 15.0
116.226 15.0
116.31 8.0
116.393 14.0
116.477 8.0
116.561 11.0
116.644 15.0
116.728 10.0
116.812 16.0
116.895 15.0
116.979 14.0
117.063 16.0
117.147 13.0
117.23 7.0
117.314 9.0
117.398 15.0
117.481 10.0
117.565 7.0
117.649 10.0
117.733 19.0
117.816 14.0
117.9 10.0
117.984 8.0
118.067 9.0
118.151 10.0
118.235 12.0
118.318 17.0
118.402 18.0
118.486 8.0
118.57 13.0
118.653 12.0
118.737 5.0
118.821 13.0
118.904 15.0
118.988 14.0
119.072 12.0
119.156 9.0
119.239 17.0
119.323 16.0
119.407 15.0
119.49 10.0
119.574 11.0
119.658 16.0
119.741 13.0
119.825 10.0
119.909 22.0
119.993 11.0
120.076 16.0
120.16 14.0
120.244 7.0
120.327 15.0
120.411 12.0
120.495 9.0
120.578 15.0
120.662 12.0
120.746 11.0
120.83 15.0
120.913 14.0
120.997 9.0
121.081 11.0
121.164 12.0
121.248 10.0
121.332 10.0
121.416 16.0
121.499 9.0
121.583 10.0
121.667 10.0
121.75 16.0
121.834 12.0
121.918 11.0
122.001 15.0
122.085 7.0
122.169 18.0
122.253 15.0
122.336 10.0
122.42 12.0
122.504 14.0
122.587 15.0
122.671 22.0
122.755 21.0
122.839 24.0
122.922 18.0
123.006 14.0
123.09 14.0
123.173 10.0
123.257 18.0
123.341 11.0
123.424 14.0
123.508 20.0
123.592 14.0
123.676 8.0
123.759 20.0
123.843 16.0
123.927 15.0
124.01 17.0
124.094 18.0
124.178 11.0
124.262 7.0
124.345 16.0
124.429 10.0
124.513 16.0
124.596 12.0
124.68 17.0
124.764 11.0
124.847 17.0
124.931 16.0
125.015 11.0
125.099 15.0
125.182 10.0
125.266 18.0
125.35 15.0
125.433 21.0
125.517 13.0
125.601 14.0
125.685 10.0
125.768 12.0
125.852 10.0
125.936 12.0
126.019 17.0
126.103 11.0
126.187 9.0
126.27 16.0
126.354 11.0
126.438 15.0
126.522 18.0
126.605 14.0
126.689 11.0
126.773 14.0
126.856 14.0
126.94 19.0
127.024 16.0
127.108 11.0
127.191 10.0
127.275 13.0
127.359 17.0
127.442 9.0
127.526 13.0
127.61 15.0
127.693 8.0
127.777 12.0
127.861 8.0
127.945 13.0
128.028 15.0
128.112 13.0
128.196 8.0
128.279 12.0
128.363 18.0
128.447 16.0
128.531 17.0
128.614 16.0
128.698 10.0
128.782 12.0
128.865 10.0
128.949 7.0
129.033 16.0
129.116 15.0
129.2 11.0
129.284 18.0
129.368 13.0
129.451 9.0
129.535 20.0
129.619 10.0
129.702 16.0
129.786 6.0
129.87 9.0
129.954 21.0
129.998 21.0