File: data/W6726/XRD_Omega/W6726_Cr2O3_scan_omega_2deg_step_0.002deg0_5.xy
31.70750 2311.0
31.70950 2390.0
31.71150 2438.0
31.71350 2328.0
31.71550 2380.0
31.71750 2316.0
31.71950 2361.0
31.72150 2289.0
31.72350 2378.0
31.72550 2523.0
31.72750 2542.0
31.72950 2552.0
31.73150 2500.0
31.73350 2510.0
31.73550 2506.0
31.73750 2501.0
31.73950 2524.0
31.74150 2557.0
31.74350 2576.0
31.74550 2560.0
31.74750 2602.0
31.74950 2582.0
31.75150 2618.0
31.75350 2728.0
31.75550 2794.0
31.75750 2673.0
31.75950 2716.0
31.76150 2774.0
31.76350 2792.0
31.76550 2838.0
31.76750 2761.0
31.76950 2731.0
31.77150 2829.0
31.77350 2889.0
31.77550 2871.0
31.77750 2821.0
31.77950 2888.0
31.78150 2891.0
31.78350 2942.0
31.78550 2836.0
31.78750 2897.0
31.78950 2960.0
31.79150 3087.0
31.79350 3078.0
31.79550 2979.0
31.79750 3017.0
31.79950 2998.0
31.80150 2983.0
31.80350 3059.0
31.80550 3108.0
31.80750 3109.0
31.80950 3176.0
31.81150 3182.0
31.81350 3208.0
31.81550 3194.0
31.81750 3231.0
31.81950 3244.0
31.82150 3306.0
31.82350 3262.0
31.82550 3355.0
31.82750 3275.0
31.82950 3278.0
31.83150 3255.0
31.83350 3401.0
31.83550 3409.0
31.83750 3508.0
31.83950 3442.0
31.84150 3526.0
31.84350 3450.0
31.84550 3473.0
31.84750 3564.0
31.84950 3460.0
31.85150 3404.0
31.85350 3590.0
31.85550 3600.0
31.85750 3623.0
31.85950 3594.0
31.86150 3728.0
31.86350 3661.0
31.86550 3795.0
31.86750 3733.0
31.86950 3834.0
31.87150 3889.0
31.87350 3867.0
31.87550 3776.0
31.87750 3909.0
31.87950 3860.0
31.88150 3899.0
31.88350 3818.0
31.88550 3949.0
31.88750 3941.0
31.88950 4195.0
31.89150 4044.0
31.89350 4003.0
31.89550 4160.0
31.89750 4018.0
31.89950 4139.0
31.90150 4078.0
31.90350 4244.0
31.90550 4125.0
31.90750 4205.0
31.90950 4294.0
31.91150 4275.0
31.91350 4233.0
31.91550 4194.0
31.91750 4159.0
31.91950 4370.0
31.92150 4380.0
31.92350 4295.0
31.92550 4453.0
31.92750 4482.0
31.92950 4312.0
31.93150 4262.0
31.93350 4557.0
31.93550 4463.0
31.93750 4436.0
31.93950 4672.0
31.94150 4620.0
31.94350 4606.0
31.94550 4598.0
31.94750 4726.0
31.94950 4807.0
31.95150 4817.0
31.95350 4815.0
31.95550 4727.0
31.95750 4862.0
31.95950 4816.0
31.96150 4968.0
31.96350 4944.0
31.96550 5012.0
31.96750 5017.0
31.96950 5019.0
31.97150 4974.0
31.97350 5092.0
31.97550 4920.0
31.97750 5242.0
31.97950 5145.0
31.98150 5295.0
31.98350 5074.0
31.98550 5198.0
31.98750 5206.0
31.98950 5129.0
31.99150 5382.0
31.99350 5264.0
31.99550 5450.0
31.99750 5550.0
31.99950 5627.0
32.00150 5540.0
32.00350 5520.0
32.00550 5467.0
32.00750 5532.0
32.00950 5603.0
32.01150 5680.0
32.01350 5663.0
32.01550 5642.0
32.01750 5684.0
32.01950 5755.0
32.02150 5757.0
32.02350 5837.0
32.02550 5903.0
32.02750 5847.0
32.02950 5971.0
32.03150 6043.0
32.03350 6040.0
32.03550 6125.0
32.03750 6217.0
32.03950 6007.0
32.04150 6090.0
32.04350 6117.0
32.04550 6191.0
32.04750 6304.0
32.04950 6352.0
32.05150 6546.0
32.05350 6352.0
32.05550 6495.0
32.05750 6364.0
32.05950 6428.0
32.06150 6447.0
32.06350 6467.0
32.06550 6384.0
32.06750 6457.0
32.06950 6602.0
32.07150 6803.0
32.07350 6690.0
32.07550 6684.0
32.07750 6606.0
32.07950 6753.0
32.08150 6804.0
32.08350 6745.0
32.08550 6892.0
32.08750 6913.0
32.08950 6950.0
32.09150 6954.0
32.09350 6913.0
32.09550 7215.0
32.09750 7104.0
32.09950 7041.0
32.10150 7331.0
32.10350 7207.0
32.10550 7233.0
32.10750 7343.0
32.10950 7495.0
32.11150 7394.0
32.11350 7475.0
32.11550 7505.0
32.11750 7478.0
32.11950 7743.0
32.12150 7561.0
32.12350 7539.0
32.12550 7541.0
32.12750 7857.0
32.12950 7639.0
32.13150 7862.0
32.13350 7842.0
32.13550 7959.0
32.13750 7819.0
32.13950 8105.0
32.14150 8154.0
32.14350 8350.0
32.14550 8197.0
32.14750 8090.0
32.14950 8137.0
32.15150 7996.0
32.15350 8422.0
32.15550 8356.0
32.15750 8285.0
32.15950 8264.0
32.16150 8506.0
32.16350 8413.0
32.16550 8509.0
32.16750 8581.0
32.16950 8687.0
32.17150 8471.0
32.17350 8877.0
32.17550 8880.0
32.17750 8583.0
32.17950 8753.0
32.18150 8726.0
32.18350 8912.0
32.18550 8770.0
32.18750 9026.0
32.18950 9186.0
32.19150 9057.0
32.19350 9277.0
32.19550 9182.0
32.19750 9001.0
32.19950 9408.0
32.20150 9292.0
32.20350 9276.0
32.20550 9518.0
32.20750 9522.0
32.20950 9442.0
32.21150 9507.0
32.21350 9609.0
32.21550 9813.0
32.21750 9669.0
32.21950 9889.0
32.22150 9905.0
32.22350 9771.0
32.22550 9916.0
32.22750 9914.0
32.22950 9855.0
32.23150 9877.0
32.23350 9974.0
32.23550 10086.0
32.23750 10102.0
32.23950 10094.0
32.24150 10248.0
32.24350 10442.0
32.24550 10255.0
32.24750 10519.0
32.24950 10389.0
32.25150 10436.0
32.25350 10605.0
32.25550 10750.0
32.25750 10757.0
32.25950 10748.0
32.26150 10899.0
32.26350 10895.0
32.26550 10963.0
32.26750 11027.0
32.26950 10836.0
32.27150 10830.0
32.27350 11178.0
32.27550 11182.0
32.27750 11124.0
32.27950 11223.0
32.28150 11467.0
32.28350 11380.0
32.28550 11596.0
32.28750 11593.0
32.28950 11671.0
32.29150 11691.0
32.29350 11625.0
32.29550 11568.0
32.29750 11833.0
32.29950 11952.0
32.30150 11935.0
32.30350 11779.0
32.30550 11696.0
32.30750 11821.0
32.30950 11842.0
32.31150 12103.0
32.31350 12086.0
32.31550 12293.0
32.31750 12128.0
32.31950 12205.0
32.32150 12217.0
32.32350 12466.0
32.32550 12362.0
32.32750 12356.0
32.32950 12451.0
32.33150 12570.0
32.33350 12550.0
32.33550 12692.0
32.33750 12598.0
32.33950 12512.0
32.34150 12772.0
32.34350 12905.0
32.34550 12935.0
32.34750 12825.0
32.34950 12962.0
32.35150 12940.0
32.35350 13150.0
32.35550 13215.0
32.35750 13149.0
32.35950 13244.0
32.36150 13515.0
32.36350 13211.0
32.36550 13347.0
32.36750 13425.0
32.36950 13409.0
32.37150 13440.0
32.37350 13512.0
32.37550 13705.0
32.37750 13497.0
32.37950 13643.0
32.38150 13540.0
32.38350 13663.0
32.38550 13788.0
32.38750 13791.0
32.38950 13787.0
32.39150 13975.0
32.39350 14213.0
32.39550 13951.0
32.39750 14251.0
32.39950 14189.0
32.40150 14012.0
32.40350 14283.0
32.40550 14319.0
32.40750 14130.0
32.40950 14123.0
32.41150 14568.0
32.41350 14447.0
32.41550 14551.0
32.41750 14507.0
32.41950 14493.0
32.42150 14608.0
32.42350 14526.0
32.42550 15031.0
32.42750 14749.0
32.42950 14890.0
32.43150 14906.0
32.43350 15099.0
32.43550 15078.0
32.43750 15080.0
32.43950 14864.0
32.44150 15254.0
32.44350 15175.0
32.44550 15049.0
32.44750 15131.0
32.44950 15368.0
32.45150 15256.0
32.45350 15348.0
32.45550 15400.0
32.45750 15575.0
32.45950 15629.0
32.46150 15947.0
32.46350 15646.0
32.46550 15823.0
32.46750 15555.0
32.46950 15556.0
32.47150 15881.0
32.47350 15759.0
32.47550 15655.0
32.47750 15815.0
32.47950 16199.0
32.48150 16277.0
32.48350 16100.0
32.48550 16148.0
32.48750 16131.0
32.48950 16296.0
32.49150 16110.0
32.49350 16142.0
32.49550 16580.0
32.49750 16491.0
32.49950 16302.0
32.50150 16207.0
32.50350 16628.0
32.50550 16749.0
32.50750 16646.0
32.50950 16671.0
32.51150 16719.0
32.51350 16776.0
32.51550 16938.0
32.51750 16921.0
32.51950 17067.0
32.52150 17060.0
32.52350 17062.0
32.52550 17105.0
32.52750 17020.0
32.52950 17260.0
32.53150 17156.0
32.53350 17237.0
32.53550 17296.0
32.53750 17307.0
32.53950 17329.0
32.54150 17614.0
32.54350 17479.0
32.54550 17375.0
32.54750 17410.0
32.54950 17589.0
32.55150 17680.0
32.55350 17516.0
32.55550 17592.0
32.55750 17723.0
32.55950 17644.0
32.56150 17713.0
32.56350 17600.0
32.56550 17748.0
32.56750 17795.0
32.56950 17935.0
32.57150 18169.0
32.57350 18098.0
32.57550 18133.0
32.57750 17921.0
32.57950 17843.0
32.58150 18150.0
32.58350 18233.0
32.58550 17955.0
32.58750 18102.0
32.58950 18438.0
32.59150 18263.0
32.59350 18613.0
32.59550 18528.0
32.59750 18178.0
32.59950 18449.0
32.60150 18606.0
32.60350 18294.0
32.60550 18457.0
32.60750 18536.0
32.60950 18477.0
32.61150 18344.0
32.61350 18448.0
32.61550 18435.0
32.61750 18490.0
32.61950 18681.0
32.62150 18649.0
32.62350 18506.0
32.62550 18715.0
32.62750 18449.0
32.62950 18451.0
32.63150 18763.0
32.63350 18841.0
32.63550 18891.0
32.63750 18755.0
32.63950 19064.0
32.64150 18727.0
32.64350 18786.0
32.64550 18716.0
32.64750 18818.0
32.64950 18671.0
32.65150 18798.0
32.65350 18993.0
32.65550 18796.0
32.65750 19137.0
32.65950 18656.0
32.66150 18736.0
32.66350 18873.0
32.66550 18991.0
32.66750 18746.0
32.66950 18908.0
32.67150 19008.0
32.67350 19187.0
32.67550 19285.0
32.67750 19016.0
32.67950 19013.0
32.68150 19078.0
32.68350 18950.0
32.68550 18774.0
32.68750 19078.0
32.68950 18923.0
32.69150 19047.0
32.69350 18838.0
32.69550 19211.0
32.69750 19135.0
32.69950 18949.0
32.70150 19058.0
32.70350 18988.0
32.70550 19171.0
32.70750 19180.0
32.70950 19200.0
32.71150 19079.0
32.71350 18962.0
32.71550 19099.0
32.71750 19119.0
32.71950 19266.0
32.72150 19413.0
32.72350 19134.0
32.72550 19129.0
32.72750 19217.0
32.72950 19034.0
32.73150 18906.0
32.73350 18906.0
32.73550 19040.0
32.73750 18631.0
32.73950 18644.0
32.74150 18716.0
32.74350 18704.0
32.74550 18816.0
32.74750 18565.0
32.74950 19016.0
32.75150 18902.0
32.75350 18729.0
32.75550 18675.0
32.75750 18544.0
32.75950 18824.0
32.76150 18650.0
32.76350 18446.0
32.76550 18693.0
32.76750 18538.0
32.76950 18841.0
32.77150 18675.0
32.77350 18763.0
32.77550 18570.0
32.77750 18974.0
32.77950 18722.0
32.78150 18837.0
32.78350 18605.0
32.78550 18421.0
32.78750 18902.0
32.78950 18405.0
32.79150 18358.0
32.79350 18667.0
32.79550 18554.0
32.79750 18395.0
32.79950 18208.0
32.80150 18340.0
32.80350 18119.0
32.80550 18034.0
32.80750 18049.0
32.80950 17933.0
32.81150 17605.0
32.81350 18070.0
32.81550 18143.0
32.81750 17960.0
32.81950 18070.0
32.82150 18105.0
32.82350 17999.0
32.82550 17875.0
32.82750 18047.0
32.82950 17853.0
32.83150 17687.0
32.83350 17811.0
32.83550 17729.0
32.83750 17638.0
32.83950 17898.0
32.84150 17683.0
32.84350 17560.0
32.84550 17805.0
32.84750 17710.0
32.84950 17543.0
32.85150 17427.0
32.85350 17103.0
32.85550 16961.0
32.85750 17286.0
32.85950 17178.0
32.86150 17096.0
32.86350 17032.0
32.86550 16974.0
32.86750 16815.0
32.86950 16789.0
32.87150 16815.0
32.87350 16906.0
32.87550 16628.0
32.87750 16796.0
32.87950 16690.0
32.88150 16774.0
32.88350 16574.0
32.88550 16391.0
32.88750 16656.0
32.88950 16333.0
32.89150 16368.0
32.89350 16388.0
32.89550 16571.0
32.89750 16342.0
32.89950 16340.0
32.90150 16319.0
32.90350 16079.0
32.90550 15912.0
32.90750 16182.0
32.90950 16048.0
32.91150 16018.0
32.91350 16035.0
32.91550 15752.0
32.91750 15480.0
32.91950 15596.0
32.92150 15366.0
32.92350 15504.0
32.92550 15517.0
32.92750 15437.0
32.92950 15183.0
32.93150 15435.0
32.93350 15208.0
32.93550 15157.0
32.93750 15243.0
32.93950 14831.0
32.94150 14975.0
32.94350 15293.0
32.94550 15017.0
32.94750 14827.0
32.94950 14669.0
32.95150 14769.0
32.95350 14692.0
32.95550 14665.0
32.95750 14369.0
32.95950 14489.0
32.96150 14343.0
32.96350 14630.0
32.96550 14186.0
32.96750 14088.0
32.96950 14116.0
32.97150 14226.0
32.97350 13963.0
32.97550 13834.0
32.97750 13657.0
32.97950 13743.0
32.98150 13745.0
32.98350 13590.0
32.98550 13672.0
32.98750 13429.0
32.98950 13345.0
32.99150 13378.0
32.99350 13368.0
32.99550 13253.0
32.99750 13488.0
32.99950 13139.0
33.00150 13279.0
33.00350 12961.0
33.00550 12954.0
33.00750 12920.0
33.00950 12812.0
33.01150 12821.0
33.01350 12856.0
33.01550 12799.0
33.01750 12519.0
33.01950 12550.0
33.02150 12557.0
33.02350 12493.0
33.02550 12282.0
33.02750 12540.0
33.02950 12098.0
33.03150 11943.0
33.03350 12086.0
33.03550 12010.0
33.03750 12020.0
33.03950 11946.0
33.04150 11913.0
33.04350 11693.0
33.04550 11649.0
33.04750 11619.0
33.04950 11697.0
33.05150 11668.0
33.05350 11365.0
33.05550 11514.0
33.05750 11268.0
33.05950 11339.0
33.06150 11334.0
33.06350 11186.0
33.06550 11146.0
33.06750 11287.0
33.06950 10963.0
33.07150 11061.0
33.07350 10814.0
33.07550 10691.0
33.07750 10774.0
33.07950 10436.0
33.08150 10550.0
33.08350 10264.0
33.08550 10503.0
33.08750 10299.0
33.08950 10301.0
33.09150 10108.0
33.09350 10237.0
33.09550 10125.0
33.09750 9978.0
33.09950 10034.0
33.10150 9707.0
33.10350 9795.0
33.10550 9760.0
33.10750 9665.0
33.10950 9788.0
33.11150 9750.0
33.11350 9577.0
33.11550 9479.0
33.11750 9396.0
33.11950 9478.0
33.12150 9235.0
33.12350 9295.0
33.12550 9193.0
33.12750 9077.0
33.12950 9138.0
33.13150 9345.0
33.13350 9073.0
33.13550 8969.0
33.13750 8798.0
33.13950 8693.0
33.14150 8933.0
33.14350 8836.0
33.14550 8717.0
33.14750 8544.0
33.14950 8551.0
33.15150 8632.0
33.15350 8201.0
33.15550 8327.0
33.15750 8369.0
33.15950 8334.0
33.16150 8460.0
33.16350 8296.0
33.16550 8392.0
33.16750 8181.0
33.16950 8136.0
33.17150 8053.0
33.17350 8046.0
33.17550 7906.0
33.17750 7881.0
33.17950 7876.0
33.18150 7785.0
33.18350 7842.0
33.18550 7661.0
33.18750 7658.0
33.18950 7594.0
33.19150 7629.0
33.19350 7585.0
33.19550 7504.0
33.19750 7668.0
33.19950 7715.0
33.20150 7437.0
33.20350 7281.0
33.20550 7453.0
33.20750 7298.0
33.20950 7139.0
33.21150 7067.0
33.21350 7134.0
33.21550 7112.0
33.21750 7080.0
33.21950 6952.0
33.22150 6984.0
33.22350 6873.0
33.22550 6939.0
33.22750 6778.0
33.22950 6755.0
33.23150 6659.0
33.23350 6787.0
33.23550 6668.0
33.23750 6606.0
33.23950 6749.0
33.24150 6405.0
33.24350 6650.0
33.24550 6393.0
33.24750 6576.0
33.24950 6493.0
33.25150 6297.0
33.25350 6477.0
33.25550 6416.0
33.25750 6231.0
33.25950 6298.0
33.26150 6219.0
33.26350 6217.0
33.26550 6024.0
33.26750 6096.0
33.26950 5962.0
33.27150 5980.0
33.27350 5898.0
33.27550 5914.0
33.27750 5943.0
33.27950 5974.0
33.28150 5833.0
33.28350 5930.0
33.28550 5731.0
33.28750 5653.0
33.28950 5710.0
33.29150 5666.0
33.29350 5656.0
33.29550 5606.0
33.29750 5445.0
33.29950 5469.0
33.30150 5481.0
33.30350 5492.0
33.30550 5564.0
33.30750 5385.0
33.30950 5254.0
33.31150 5344.0
33.31350 5310.0
33.31550 5306.0
33.31750 5224.0
33.31950 5163.0
33.32150 5238.0
33.32350 5077.0
33.32550 5043.0
33.32750 5090.0
33.32950 5051.0
33.33150 4963.0
33.33350 4978.0
33.33550 4996.0
33.33750 5014.0
33.33950 4857.0
33.34150 4750.0
33.34350 4769.0
33.34550 4872.0
33.34750 4692.0
33.34950 4637.0
33.35150 4663.0
33.35350 4548.0
33.35550 4588.0
33.35750 4731.0
33.35950 4669.0
33.36150 4631.0
33.36350 4540.0
33.36550 4523.0
33.36750 4507.0
33.36950 4417.0
33.37150 4364.0
33.37350 4251.0
33.37550 4289.0
33.37750 4420.0
33.37950 4299.0
33.38150 4398.0
33.38350 4173.0
33.38550 4136.0
33.38750 4100.0
33.38950 4126.0
33.39150 4168.0
33.39350 4273.0
33.39550 4070.0
33.39750 4102.0
33.39950 4220.0
33.40150 3922.0
33.40350 3942.0
33.40550 3957.0
33.40750 3839.0
33.40950 3933.0
33.41150 3874.0
33.41350 3862.0
33.41550 3870.0
33.41750 3795.0
33.41950 3673.0
33.42150 3795.0
33.42350 3607.0
33.42550 3682.0
33.42750 3706.0
33.42950 3636.0
33.43150 3733.0
33.43350 3666.0
33.43550 3694.0
33.43750 3587.0
33.43950 3586.0
33.44150 3532.0
33.44350 3632.0
33.44550 3485.0
33.44750 3451.0
33.44950 3449.0
33.45150 3483.0
33.45350 3319.0
33.45550 3460.0
33.45750 3381.0
33.45950 3216.0
33.46150 3421.0
33.46350 3338.0
33.46550 3395.0
33.46750 3306.0
33.46950 3405.0
33.47150 3155.0
33.47350 3153.0
33.47550 3194.0
33.47750 3247.0
33.47950 3206.0
33.48150 3103.0
33.48350 3084.0
33.48550 3249.0
33.48750 3044.0
33.48950 3107.0
33.49150 3045.0
33.49350 3104.0
33.49550 3135.0
33.49750 2929.0
33.49950 2948.0
33.50150 2938.0
33.50350 2952.0
33.50550 2882.0
33.50750 2912.0
33.50950 2916.0
33.51150 2882.0
33.51350 2863.0
33.51550 2856.0
33.51750 2803.0
33.51950 2780.0
33.52150 2781.0
33.52350 2855.0
33.52550 2733.0
33.52750 2815.0
33.52950 2824.0
33.53150 2682.0
33.53350 2710.0
33.53550 2670.0
33.53750 2721.0
33.53950 2693.0
33.54150 2607.0
33.54350 2659.0
33.54550 2633.0
33.54750 2667.0
33.54950 2567.0
33.55150 2563.0
33.55350 2674.0
33.55550 2576.0
33.55750 2545.0
33.55950 2521.0
33.56150 2581.0
33.56350 2399.0
33.56550 2467.0
33.56750 2430.0
33.56950 2446.0
33.57150 2356.0
33.57350 2384.0
33.57550 2385.0
33.57750 2407.0
33.57950 2455.0
33.58150 2306.0
33.58350 2343.0
33.58550 2315.0
33.58750 2397.0
33.58950 2342.0
33.59150 2320.0
33.59350 2332.0
33.59550 2263.0
33.59750 2238.0
33.59950 2217.0
33.60150 2417.0
33.60350 2138.0
33.60550 2299.0
33.60750 2322.0
33.60950 2241.0
33.61150 2207.0
33.61350 2175.0
33.61550 2148.0
33.61750 2128.0
33.61950 2140.0
33.62150 2113.0
33.62350 2104.0
33.62550 2107.0
33.62750 2038.0
33.62950 2031.0
33.63150 2088.0
33.63350 2043.0
33.63550 1998.0
33.63750 2036.0
33.63950 2037.0
33.64150 2007.0
33.64350 2060.0
33.64550 1924.0
33.64750 2019.0
33.64950 1967.0
33.65150 1913.0
33.65350 1928.0
33.65550 1870.0
33.65750 1938.0
33.65950 1774.0
33.66150 1893.0
33.66350 1820.0
33.66550 1833.0
33.66750 1851.0
33.66950 1813.0
33.67150 1764.0
33.67350 1843.0
33.67550 1885.0
33.67750 1738.0
33.67950 1793.0
33.68150 1841.0
33.68350 1818.0
33.68550 1688.0
33.68750 1772.0
33.68950 1750.0
33.69150 1762.0