File: data/W6905c/XRD_Omega/scan_omega_4deg_step_0.005deg0_C6_3.xy
17.72310 80.0
17.72810 86.0
17.73310 74.0
17.73810 107.0
17.74310 84.0
17.74810 90.0
17.75310 84.0
17.75810 83.0
17.76310 90.0
17.76810 83.0
17.77310 92.0
17.77810 96.0
17.78310 90.0
17.78810 71.0
17.79310 91.0
17.79810 91.0
17.80310 77.0
17.80810 91.0
17.81310 69.0
17.81810 72.0
17.82310 108.0
17.82810 77.0
17.83310 98.0
17.83810 76.0
17.84310 84.0
17.84810 86.0
17.85310 83.0
17.85810 86.0
17.86310 84.0
17.86810 94.0
17.87310 101.0
17.87810 72.0
17.88310 100.0
17.88810 92.0
17.89310 94.0
17.89810 75.0
17.90310 87.0
17.90810 80.0
17.91310 76.0
17.91810 103.0
17.92310 81.0
17.92810 102.0
17.93310 104.0
17.93810 91.0
17.94310 102.0
17.94810 84.0
17.95310 90.0
17.95810 87.0
17.96310 101.0
17.96810 77.0
17.97310 89.0
17.97810 86.0
17.98310 81.0
17.98810 99.0
17.99310 87.0
17.99810 87.0
18.00310 84.0
18.00810 96.0
18.01310 76.0
18.01810 96.0
18.02310 96.0
18.02810 94.0
18.03310 103.0
18.03810 91.0
18.04310 101.0
18.04810 96.0
18.05310 97.0
18.05810 92.0
18.06310 100.0
18.06810 90.0
18.07310 113.0
18.07810 96.0
18.08310 86.0
18.08810 89.0
18.09310 103.0
18.09810 108.0
18.10310 98.0
18.10810 88.0
18.11310 90.0
18.11810 90.0
18.12310 115.0
18.12810 100.0
18.13310 83.0
18.13810 100.0
18.14310 109.0
18.14810 107.0
18.15310 94.0
18.15810 104.0
18.16310 87.0
18.16810 99.0
18.17310 113.0
18.17810 118.0
18.18310 106.0
18.18810 116.0
18.19310 120.0
18.19810 98.0
18.20310 109.0
18.20810 118.0
18.21310 104.0
18.21810 91.0
18.22310 81.0
18.22810 87.0
18.23310 100.0
18.23810 97.0
18.24310 98.0
18.24810 108.0
18.25310 105.0
18.25810 112.0
18.26310 98.0
18.26810 116.0
18.27310 122.0
18.27810 94.0
18.28310 112.0
18.28810 97.0
18.29310 110.0
18.29810 110.0
18.30310 115.0
18.30810 113.0
18.31310 110.0
18.31810 119.0
18.32310 108.0
18.32810 126.0
18.33310 110.0
18.33810 107.0
18.34310 109.0
18.34810 131.0
18.35310 126.0
18.35810 119.0
18.36310 111.0
18.36810 106.0
18.37310 123.0
18.37810 117.0
18.38310 120.0
18.38810 115.0
18.39310 104.0
18.39810 122.0
18.40310 109.0
18.40810 101.0
18.41310 132.0
18.41810 139.0
18.42310 130.0
18.42810 126.0
18.43310 133.0
18.43810 118.0
18.44310 128.0
18.44810 111.0
18.45310 132.0
18.45810 126.0
18.46310 135.0
18.46810 131.0
18.47310 131.0
18.47810 119.0
18.48310 141.0
18.48810 151.0
18.49310 156.0
18.49810 141.0
18.50310 146.0
18.50810 132.0
18.51310 140.0
18.51810 143.0
18.52310 125.0
18.52810 117.0
18.53310 117.0
18.53810 165.0
18.54310 162.0
18.54810 134.0
18.55310 153.0
18.55810 141.0
18.56310 134.0
18.56810 155.0
18.57310 140.0
18.57810 153.0
18.58310 147.0
18.58810 159.0
18.59310 176.0
18.59810 160.0
18.60310 180.0
18.60810 153.0
18.61310 143.0
18.61810 165.0
18.62310 170.0
18.62810 166.0
18.63310 169.0
18.63810 150.0
18.64310 168.0
18.64810 182.0
18.65310 152.0
18.65810 144.0
18.66310 160.0
18.66810 164.0
18.67310 165.0
18.67810 174.0
18.68310 156.0
18.68810 182.0
18.69310 187.0
18.69810 173.0
18.70310 169.0
18.70810 172.0
18.71310 195.0
18.71810 184.0
18.72310 173.0
18.72810 198.0
18.73310 207.0
18.73810 220.0
18.74310 184.0
18.74810 178.0
18.75310 177.0
18.75810 206.0
18.76310 187.0
18.76810 205.0
18.77310 210.0
18.77810 222.0
18.78310 207.0
18.78810 188.0
18.79310 188.0
18.79810 207.0
18.80310 183.0
18.80810 211.0
18.81310 207.0
18.81810 215.0
18.82310 220.0
18.82810 207.0
18.83310 221.0
18.83810 235.0
18.84310 181.0
18.84810 213.0
18.85310 249.0
18.85810 223.0
18.86310 225.0
18.86810 256.0
18.87310 215.0
18.87810 253.0
18.88310 243.0
18.88810 232.0
18.89310 237.0
18.89810 248.0
18.90310 222.0
18.90810 228.0
18.91310 271.0
18.91810 240.0
18.92310 248.0
18.92810 273.0
18.93310 237.0
18.93810 264.0
18.94310 280.0
18.94810 261.0
18.95310 282.0
18.95810 281.0
18.96310 258.0
18.96810 238.0
18.97310 273.0
18.97810 258.0
18.98310 274.0
18.98810 316.0
18.99310 292.0
18.99810 249.0
19.00310 299.0
19.00810 325.0
19.01310 286.0
19.01810 264.0
19.02310 299.0
19.02810 291.0
19.03310 264.0
19.03810 292.0
19.04310 326.0
19.04810 330.0
19.05310 316.0
19.05810 304.0
19.06310 284.0
19.06810 301.0
19.07310 306.0
19.07810 336.0
19.08310 336.0
19.08810 329.0
19.09310 285.0
19.09810 359.0
19.10310 330.0
19.10810 326.0
19.11310 320.0
19.11810 334.0
19.12310 313.0
19.12810 311.0
19.13310 347.0
19.13810 333.0
19.14310 323.0
19.14810 363.0
19.15310 323.0
19.15810 383.0
19.16310 344.0
19.16810 363.0
19.17310 376.0
19.17810 348.0
19.18310 359.0
19.18810 382.0
19.19310 388.0
19.19810 356.0
19.20310 402.0
19.20810 381.0
19.21310 401.0
19.21810 405.0
19.22310 388.0
19.22810 420.0
19.23310 364.0
19.23810 390.0
19.24310 377.0
19.24810 422.0
19.25310 403.0
19.25810 417.0
19.26310 397.0
19.26810 430.0
19.27310 414.0
19.27810 412.0
19.28310 450.0
19.28810 395.0
19.29310 425.0
19.29810 420.0
19.30310 401.0
19.30810 459.0
19.31310 463.0
19.31810 446.0
19.32310 432.0
19.32810 464.0
19.33310 468.0
19.33810 422.0
19.34310 448.0
19.34810 470.0
19.35310 456.0
19.35810 471.0
19.36310 433.0
19.36810 427.0
19.37310 473.0
19.37810 495.0
19.38310 470.0
19.38810 481.0
19.39310 470.0
19.39810 486.0
19.40310 471.0
19.40810 507.0
19.41310 507.0
19.41810 491.0
19.42310 489.0
19.42810 554.0
19.43310 445.0
19.43810 538.0
19.44310 512.0
19.44810 497.0
19.45310 529.0
19.45810 528.0
19.46310 526.0
19.46810 527.0
19.47310 529.0
19.47810 477.0
19.48310 534.0
19.48810 515.0
19.49310 446.0
19.49810 546.0
19.50310 518.0
19.50810 505.0
19.51310 518.0
19.51810 584.0
19.52310 551.0
19.52810 570.0
19.53310 567.0
19.53810 583.0
19.54310 512.0
19.54810 579.0
19.55310 535.0
19.55810 592.0
19.56310 582.0
19.56810 541.0
19.57310 554.0
19.57810 566.0
19.58310 550.0
19.58810 552.0
19.59310 554.0
19.59810 592.0
19.60310 563.0
19.60810 565.0
19.61310 556.0
19.61810 529.0
19.62310 565.0
19.62810 621.0
19.63310 558.0
19.63810 610.0
19.64310 579.0
19.64810 607.0
19.65310 590.0
19.65810 547.0
19.66310 559.0
19.66810 601.0
19.67310 599.0
19.67810 559.0
19.68310 629.0
19.68810 607.0
19.69310 585.0
19.69810 606.0
19.70310 561.0
19.70810 563.0
19.71310 539.0
19.71810 605.0
19.72310 578.0
19.72810 534.0
19.73310 535.0
19.73810 550.0
19.74310 589.0
19.74810 549.0
19.75310 620.0
19.75810 583.0
19.76310 543.0
19.76810 589.0
19.77310 548.0
19.77810 558.0
19.78310 551.0
19.78810 607.0
19.79310 586.0
19.79810 539.0
19.80310 541.0
19.80810 545.0
19.81310 610.0
19.81810 550.0
19.82310 631.0
19.82810 530.0
19.83310 530.0
19.83810 576.0
19.84310 526.0
19.84810 513.0
19.85310 569.0
19.85810 535.0
19.86310 530.0
19.86810 536.0
19.87310 553.0
19.87810 509.0
19.88310 499.0
19.88810 534.0
19.89310 486.0
19.89810 508.0
19.90310 530.0
19.90810 559.0
19.91310 526.0
19.91810 491.0
19.92310 513.0
19.92810 515.0
19.93310 480.0
19.93810 525.0
19.94310 503.0
19.94810 474.0
19.95310 495.0
19.95810 504.0
19.96310 479.0
19.96810 466.0
19.97310 455.0
19.97810 496.0
19.98310 501.0
19.98810 502.0
19.99310 513.0
19.99810 512.0
20.00310 498.0
20.00810 484.0
20.01310 516.0
20.01810 457.0
20.02310 484.0
20.02810 455.0
20.03310 497.0
20.03810 469.0
20.04310 469.0
20.04810 480.0
20.05310 469.0
20.05810 487.0
20.06310 476.0
20.06810 486.0
20.07310 475.0
20.07810 418.0
20.08310 429.0
20.08810 441.0
20.09310 444.0
20.09810 418.0
20.10310 410.0
20.10810 421.0
20.11310 456.0
20.11810 424.0
20.12310 408.0
20.12810 410.0
20.13310 427.0
20.13810 387.0
20.14310 427.0
20.14810 373.0
20.15310 360.0
20.15810 418.0
20.16310 395.0
20.16810 425.0
20.17310 436.0
20.17810 358.0
20.18310 427.0
20.18810 391.0
20.19310 390.0
20.19810 421.0
20.20310 346.0
20.20810 410.0
20.21310 377.0
20.21810 365.0
20.22310 385.0
20.22810 344.0
20.23310 382.0
20.23810 368.0
20.24310 332.0
20.24810 331.0
20.25310 335.0
20.25810 321.0
20.26310 366.0
20.26810 332.0
20.27310 342.0
20.27810 361.0
20.28310 340.0
20.28810 325.0
20.29310 318.0
20.29810 311.0
20.30310 312.0
20.30810 321.0
20.31310 305.0
20.31810 309.0
20.32310 303.0
20.32810 341.0
20.33310 277.0
20.33810 313.0
20.34310 317.0
20.34810 328.0
20.35310 320.0
20.35810 291.0
20.36310 281.0
20.36810 290.0
20.37310 290.0
20.37810 305.0
20.38310 262.0
20.38810 308.0
20.39310 277.0
20.39810 244.0
20.40310 269.0
20.40810 279.0
20.41310 287.0
20.41810 282.0
20.42310 247.0
20.42810 260.0
20.43310 251.0
20.43810 213.0
20.44310 285.0
20.44810 234.0
20.45310 246.0
20.45810 261.0
20.46310 276.0
20.46810 240.0
20.47310 243.0
20.47810 217.0
20.48310 255.0
20.48810 221.0
20.49310 228.0
20.49810 206.0
20.50310 222.0
20.50810 191.0
20.51310 223.0
20.51810 238.0
20.52310 216.0
20.52810 207.0
20.53310 209.0
20.53810 206.0
20.54310 189.0
20.54810 228.0
20.55310 208.0
20.55810 200.0
20.56310 192.0
20.56810 229.0
20.57310 210.0
20.57810 199.0
20.58310 219.0
20.58810 164.0
20.59310 202.0
20.59810 182.0
20.60310 206.0
20.60810 203.0
20.61310 177.0
20.61810 176.0
20.62310 208.0
20.62810 174.0
20.63310 168.0
20.63810 193.0
20.64310 172.0
20.64810 180.0
20.65310 188.0
20.65810 168.0
20.66310 184.0
20.66810 172.0
20.67310 167.0
20.67810 175.0
20.68310 170.0
20.68810 194.0
20.69310 177.0
20.69810 174.0
20.70310 183.0
20.70810 175.0
20.71310 162.0
20.71810 150.0
20.72310 172.0
20.72810 161.0
20.73310 141.0
20.73810 169.0
20.74310 154.0
20.74810 164.0
20.75310 136.0
20.75810 145.0
20.76310 164.0
20.76810 150.0
20.77310 157.0
20.77810 162.0
20.78310 153.0
20.78810 148.0
20.79310 153.0
20.79810 146.0
20.80310 164.0
20.80810 122.0
20.81310 165.0
20.81810 140.0
20.82310 170.0
20.82810 140.0
20.83310 150.0
20.83810 140.0
20.84310 143.0
20.84810 150.0
20.85310 131.0
20.85810 128.0
20.86310 139.0
20.86810 139.0
20.87310 108.0
20.87810 145.0
20.88310 145.0
20.88810 142.0
20.89310 137.0
20.89810 125.0
20.90310 124.0
20.90810 139.0
20.91310 115.0
20.91810 116.0
20.92310 133.0
20.92810 121.0
20.93310 118.0
20.93810 120.0
20.94310 153.0
20.94810 130.0
20.95310 112.0
20.95810 127.0
20.96310 112.0
20.96810 115.0
20.97310 93.0
20.97810 101.0
20.98310 122.0
20.98810 108.0
20.99310 105.0
20.99810 113.0
21.00310 94.0
21.00810 113.0
21.01310 113.0
21.01810 111.0
21.02310 96.0
21.02810 112.0
21.03310 94.0
21.03810 112.0
21.04310 106.0
21.04810 133.0
21.05310 96.0
21.05810 98.0
21.06310 111.0
21.06810 109.0
21.07310 95.0
21.07810 113.0
21.08310 114.0
21.08810 114.0
21.09310 105.0
21.09810 107.0
21.10310 101.0
21.10810 107.0
21.11310 98.0
21.11810 113.0
21.12310 124.0
21.12810 90.0
21.13310 98.0
21.13810 91.0
21.14310 96.0
21.14810 98.0
21.15310 96.0
21.15810 97.0
21.16310 94.0
21.16810 98.0
21.17310 118.0
21.17810 71.0
21.18310 93.0
21.18810 84.0
21.19310 101.0
21.19810 74.0
21.20310 92.0
21.20810 91.0
21.21310 112.0
21.21810 93.0
21.22310 97.0
21.22810 85.0
21.23310 95.0
21.23810 91.0
21.24310 80.0
21.24810 82.0
21.25310 84.0
21.25810 81.0
21.26310 81.0
21.26810 79.0
21.27310 94.0
21.27810 82.0
21.28310 93.0
21.28810 83.0
21.29310 85.0
21.29810 84.0
21.30310 84.0
21.30810 107.0
21.31310 80.0
21.31810 77.0
21.32310 100.0
21.32810 81.0
21.33310 87.0
21.33810 84.0
21.34310 69.0
21.34810 78.0
21.35310 89.0
21.35810 71.0
21.36310 80.0
21.36810 92.0
21.37310 96.0
21.37810 87.0
21.38310 79.0
21.38810 68.0
21.39310 90.0
21.39810 92.0
21.40310 75.0
21.40810 80.0
21.41310 80.0
21.41810 79.0
21.42310 90.0
21.42810 89.0
21.43310 86.0
21.43810 90.0
21.44310 65.0
21.44810 88.0
21.45310 77.0
21.45810 91.0
21.46310 80.0
21.46810 80.0
21.47310 79.0
21.47810 96.0
21.48310 63.0
21.48810 84.0
21.49310 81.0
21.49810 90.0
21.50310 73.0
21.50810 60.0
21.51310 67.0
21.51810 75.0
21.52310 78.0
21.52810 67.0
21.53310 86.0
21.53810 69.0
21.54310 79.0
21.54810 64.0
21.55310 76.0
21.55810 75.0
21.56310 74.0
21.56810 81.0
21.57310 87.0
21.57810 53.0
21.58310 87.0
21.58810 66.0
21.59310 96.0
21.59810 76.0
21.60310 62.0
21.60810 73.0
21.61310 57.0
21.61810 63.0
21.62310 64.0
21.62810 73.0
21.63310 82.0
21.63810 59.0
21.64310 76.0
21.64810 86.0
21.65310 73.0
21.65810 83.0
21.66310 67.0
21.66810 66.0
21.67310 63.0
21.67810 75.0
21.68310 62.0