File: data/W6906r/XRD_Omega/scan_omega_4deg_step_0.005deg0_C7.xy
23.09260 60.0
23.09760 72.0
23.10260 62.0
23.10760 60.0
23.11260 54.0
23.11760 74.0
23.12260 70.0
23.12760 82.0
23.13260 61.0
23.13760 51.0
23.14260 61.0
23.14760 67.0
23.15260 70.0
23.15760 55.0
23.16260 59.0
23.16760 64.0
23.17260 63.0
23.17760 63.0
23.18260 49.0
23.18760 81.0
23.19260 65.0
23.19760 65.0
23.20260 79.0
23.20760 64.0
23.21260 55.0
23.21760 72.0
23.22260 79.0
23.22760 70.0
23.23260 82.0
23.23760 67.0
23.24260 80.0
23.24760 57.0
23.25260 84.0
23.25760 71.0
23.26260 78.0
23.26760 58.0
23.27260 62.0
23.27760 69.0
23.28260 72.0
23.28760 75.0
23.29260 71.0
23.29760 87.0
23.30260 78.0
23.30760 64.0
23.31260 62.0
23.31760 74.0
23.32260 78.0
23.32760 69.0
23.33260 67.0
23.33760 57.0
23.34260 63.0
23.34760 79.0
23.35260 73.0
23.35760 80.0
23.36260 70.0
23.36760 72.0
23.37260 69.0
23.37760 72.0
23.38260 77.0
23.38760 76.0
23.39260 67.0
23.39760 67.0
23.40260 64.0
23.40760 80.0
23.41260 67.0
23.41760 83.0
23.42260 78.0
23.42760 65.0
23.43260 67.0
23.43760 86.0
23.44260 63.0
23.44760 68.0
23.45260 75.0
23.45760 88.0
23.46260 78.0
23.46760 59.0
23.47260 71.0
23.47760 68.0
23.48260 59.0
23.48760 72.0
23.49260 57.0
23.49760 58.0
23.50260 77.0
23.50760 73.0
23.51260 69.0
23.51760 83.0
23.52260 79.0
23.52760 89.0
23.53260 68.0
23.53760 74.0
23.54260 82.0
23.54760 79.0
23.55260 74.0
23.55760 76.0
23.56260 72.0
23.56760 71.0
23.57260 85.0
23.57760 81.0
23.58260 82.0
23.58760 80.0
23.59260 82.0
23.59760 89.0
23.60260 77.0
23.60760 86.0
23.61260 86.0
23.61760 89.0
23.62260 68.0
23.62760 75.0
23.63260 61.0
23.63760 90.0
23.64260 88.0
23.64760 91.0
23.65260 90.0
23.65760 95.0
23.66260 82.0
23.66760 96.0
23.67260 77.0
23.67760 61.0
23.68260 82.0
23.68760 81.0
23.69260 101.0
23.69760 73.0
23.70260 82.0
23.70760 91.0
23.71260 97.0
23.71760 76.0
23.72260 103.0
23.72760 101.0
23.73260 77.0
23.73760 94.0
23.74260 90.0
23.74760 90.0
23.75260 68.0
23.75760 92.0
23.76260 77.0
23.76760 81.0
23.77260 83.0
23.77760 75.0
23.78260 92.0
23.78760 76.0
23.79260 87.0
23.79760 94.0
23.80260 86.0
23.80760 96.0
23.81260 80.0
23.81760 87.0
23.82260 91.0
23.82760 80.0
23.83260 92.0
23.83760 82.0
23.84260 95.0
23.84760 88.0
23.85260 105.0
23.85760 99.0
23.86260 112.0
23.86760 101.0
23.87260 100.0
23.87760 85.0
23.88260 101.0
23.88760 91.0
23.89260 89.0
23.89760 88.0
23.90260 85.0
23.90760 82.0
23.91260 95.0
23.91760 110.0
23.92260 99.0
23.92760 104.0
23.93260 102.0
23.93760 113.0
23.94260 108.0
23.94760 113.0
23.95260 119.0
23.95760 111.0
23.96260 103.0
23.96760 115.0
23.97260 92.0
23.97760 107.0
23.98260 86.0
23.98760 91.0
23.99260 109.0
23.99760 121.0
24.00260 108.0
24.00760 103.0
24.01260 99.0
24.01760 97.0
24.02260 127.0
24.02760 107.0
24.03260 114.0
24.03760 111.0
24.04260 112.0
24.04760 115.0
24.05260 116.0
24.05760 115.0
24.06260 119.0
24.06760 125.0
24.07260 104.0
24.07760 128.0
24.08260 121.0
24.08760 118.0
24.09260 115.0
24.09760 113.0
24.10260 102.0
24.10760 119.0
24.11260 115.0
24.11760 127.0
24.12260 121.0
24.12760 118.0
24.13260 125.0
24.13760 120.0
24.14260 141.0
24.14760 137.0
24.15260 125.0
24.15760 137.0
24.16260 145.0
24.16760 134.0
24.17260 134.0
24.17760 136.0
24.18260 141.0
24.18760 133.0
24.19260 137.0
24.19760 136.0
24.20260 141.0
24.20760 163.0
24.21260 134.0
24.21760 155.0
24.22260 146.0
24.22760 138.0
24.23260 138.0
24.23760 135.0
24.24260 129.0
24.24760 155.0
24.25260 150.0
24.25760 153.0
24.26260 144.0
24.26760 120.0
24.27260 154.0
24.27760 138.0
24.28260 142.0
24.28760 138.0
24.29260 146.0
24.29760 151.0
24.30260 141.0
24.30760 166.0
24.31260 150.0
24.31760 163.0
24.32260 140.0
24.32760 155.0
24.33260 176.0
24.33760 168.0
24.34260 167.0
24.34760 170.0
24.35260 168.0
24.35760 152.0
24.36260 141.0
24.36760 164.0
24.37260 172.0
24.37760 168.0
24.38260 169.0
24.38760 162.0
24.39260 196.0
24.39760 183.0
24.40260 179.0
24.40760 178.0
24.41260 181.0
24.41760 176.0
24.42260 158.0
24.42760 191.0
24.43260 173.0
24.43760 191.0
24.44260 172.0
24.44760 169.0
24.45260 166.0
24.45760 185.0
24.46260 211.0
24.46760 177.0
24.47260 165.0
24.47760 181.0
24.48260 183.0
24.48760 196.0
24.49260 188.0
24.49760 194.0
24.50260 189.0
24.50760 218.0
24.51260 188.0
24.51760 220.0
24.52260 181.0
24.52760 186.0
24.53260 198.0
24.53760 212.0
24.54260 189.0
24.54760 205.0
24.55260 192.0
24.55760 208.0
24.56260 219.0
24.56760 201.0
24.57260 170.0
24.57760 210.0
24.58260 203.0
24.58760 206.0
24.59260 222.0
24.59760 235.0
24.60260 209.0
24.60760 218.0
24.61260 209.0
24.61760 198.0
24.62260 192.0
24.62760 192.0
24.63260 228.0
24.63760 226.0
24.64260 193.0
24.64760 222.0
24.65260 235.0
24.65760 217.0
24.66260 227.0
24.66760 193.0
24.67260 227.0
24.67760 213.0
24.68260 215.0
24.68760 228.0
24.69260 206.0
24.69760 226.0
24.70260 245.0
24.70760 226.0
24.71260 247.0
24.71760 240.0
24.72260 254.0
24.72760 244.0
24.73260 229.0
24.73760 241.0
24.74260 261.0
24.74760 250.0
24.75260 230.0
24.75760 233.0
24.76260 257.0
24.76760 240.0
24.77260 264.0
24.77760 221.0
24.78260 198.0
24.78760 268.0
24.79260 225.0
24.79760 267.0
24.80260 234.0
24.80760 261.0
24.81260 242.0
24.81760 258.0
24.82260 270.0
24.82760 255.0
24.83260 256.0
24.83760 246.0
24.84260 267.0
24.84760 267.0
24.85260 271.0
24.85760 263.0
24.86260 267.0
24.86760 238.0
24.87260 255.0
24.87760 275.0
24.88260 259.0
24.88760 257.0
24.89260 266.0
24.89760 277.0
24.90260 239.0
24.90760 266.0
24.91260 258.0
24.91760 260.0
24.92260 253.0
24.92760 288.0
24.93260 276.0
24.93760 281.0
24.94260 297.0
24.94760 287.0
24.95260 302.0
24.95760 322.0
24.96260 321.0
24.96760 316.0
24.97260 332.0
24.97760 368.0
24.98260 332.0
24.98760 319.0
24.99260 351.0
24.99760 344.0
25.00260 297.0
25.00760 348.0
25.01260 338.0
25.01760 313.0
25.02260 372.0
25.02760 326.0
25.03260 369.0
25.03760 422.0
25.04260 436.0
25.04760 393.0
25.05260 415.0
25.05760 382.0
25.06260 398.0
25.06760 400.0
25.07260 350.0
25.07760 390.0
25.08260 400.0
25.08760 381.0
25.09260 389.0
25.09760 377.0
25.10260 359.0
25.10760 370.0
25.11260 386.0
25.11760 378.0
25.12260 390.0
25.12760 377.0
25.13260 358.0
25.13760 406.0
25.14260 397.0
25.14760 411.0
25.15260 393.0
25.15760 390.0
25.16260 387.0
25.16760 413.0
25.17260 390.0
25.17760 390.0
25.18260 346.0
25.18760 391.0
25.19260 381.0
25.19760 376.0
25.20260 329.0
25.20760 293.0
25.21260 288.0
25.21760 312.0
25.22260 255.0
25.22760 274.0
25.23260 284.0
25.23760 282.0
25.24260 262.0
25.24760 265.0
25.25260 252.0
25.25760 260.0
25.26260 269.0
25.26760 255.0
25.27260 266.0
25.27760 209.0
25.28260 254.0
25.28760 237.0
25.29260 222.0
25.29760 228.0
25.30260 247.0
25.30760 281.0
25.31260 229.0
25.31760 247.0
25.32260 235.0
25.32760 264.0
25.33260 252.0
25.33760 243.0
25.34260 248.0
25.34760 253.0
25.35260 237.0
25.35760 243.0
25.36260 215.0
25.36760 223.0
25.37260 244.0
25.37760 226.0
25.38260 236.0
25.38760 232.0
25.39260 229.0
25.39760 233.0
25.40260 221.0
25.40760 223.0
25.41260 227.0
25.41760 236.0
25.42260 214.0
25.42760 218.0
25.43260 228.0
25.43760 238.0
25.44260 198.0
25.44760 202.0
25.45260 194.0
25.45760 211.0
25.46260 190.0
25.46760 191.0
25.47260 230.0
25.47760 193.0
25.48260 177.0
25.48760 188.0
25.49260 207.0
25.49760 208.0
25.50260 219.0
25.50760 218.0
25.51260 176.0
25.51760 217.0
25.52260 211.0
25.52760 189.0
25.53260 196.0
25.53760 180.0
25.54260 220.0
25.54760 194.0
25.55260 192.0
25.55760 196.0
25.56260 206.0
25.56760 206.0
25.57260 198.0
25.57760 188.0
25.58260 165.0
25.58760 187.0
25.59260 188.0
25.59760 181.0
25.60260 176.0
25.60760 171.0
25.61260 181.0
25.61760 203.0
25.62260 161.0
25.62760 199.0
25.63260 166.0
25.63760 166.0
25.64260 173.0
25.64760 203.0
25.65260 199.0
25.65760 187.0
25.66260 166.0
25.66760 177.0
25.67260 178.0
25.67760 137.0
25.68260 169.0
25.68760 166.0
25.69260 146.0
25.69760 150.0
25.70260 152.0
25.70760 135.0
25.71260 178.0
25.71760 155.0
25.72260 164.0
25.72760 169.0
25.73260 150.0
25.73760 152.0
25.74260 150.0
25.74760 162.0
25.75260 163.0
25.75760 151.0
25.76260 172.0
25.76760 144.0
25.77260 143.0
25.77760 154.0
25.78260 155.0
25.78760 152.0
25.79260 144.0
25.79760 155.0
25.80260 144.0
25.80760 163.0
25.81260 131.0
25.81760 148.0
25.82260 134.0
25.82760 125.0
25.83260 123.0
25.83760 120.0
25.84260 129.0
25.84760 136.0
25.85260 131.0
25.85760 132.0
25.86260 142.0
25.86760 135.0
25.87260 143.0
25.87760 126.0
25.88260 146.0
25.88760 138.0
25.89260 125.0
25.89760 114.0
25.90260 124.0
25.90760 120.0
25.91260 129.0
25.91760 127.0
25.92260 110.0
25.92760 107.0
25.93260 129.0
25.93760 126.0
25.94260 123.0
25.94760 143.0
25.95260 130.0
25.95760 118.0
25.96260 111.0
25.96760 119.0
25.97260 113.0
25.97760 118.0
25.98260 122.0
25.98760 124.0
25.99260 116.0
25.99760 99.0
26.00260 97.0
26.00760 105.0
26.01260 90.0
26.01760 115.0
26.02260 87.0
26.02760 116.0
26.03260 120.0
26.03760 104.0
26.04260 102.0
26.04760 124.0
26.05260 104.0
26.05760 110.0
26.06260 96.0
26.06760 120.0
26.07260 105.0
26.07760 89.0
26.08260 92.0
26.08760 115.0
26.09260 94.0
26.09760 98.0
26.10260 99.0
26.10760 102.0
26.11260 117.0
26.11760 110.0
26.12260 106.0
26.12760 107.0
26.13260 100.0
26.13760 92.0
26.14260 86.0
26.14760 79.0
26.15260 92.0
26.15760 118.0
26.16260 98.0
26.16760 102.0
26.17260 90.0
26.17760 98.0
26.18260 89.0
26.18760 81.0
26.19260 95.0
26.19760 97.0
26.20260 88.0
26.20760 101.0
26.21260 90.0
26.21760 77.0
26.22260 82.0
26.22760 91.0
26.23260 75.0
26.23760 93.0
26.24260 66.0
26.24760 91.0
26.25260 77.0
26.25760 75.0
26.26260 85.0
26.26760 86.0
26.27260 73.0
26.27760 85.0
26.28260 91.0
26.28760 78.0
26.29260 90.0
26.29760 86.0
26.30260 78.0
26.30760 80.0
26.31260 82.0
26.31760 75.0
26.32260 77.0
26.32760 65.0
26.33260 80.0
26.33760 82.0
26.34260 88.0
26.34760 88.0
26.35260 74.0
26.35760 80.0
26.36260 94.0
26.36760 65.0
26.37260 70.0
26.37760 74.0
26.38260 65.0
26.38760 91.0
26.39260 72.0
26.39760 66.0
26.40260 75.0
26.40760 71.0
26.41260 61.0
26.41760 70.0
26.42260 72.0
26.42760 69.0
26.43260 70.0
26.43760 69.0
26.44260 77.0
26.44760 80.0
26.45260 65.0
26.45760 75.0
26.46260 66.0
26.46760 75.0
26.47260 69.0
26.47760 77.0
26.48260 78.0
26.48760 59.0
26.49260 74.0
26.49760 73.0
26.50260 69.0
26.50760 69.0
26.51260 77.0
26.51760 66.0
26.52260 72.0
26.52760 74.0
26.53260 61.0
26.53760 74.0
26.54260 62.0
26.54760 60.0
26.55260 59.0
26.55760 49.0
26.56260 59.0
26.56760 63.0
26.57260 79.0
26.57760 59.0
26.58260 67.0
26.58760 73.0
26.59260 85.0
26.59760 65.0
26.60260 78.0
26.60760 65.0
26.61260 68.0
26.61760 66.0
26.62260 76.0
26.62760 66.0
26.63260 74.0
26.63760 69.0
26.64260 62.0
26.64760 60.0
26.65260 80.0
26.65760 50.0
26.66260 62.0
26.66760 67.0
26.67260 74.0
26.67760 58.0
26.68260 50.0
26.68760 66.0
26.69260 61.0
26.69760 63.0
26.70260 63.0
26.70760 64.0
26.71260 74.0
26.71760 63.0
26.72260 66.0
26.72760 75.0
26.73260 59.0
26.73760 66.0
26.74260 45.0
26.74760 58.0
26.75260 45.0
26.75760 51.0
26.76260 61.0
26.76760 73.0
26.77260 66.0
26.77760 70.0
26.78260 61.0
26.78760 65.0
26.79260 60.0
26.79760 43.0
26.80260 52.0
26.80760 57.0
26.81260 57.0
26.81760 66.0
26.82260 70.0
26.82760 62.0
26.83260 63.0
26.83760 64.0
26.84260 66.0
26.84760 61.0
26.85260 67.0
26.85760 71.0
26.86260 58.0
26.86760 57.0
26.87260 59.0
26.87760 52.0
26.88260 53.0
26.88760 58.0
26.89260 68.0
26.89760 64.0
26.90260 57.0
26.90760 57.0
26.91260 55.0
26.91760 58.0
26.92260 62.0
26.92760 57.0
26.93260 56.0
26.93760 53.0
26.94260 59.0
26.94760 65.0
26.95260 67.0
26.95760 61.0
26.96260 65.0
26.96760 53.0
26.97260 58.0
26.97760 55.0
26.98260 64.0
26.98760 50.0
26.99260 54.0
26.99760 55.0
27.00260 63.0
27.00760 53.0
27.01260 56.0
27.01760 70.0
27.02260 64.0
27.02760 42.0
27.03260 49.0
27.03760 75.0
27.04260 59.0
27.04760 45.0
27.05260 73.0