File: data/W6957m/XRD_2ThetaOmega/m_scan_2th-om_10-130deg_PIXscan_17min_C1.xy
10.0035 37.0
10.0872 45.0
10.1709 47.0
10.2546 46.0
10.3383 49.0
10.422 52.0
10.5057 44.0
10.5894 47.0
10.6731 51.0
10.7568 34.0
10.8405 41.0
10.9242 33.0
11.0079 57.0
11.0916 40.0
11.1753 51.0
11.259 41.0
11.3428 39.0
11.4265 44.0
11.5102 46.0
11.5939 44.0
11.6776 60.0
11.7613 37.0
11.845 43.0
11.9287 52.0
12.0124 49.0
12.0961 52.0
12.1798 39.0
12.2635 34.0
12.3472 44.0
12.4309 51.0
12.5146 41.0
12.5983 38.0
12.682 37.0
12.7657 42.0
12.8495 37.0
12.9332 44.0
13.0169 45.0
13.1006 35.0
13.1843 45.0
13.268 29.0
13.3517 37.0
13.4354 37.0
13.5191 47.0
13.6028 32.0
13.6865 38.0
13.7702 28.0
13.8539 35.0
13.9376 42.0
14.0213 37.0
14.105 36.0
14.1887 42.0
14.2724 42.0
14.3562 32.0
14.4399 38.0
14.5236 27.0
14.6073 26.0
14.691 39.0
14.7747 31.0
14.8584 40.0
14.9421 38.0
15.0258 35.0
15.1095 32.0
15.1932 41.0
15.2769 33.0
15.3606 37.0
15.4443 29.0
15.528 31.0
15.6117 33.0
15.6954 23.0
15.7791 30.0
15.8629 27.0
15.9466 31.0
16.0303 37.0
16.114 33.0
16.1977 30.0
16.2814 41.0
16.3651 40.0
16.4488 32.0
16.5325 29.0
16.6162 24.0
16.6999 35.0
16.7836 24.0
16.8673 22.0
16.951 29.0
17.0347 34.0
17.1184 24.0
17.2021 29.0
17.2858 31.0
17.3696 27.0
17.4533 38.0
17.537 28.0
17.6207 28.0
17.7044 24.0
17.7881 35.0
17.8718 30.0
17.9555 28.0
18.0392 31.0
18.1229 26.0
18.2066 19.0
18.2903 32.0
18.374 38.0
18.4577 31.0
18.5414 31.0
18.6251 23.0
18.7088 34.0
18.7925 28.0
18.8763 21.0
18.96 21.0
19.0437 24.0
19.1274 42.0
19.2111 21.0
19.2948 25.0
19.3785 30.0
19.4622 27.0
19.5459 23.0
19.6296 20.0
19.7133 23.0
19.797 25.0
19.8807 24.0
19.9644 22.0
20.0481 27.0
20.1318 32.0
20.2155 23.0
20.2992 15.0
20.383 23.0
20.4667 25.0
20.5504 23.0
20.6341 24.0
20.7178 23.0
20.8015 42.0
20.8852 36.0
20.9689 18.0
21.0526 21.0
21.1363 22.0
21.22 30.0
21.3037 24.0
21.3874 24.0
21.4711 23.0
21.5548 26.0
21.6385 24.0
21.7222 24.0
21.8059 25.0
21.8897 24.0
21.9734 19.0
22.0571 13.0
22.1408 23.0
22.2245 28.0
22.3082 24.0
22.3919 25.0
22.4756 35.0
22.5593 19.0
22.643 18.0
22.7267 24.0
22.8104 17.0
22.8941 21.0
22.9778 25.0
23.0615 24.0
23.1452 29.0
23.2289 20.0
23.3126 24.0
23.3964 18.0
23.4801 25.0
23.5638 24.0
23.6475 17.0
23.7312 21.0
23.8149 23.0
23.8986 24.0
23.9823 29.0
24.066 14.0
24.1497 25.0
24.2334 21.0
24.3171 26.0
24.4008 15.0
24.4845 14.0
24.5682 22.0
24.6519 13.0
24.7356 22.0
24.8193 19.0
24.9031 34.0
24.9868 24.0
25.0705 24.0
25.1542 18.0
25.2379 28.0
25.3216 27.0
25.4053 20.0
25.489 26.0
25.5727 17.0
25.6564 28.0
25.7401 29.0
25.8238 21.0
25.9075 15.0
25.9912 17.0
26.0749 21.0
26.1586 18.0
26.2423 28.0
26.326 23.0
26.4098 12.0
26.4935 26.0
26.5772 25.0
26.6609 25.0
26.7446 27.0
26.8283 31.0
26.912 21.0
26.9957 21.0
27.0794 22.0
27.1631 20.0
27.2468 16.0
27.3305 19.0
27.4142 17.0
27.4979 26.0
27.5816 20.0
27.6653 11.0
27.749 19.0
27.8327 37.0
27.9165 27.0
28.0002 24.0
28.0839 20.0
28.1676 22.0
28.2513 29.0
28.335 13.0
28.4187 20.0
28.5024 23.0
28.5861 12.0
28.6698 24.0
28.7535 12.0
28.8372 16.0
28.9209 29.0
29.0046 24.0
29.0883 23.0
29.172 23.0
29.2557 21.0
29.3394 18.0
29.4232 23.0
29.5069 18.0
29.5906 22.0
29.6743 20.0
29.758 20.0
29.8417 18.0
29.9254 13.0
30.0091 27.0
30.0928 19.0
30.1765 22.0
30.2602 13.0
30.3439 25.0
30.4276 20.0
30.5113 23.0
30.595 25.0
30.6787 33.0
30.7624 21.0
30.8461 27.0
30.9298 27.0
31.0136 19.0
31.0973 14.0
31.181 30.0
31.2647 18.0
31.3484 17.0
31.4321 20.0
31.5158 22.0
31.5995 22.0
31.6832 18.0
31.7669 16.0
31.8506 28.0
31.9343 25.0
32.018 14.0
32.1017 27.0
32.1854 18.0
32.2691 23.0
32.3528 27.0
32.4365 22.0
32.5203 24.0
32.604 16.0
32.6877 22.0
32.7714 18.0
32.8551 24.0
32.9388 18.0
33.0225 28.0
33.1062 12.0
33.1899 19.0
33.2736 23.0
33.3573 18.0
33.441 26.0
33.5247 20.0
33.6084 20.0
33.6921 21.0
33.7758 20.0
33.8595 22.0
33.9432 19.0
34.027 19.0
34.1107 22.0
34.1944 20.0
34.2781 16.0
34.3618 25.0
34.4455 23.0
34.5292 24.0
34.6129 20.0
34.6966 28.0
34.7803 14.0
34.864 22.0
34.9477 19.0
35.0314 22.0
35.1151 19.0
35.1988 23.0
35.2825 25.0
35.3662 18.0
35.4499 31.0
35.5337 20.0
35.6174 18.0
35.7011 19.0
35.7848 20.0
35.8685 13.0
35.9522 20.0
36.0359 27.0
36.1196 21.0
36.2033 16.0
36.287 22.0
36.3707 27.0
36.4544 13.0
36.5381 14.0
36.6218 18.0
36.7055 17.0
36.7892 21.0
36.8729 21.0
36.9566 21.0
37.0404 14.0
37.1241 21.0
37.2078 17.0
37.2915 22.0
37.3752 21.0
37.4589 11.0
37.5426 20.0
37.6263 28.0
37.71 17.0
37.7937 27.0
37.8774 22.0
37.9611 27.0
38.0448 16.0
38.1285 19.0
38.2122 24.0
38.2959 19.0
38.3796 21.0
38.4633 25.0
38.5471 17.0
38.6308 20.0
38.7145 16.0
38.7982 24.0
38.8819 17.0
38.9656 19.0
39.0493 26.0
39.133 12.0
39.2167 17.0
39.3004 14.0
39.3841 22.0
39.4678 16.0
39.5515 12.0
39.6352 25.0
39.7189 21.0
39.8026 11.0
39.8863 22.0
39.97 18.0
40.0538 20.0
40.1375 14.0
40.2212 20.0
40.3049 21.0
40.3886 13.0
40.4723 23.0
40.556 30.0
40.6397 12.0
40.7234 25.0
40.8071 23.0
40.8908 21.0
40.9745 23.0
41.0582 23.0
41.1419 18.0
41.2256 24.0
41.3093 22.0
41.393 18.0
41.4767 21.0
41.5605 24.0
41.6442 21.0
41.7279 21.0
41.8116 13.0
41.8953 25.0
41.979 26.0
42.0627 25.0
42.1464 19.0
42.2301 22.0
42.3138 23.0
42.3975 26.0
42.4812 20.0
42.5649 22.0
42.6486 22.0
42.7323 9.0
42.816 27.0
42.8997 23.0
42.9834 21.0
43.0672 23.0
43.1509 20.0
43.2346 22.0
43.3183 18.0
43.402 31.0
43.4857 22.0
43.5694 22.0
43.6531 18.0
43.7368 22.0
43.8205 18.0
43.9042 24.0
43.9879 27.0
44.0716 20.0
44.1553 24.0
44.239 31.0
44.3227 39.0
44.4064 38.0
44.4901 36.0
44.5739 44.0
44.6576 35.0
44.7413 24.0
44.825 17.0
44.9087 21.0
44.9924 13.0
45.0761 27.0
45.1598 20.0
45.2435 19.0
45.3272 24.0
45.4109 27.0
45.4946 21.0
45.5783 18.0
45.662 22.0
45.7457 31.0
45.8294 24.0
45.9131 18.0
45.9968 22.0
46.0806 19.0
46.1643 26.0
46.248 22.0
46.3317 20.0
46.4154 16.0
46.4991 25.0
46.5828 23.0
46.6665 14.0
46.7502 22.0
46.8339 30.0
46.9176 26.0
47.0013 16.0
47.085 14.0
47.1687 20.0
47.2524 27.0
47.3361 29.0
47.4198 17.0
47.5035 17.0
47.5873 31.0
47.671 25.0
47.7547 29.0
47.8384 27.0
47.9221 18.0
48.0058 14.0
48.0895 33.0
48.1732 20.0
48.2569 18.0
48.3406 18.0
48.4243 22.0
48.508 17.0
48.5917 18.0
48.6754 27.0
48.7591 24.0
48.8428 26.0
48.9265 23.0
49.0102 25.0
49.094 27.0
49.1777 29.0
49.2614 23.0
49.3451 25.0
49.4288 17.0
49.5125 21.0
49.5962 14.0
49.6799 14.0
49.7636 17.0
49.8473 17.0
49.931 33.0
50.0147 9.0
50.0984 20.0
50.1821 25.0
50.2658 28.0
50.3495 18.0
50.4332 24.0
50.5169 20.0
50.6007 31.0
50.6844 22.0
50.7681 27.0
50.8518 23.0
50.9355 26.0
51.0192 19.0
51.1029 22.0
51.1866 23.0
51.2703 23.0
51.354 28.0
51.4377 26.0
51.5214 25.0
51.6051 31.0
51.6888 24.0
51.7725 17.0
51.8562 20.0
51.9399 24.0
52.0236 11.0
52.1074 23.0
52.1911 23.0
52.2748 13.0
52.3585 24.0
52.4422 22.0
52.5259 29.0
52.6096 21.0
52.6933 13.0
52.777 22.0
52.8607 23.0
52.9444 22.0
53.0281 22.0
53.1118 25.0
53.1955 20.0
53.2792 27.0
53.3629 15.0
53.4466 23.0
53.5303 31.0
53.6141 27.0
53.6978 22.0
53.7815 26.0
53.8652 29.0
53.9489 30.0
54.0326 28.0
54.1163 27.0
54.2 26.0
54.2837 29.0
54.3674 27.0
54.4511 24.0
54.5348 16.0
54.6185 26.0
54.7022 28.0
54.7859 22.0
54.8696 12.0
54.9533 20.0
55.037 23.0
55.1208 23.0
55.2045 26.0
55.2882 27.0
55.3719 22.0
55.4556 27.0
55.5393 26.0
55.623 24.0
55.7067 16.0
55.7904 26.0
55.8741 15.0
55.9578 16.0
56.0415 28.0
56.1252 22.0
56.2089 17.0
56.2926 22.0
56.3763 21.0
56.46 22.0
56.5437 29.0
56.6275 24.0
56.7112 23.0
56.7949 32.0
56.8786 29.0
56.9623 24.0
57.046 24.0
57.1297 32.0
57.2134 19.0
57.2971 22.0
57.3808 29.0
57.4645 26.0
57.5482 26.0
57.6319 36.0
57.7156 27.0
57.7993 78.0
57.883 57.0
57.9667 37.0
58.0504 28.0
58.1342 28.0
58.2179 23.0
58.3016 25.0
58.3853 22.0
58.469 21.0
58.5527 26.0
58.6364 22.0
58.7201 17.0
58.8038 21.0
58.8875 16.0
58.9712 20.0
59.0549 19.0
59.1386 19.0
59.2223 25.0
59.306 20.0
59.3897 28.0
59.4734 20.0
59.5571 23.0
59.6409 22.0
59.7246 23.0
59.8083 27.0
59.892 27.0
59.9757 17.0
60.0594 23.0
60.1431 22.0
60.2268 36.0
60.3105 24.0
60.3942 24.0
60.4779 28.0
60.5616 31.0
60.6453 22.0
60.729 42.0
60.8127 277.0
60.8964 112.0
60.9801 43.0
61.0638 26.0
61.1476 28.0
61.2313 30.0
61.315 22.0
61.3987 28.0
61.4824 28.0
61.5661 33.0
61.6498 36.0
61.7335 28.0
61.8172 26.0
61.9009 34.0
61.9846 44.0
62.0683 34.0
62.152 33.0
62.2357 23.0
62.3194 33.0
62.4031 32.0
62.4868 49.0
62.5705 36.0
62.6543 23.0
62.738 39.0
62.8217 24.0
62.9054 43.0
62.9891 39.0
63.0728 45.0
63.1565 57.0
63.2402 37.0
63.3239 42.0
63.4076 62.0
63.4913 72.0
63.575 58.0
63.6587 80.0
63.7424 66.0
63.8261 79.0
63.9098 79.0
63.9935 97.0
64.0772 115.0
64.161 128.0
64.2447 200.0
64.3284 321.0
64.4121 508.0
64.4958 929.0
64.5795 3666.0
64.6632 17161.0
64.7469 8657.0
64.8306 10069.0
64.9143 5928.0
64.998 2163.0
65.0817 1039.0
65.1654 457.0
65.2491 308.0
65.3328 210.0
65.4165 123.0
65.5002 126.0
65.5839 99.0
65.6677 102.0
65.7514 78.0
65.8351 75.0
65.9188 68.0
66.0025 58.0
66.0862 73.0
66.1699 63.0
66.2536 46.0
66.3373 71.0
66.421 52.0
66.5047 77.0
66.5884 69.0
66.6721 75.0
66.7558 77.0
66.8395 96.0
66.9232 87.0
67.0069 80.0
67.0906 74.0
67.1744 124.0
67.2581 106.0
67.3418 115.0
67.4255 134.0
67.5092 134.0
67.5929 189.0
67.6766 263.0
67.7603 513.0
67.844 809.0
67.9277 756.0
68.0114 1593.0
68.0951 9113.0
68.1788 54617.0
68.2625 4266.0
68.3462 36951.0
68.4299 2796.0
68.5136 874.0
68.5973 495.0
68.6811 374.0
68.7648 270.0
68.8485 175.0
68.9322 175.0
69.0159 124.0
69.0996 106.0
69.1833 103.0
69.267 100.0
69.3507 79.0
69.4344 83.0
69.5181 57.0
69.6018 42.0
69.6855 45.0
69.7692 52.0
69.8529 40.0
69.9366 47.0
70.0203 37.0
70.104 38.0
70.1878 39.0
70.2715 32.0
70.3552 41.0
70.4389 34.0
70.5226 35.0
70.6063 34.0
70.69 36.0
70.7737 38.0
70.8574 21.0
70.9411 25.0
71.0248 33.0
71.1085 36.0
71.1922 28.0
71.2759 23.0
71.3596 41.0
71.4433 34.0
71.527 29.0
71.6107 33.0
71.6945 33.0
71.7782 32.0
71.8619 29.0
71.9456 46.0
72.0293 25.0
72.113 31.0
72.1967 29.0
72.2804 19.0
72.3641 33.0
72.4478 27.0
72.5315 38.0
72.6152 28.0
72.6989 23.0
72.7826 29.0
72.8663 26.0
72.95 23.0
73.0337 27.0
73.1174 24.0
73.2012 15.0
73.2849 28.0
73.3686 29.0
73.4523 28.0
73.536 28.0
73.6197 36.0
73.7034 24.0
73.7871 30.0
73.8708 22.0
73.9545 34.0
74.0382 27.0
74.1219 18.0
74.2056 19.0
74.2893 23.0
74.373 22.0
74.4567 32.0
74.5404 36.0
74.6241 28.0
74.7079 31.0
74.7916 27.0
74.8753 32.0
74.959 27.0
75.0427 37.0
75.1264 36.0
75.2101 27.0
75.2938 26.0
75.3775 34.0
75.4612 23.0
75.5449 22.0
75.6286 29.0
75.7123 29.0
75.796 28.0
75.8797 30.0
75.9634 24.0
76.0471 27.0
76.1308 23.0
76.2146 23.0
76.2983 27.0
76.382 28.0
76.4657 29.0
76.5494 27.0
76.6331 30.0
76.7168 34.0
76.8005 27.0
76.8842 30.0
76.9679 34.0
77.0516 31.0
77.1353 25.0
77.219 29.0
77.3027 27.0
77.3864 32.0
77.4701 30.0
77.5538 20.0
77.6375 28.0
77.7213 41.0
77.805 26.0
77.8887 30.0
77.9724 22.0
78.0561 33.0
78.1398 30.0
78.2235 20.0
78.3072 24.0
78.3909 25.0
78.4746 26.0
78.5583 34.0
78.642 27.0
78.7257 40.0
78.8094 18.0
78.8931 37.0
78.9768 31.0
79.0605 33.0
79.1442 25.0
79.228 34.0
79.3117 21.0
79.3954 27.0
79.4791 29.0
79.5628 26.0
79.6465 27.0
79.7302 19.0
79.8139 21.0
79.8976 21.0
79.9813 21.0
80.065 34.0
80.1487 24.0
80.2324 26.0
80.3161 18.0
80.3998 38.0
80.4835 21.0
80.5672 31.0
80.6509 25.0
80.7347 25.0
80.8184 31.0
80.9021 28.0
80.9858 36.0
81.0695 34.0
81.1532 26.0
81.2369 42.0
81.3206 27.0
81.4043 32.0
81.488 35.0
81.5717 36.0
81.6554 27.0
81.7391 28.0
81.8228 23.0
81.9065 36.0
81.9902 40.0
82.0739 32.0
82.1576 28.0
82.2414 27.0
82.3251 35.0
82.4088 36.0
82.4925 32.0
82.5762 31.0
82.6599 27.0
82.7436 27.0
82.8273 33.0
82.911 35.0
82.9947 23.0
83.0784 29.0
83.1621 32.0
83.2458 31.0
83.3295 32.0
83.4132 22.0
83.4969 33.0
83.5806 28.0
83.6643 27.0
83.7481 20.0
83.8318 28.0
83.9155 17.0
83.9992 27.0
84.0829 28.0
84.1666 30.0
84.2503 33.0
84.334 23.0
84.4177 19.0
84.5014 26.0
84.5851 28.0
84.6688 25.0
84.7525 26.0
84.8362 23.0
84.9199 28.0
85.0036 29.0
85.0873 26.0
85.171 25.0
85.2548 23.0
85.3385 25.0
85.4222 27.0
85.5059 22.0
85.5896 16.0
85.6733 20.0
85.757 34.0
85.8407 30.0
85.9244 28.0
86.0081 22.0
86.0918 22.0
86.1755 26.0
86.2592 23.0
86.3429 26.0
86.4266 39.0
86.5103 23.0
86.594 24.0
86.6777 18.0
86.7615 24.0
86.8452 42.0
86.9289 23.0
87.0126 28.0
87.0963 28.0
87.18 22.0
87.2637 32.0
87.3474 26.0
87.4311 23.0
87.5148 21.0
87.5985 29.0
87.6822 31.0
87.7659 26.0
87.8496 32.0
87.9333 26.0
88.017 29.0
88.1007 29.0
88.1844 36.0
88.2682 28.0
88.3519 26.0
88.4356 34.0
88.5193 28.0
88.603 25.0
88.6867 38.0
88.7704 26.0
88.8541 34.0
88.9378 25.0
89.0215 25.0
89.1052 32.0
89.1889 33.0
89.2726 26.0
89.3563 31.0
89.44 22.0
89.5237 27.0
89.6074 28.0
89.6911 17.0
89.7749 28.0
89.8586 27.0
89.9423 29.0
90.026 31.0
90.1097 29.0
90.1934 34.0
90.2771 26.0
90.3608 42.0
90.4445 30.0
90.5282 27.0
90.6119 29.0
90.6956 28.0
90.7793 35.0
90.863 26.0
90.9467 32.0
91.0304 35.0
91.1141 36.0
91.1978 20.0
91.2816 26.0
91.3653 27.0
91.449 28.0
91.5327 24.0
91.6164 22.0
91.7001 24.0
91.7838 30.0
91.8675 17.0
91.9512 27.0
92.0349 26.0
92.1186 28.0
92.2023 27.0
92.286 28.0
92.3697 26.0
92.4534 37.0
92.5371 23.0
92.6208 31.0
92.7045 32.0
92.7883 24.0
92.872 38.0
92.9557 24.0
93.0394 24.0
93.1231 38.0
93.2068 27.0
93.2905 28.0
93.3742 24.0
93.4579 31.0
93.5416 32.0
93.6253 24.0
93.709 29.0
93.7927 25.0
93.8764 20.0
93.9601 34.0
94.0438 21.0
94.1275 25.0
94.2112 29.0
94.295 29.0
94.3787 26.0
94.4624 32.0
94.5461 26.0
94.6298 21.0
94.7135 27.0
94.7972 20.0
94.8809 27.0
94.9646 32.0
95.0483 30.0
95.132 19.0
95.2157 31.0
95.2994 28.0
95.3831 31.0
95.4668 31.0
95.5505 24.0
95.6342 29.0
95.7179 24.0
95.8017 30.0
95.8854 32.0
95.9691 27.0
96.0528 23.0
96.1365 36.0
96.2202 13.0
96.3039 32.0
96.3876 24.0
96.4713 31.0
96.555 28.0
96.6387 22.0
96.7224 39.0
96.8061 33.0
96.8898 20.0
96.9735 24.0
97.0572 33.0
97.1409 29.0
97.2246 32.0
97.3084 26.0
97.3921 21.0
97.4758 21.0
97.5595 22.0
97.6432 27.0
97.7269 34.0
97.8106 22.0
97.8943 22.0
97.978 23.0
98.0617 34.0
98.1454 26.0
98.2291 31.0
98.3128 24.0
98.3965 33.0
98.4802 22.0
98.5639 28.0
98.6476 25.0
98.7313 35.0
98.8151 27.0
98.8988 33.0
98.9825 33.0
99.0662 28.0
99.1499 37.0
99.2336 34.0
99.3173 36.0
99.401 26.0
99.4847 22.0
99.5684 34.0
99.6521 38.0
99.7358 34.0
99.8195 31.0
99.9032 29.0
99.9869 35.0
100.071 28.0
100.154 32.0
100.238 34.0
100.322 29.0
100.405 27.0
100.489 37.0
100.573 20.0
100.657 33.0
100.74 35.0
100.824 21.0
100.908 30.0
100.991 26.0
101.075 25.0
101.159 32.0
101.243 14.0
101.326 26.0
101.41 24.0
101.494 23.0
101.577 26.0
101.661 31.0
101.745 25.0
101.828 25.0
101.912 29.0
101.996 34.0
102.08 28.0
102.163 34.0
102.247 27.0
102.331 26.0
102.414 18.0
102.498 23.0
102.582 29.0
102.666 25.0
102.749 37.0
102.833 28.0
102.917 34.0
103 30.0
103.084 28.0
103.168 33.0
103.251 29.0
103.335 34.0
103.419 33.0
103.503 29.0
103.586 23.0
103.67 25.0
103.754 24.0
103.837 28.0
103.921 27.0
104.005 32.0
104.089 21.0
104.172 35.0
104.256 24.0
104.34 25.0
104.423 35.0
104.507 28.0
104.591 26.0
104.674 32.0
104.758 33.0
104.842 29.0
104.926 35.0
105.009 32.0
105.093 40.0
105.177 25.0
105.26 33.0
105.344 30.0
105.428 33.0
105.511 34.0
105.595 24.0
105.679 31.0
105.763 27.0
105.846 29.0
105.93 39.0
106.014 25.0
106.097 33.0
106.181 18.0
106.265 31.0
106.349 26.0
106.432 22.0
106.516 27.0
106.6 20.0
106.683 15.0
106.767 34.0
106.851 27.0
106.934 33.0
107.018 25.0
107.102 29.0
107.186 24.0
107.269 36.0
107.353 25.0
107.437 41.0
107.52 25.0
107.604 28.0
107.688 28.0
107.772 30.0
107.855 32.0
107.939 32.0
108.023 31.0
108.106 34.0
108.19 36.0
108.274 27.0
108.357 27.0
108.441 33.0
108.525 22.0
108.609 37.0
108.692 33.0
108.776 31.0
108.86 27.0
108.943 35.0
109.027 30.0
109.111 27.0
109.195 33.0
109.278 28.0
109.362 29.0
109.446 23.0
109.529 24.0
109.613 30.0
109.697 41.0
109.78 29.0
109.864 33.0
109.948 36.0
110.032 31.0
110.115 32.0
110.199 34.0
110.283 37.0
110.366 19.0
110.45 27.0
110.534 35.0
110.618 35.0
110.701 33.0
110.785 31.0
110.869 28.0
110.952 35.0
111.036 19.0
111.12 31.0
111.203 35.0
111.287 27.0
111.371 24.0
111.455 25.0
111.538 29.0
111.622 23.0
111.706 31.0
111.789 25.0
111.873 19.0
111.957 29.0
112.041 28.0
112.124 28.0
112.208 33.0
112.292 25.0
112.375 30.0
112.459 20.0
112.543 37.0
112.626 37.0
112.71 27.0
112.794 26.0
112.878 19.0
112.961 38.0
113.045 25.0
113.129 34.0
113.212 29.0
113.296 27.0
113.38 37.0
113.464 27.0
113.547 34.0
113.631 30.0
113.715 41.0
113.798 17.0
113.882 36.0
113.966 35.0
114.049 33.0
114.133 26.0
114.217 32.0
114.301 29.0
114.384 22.0
114.468 33.0
114.552 23.0
114.635 30.0
114.719 31.0
114.803 28.0
114.887 30.0
114.97 40.0
115.054 24.0
115.138 31.0
115.221 24.0
115.305 37.0
115.389 31.0
115.472 25.0
115.556 30.0
115.64 28.0
115.724 27.0
115.807 27.0
115.891 31.0
115.975 29.0
116.058 30.0
116.142 27.0
116.226 39.0
116.31 29.0
116.393 32.0
116.477 43.0
116.561 30.0
116.644 20.0
116.728 27.0
116.812 26.0
116.895 26.0
116.979 38.0
117.063 37.0
117.147 26.0
117.23 23.0
117.314 35.0
117.398 24.0
117.481 23.0
117.565 34.0
117.649 28.0
117.733 32.0
117.816 27.0
117.9 19.0
117.984 33.0
118.067 31.0
118.151 27.0
118.235 23.0
118.318 25.0
118.402 36.0
118.486 17.0
118.57 23.0
118.653 28.0
118.737 32.0
118.821 34.0
118.904 34.0
118.988 26.0
119.072 23.0
119.156 20.0
119.239 34.0
119.323 33.0
119.407 32.0
119.49 31.0
119.574 31.0
119.658 27.0
119.741 29.0
119.825 34.0
119.909 34.0
119.993 26.0
120.076 22.0
120.16 30.0
120.244 20.0
120.327 20.0
120.411 24.0
120.495 41.0
120.578 27.0
120.662 23.0
120.746 36.0
120.83 28.0
120.913 37.0
120.997 30.0
121.081 34.0
121.164 27.0
121.248 30.0
121.332 35.0
121.416 26.0
121.499 32.0
121.583 27.0
121.667 26.0
121.75 27.0
121.834 28.0
121.918 27.0
122.001 40.0
122.085 32.0
122.169 36.0
122.253 30.0
122.336 28.0
122.42 31.0
122.504 26.0
122.587 30.0
122.671 27.0
122.755 24.0
122.839 34.0
122.922 35.0
123.006 34.0
123.09 27.0
123.173 39.0
123.257 40.0
123.341 33.0
123.424 23.0
123.508 37.0
123.592 35.0
123.676 37.0
123.759 37.0
123.843 34.0
123.927 36.0
124.01 30.0
124.094 37.0
124.178 31.0
124.262 25.0
124.345 30.0
124.429 30.0
124.513 29.0
124.596 28.0
124.68 30.0
124.764 21.0
124.847 34.0
124.931 38.0
125.015 46.0
125.099 35.0
125.182 28.0
125.266 22.0
125.35 28.0
125.433 41.0
125.517 26.0
125.601 36.0
125.685 35.0
125.768 43.0
125.852 24.0
125.936 26.0
126.019 27.0
126.103 40.0
126.187 27.0
126.27 31.0
126.354 39.0
126.438 36.0
126.522 39.0
126.605 35.0
126.689 20.0
126.773 26.0
126.856 21.0
126.94 33.0
127.024 39.0
127.108 33.0
127.191 20.0
127.275 30.0
127.359 32.0
127.442 30.0
127.526 32.0
127.61 26.0
127.693 22.0
127.777 30.0
127.861 38.0
127.945 24.0
128.028 24.0
128.112 28.0
128.196 26.0
128.279 35.0
128.363 29.0
128.447 47.0
128.531 23.0
128.614 25.0
128.698 33.0
128.782 41.0
128.865 34.0
128.949 24.0
129.033 31.0
129.116 29.0
129.2 32.0
129.284 35.0
129.368 35.0
129.451 29.0
129.535 25.0
129.619 24.0
129.702 29.0
129.786 30.0
129.87 26.0
129.954 38.0
129.998 34.0