File: data/W6905r/XRD_Omega/scan_omega_4deg_step_0.005deg0_C6.xy
22.94010 73.0
22.94510 64.0
22.95010 80.0
22.95510 77.0
22.96010 81.0
22.96510 73.0
22.97010 57.0
22.97510 80.0
22.98010 72.0
22.98510 62.0
22.99010 83.0
22.99510 71.0
23.00010 73.0
23.00510 85.0
23.01010 81.0
23.01510 72.0
23.02010 72.0
23.02510 84.0
23.03010 67.0
23.03510 73.0
23.04010 74.0
23.04510 88.0
23.05010 73.0
23.05510 75.0
23.06010 71.0
23.06510 74.0
23.07010 68.0
23.07510 65.0
23.08010 80.0
23.08510 98.0
23.09010 101.0
23.09510 77.0
23.10010 86.0
23.10510 96.0
23.11010 71.0
23.11510 72.0
23.12010 83.0
23.12510 86.0
23.13010 83.0
23.13510 78.0
23.14010 67.0
23.14510 78.0
23.15010 92.0
23.15510 93.0
23.16010 69.0
23.16510 108.0
23.17010 79.0
23.17510 80.0
23.18010 81.0
23.18510 86.0
23.19010 87.0
23.19510 76.0
23.20010 75.0
23.20510 84.0
23.21010 85.0
23.21510 88.0
23.22010 75.0
23.22510 82.0
23.23010 86.0
23.23510 97.0
23.24010 67.0
23.24510 99.0
23.25010 83.0
23.25510 81.0
23.26010 80.0
23.26510 86.0
23.27010 109.0
23.27510 92.0
23.28010 103.0
23.28510 77.0
23.29010 94.0
23.29510 74.0
23.30010 91.0
23.30510 67.0
23.31010 103.0
23.31510 89.0
23.32010 76.0
23.32510 74.0
23.33010 88.0
23.33510 77.0
23.34010 91.0
23.34510 89.0
23.35010 88.0
23.35510 67.0
23.36010 95.0
23.36510 85.0
23.37010 75.0
23.37510 101.0
23.38010 101.0
23.38510 98.0
23.39010 93.0
23.39510 95.0
23.40010 94.0
23.40510 111.0
23.41010 105.0
23.41510 101.0
23.42010 104.0
23.42510 94.0
23.43010 92.0
23.43510 109.0
23.44010 112.0
23.44510 87.0
23.45010 93.0
23.45510 104.0
23.46010 103.0
23.46510 89.0
23.47010 97.0
23.47510 95.0
23.48010 110.0
23.48510 113.0
23.49010 113.0
23.49510 103.0
23.50010 103.0
23.50510 112.0
23.51010 112.0
23.51510 104.0
23.52010 99.0
23.52510 93.0
23.53010 117.0
23.53510 101.0
23.54010 98.0
23.54510 109.0
23.55010 119.0
23.55510 120.0
23.56010 120.0
23.56510 137.0
23.57010 106.0
23.57510 105.0
23.58010 106.0
23.58510 117.0
23.59010 114.0
23.59510 128.0
23.60010 135.0
23.60510 123.0
23.61010 126.0
23.61510 117.0
23.62010 124.0
23.62510 106.0
23.63010 128.0
23.63510 132.0
23.64010 110.0
23.64510 131.0
23.65010 140.0
23.65510 121.0
23.66010 139.0
23.66510 122.0
23.67010 122.0
23.67510 134.0
23.68010 151.0
23.68510 127.0
23.69010 120.0
23.69510 145.0
23.70010 150.0
23.70510 139.0
23.71010 134.0
23.71510 142.0
23.72010 133.0
23.72510 154.0
23.73010 140.0
23.73510 166.0
23.74010 135.0
23.74510 143.0
23.75010 124.0
23.75510 136.0
23.76010 170.0
23.76510 174.0
23.77010 154.0
23.77510 147.0
23.78010 133.0
23.78510 154.0
23.79010 161.0
23.79510 146.0
23.80010 132.0
23.80510 153.0
23.81010 136.0
23.81510 194.0
23.82010 192.0
23.82510 177.0
23.83010 164.0
23.83510 201.0
23.84010 198.0
23.84510 160.0
23.85010 174.0
23.85510 168.0
23.86010 196.0
23.86510 161.0
23.87010 173.0
23.87510 191.0
23.88010 193.0
23.88510 196.0
23.89010 199.0
23.89510 211.0
23.90010 193.0
23.90510 216.0
23.91010 176.0
23.91510 210.0
23.92010 199.0
23.92510 215.0
23.93010 199.0
23.93510 210.0
23.94010 207.0
23.94510 218.0
23.95010 221.0
23.95510 231.0
23.96010 217.0
23.96510 232.0
23.97010 249.0
23.97510 214.0
23.98010 231.0
23.98510 241.0
23.99010 243.0
23.99510 267.0
24.00010 258.0
24.00510 232.0
24.01010 219.0
24.01510 247.0
24.02010 227.0
24.02510 243.0
24.03010 253.0
24.03510 263.0
24.04010 229.0
24.04510 273.0
24.05010 281.0
24.05510 235.0
24.06010 248.0
24.06510 286.0
24.07010 270.0
24.07510 258.0
24.08010 283.0
24.08510 307.0
24.09010 275.0
24.09510 256.0
24.10010 289.0
24.10510 279.0
24.11010 290.0
24.11510 290.0
24.12010 309.0
24.12510 296.0
24.13010 304.0
24.13510 316.0
24.14010 290.0
24.14510 321.0
24.15010 340.0
24.15510 316.0
24.16010 341.0
24.16510 336.0
24.17010 317.0
24.17510 320.0
24.18010 347.0
24.18510 334.0
24.19010 330.0
24.19510 351.0
24.20010 359.0
24.20510 339.0
24.21010 368.0
24.21510 359.0
24.22010 345.0
24.22510 366.0
24.23010 339.0
24.23510 403.0
24.24010 373.0
24.24510 384.0
24.25010 389.0
24.25510 375.0
24.26010 362.0
24.26510 354.0
24.27010 429.0
24.27510 418.0
24.28010 417.0
24.28510 440.0
24.29010 428.0
24.29510 442.0
24.30010 418.0
24.30510 457.0
24.31010 422.0
24.31510 425.0
24.32010 455.0
24.32510 453.0
24.33010 448.0
24.33510 438.0
24.34010 503.0
24.34510 498.0
24.35010 494.0
24.35510 457.0
24.36010 535.0
24.36510 494.0
24.37010 487.0
24.37510 516.0
24.38010 477.0
24.38510 509.0
24.39010 527.0
24.39510 507.0
24.40010 523.0
24.40510 552.0
24.41010 528.0
24.41510 495.0
24.42010 521.0
24.42510 545.0
24.43010 547.0
24.43510 580.0
24.44010 601.0
24.44510 593.0
24.45010 575.0
24.45510 577.0
24.46010 592.0
24.46510 615.0
24.47010 584.0
24.47510 655.0
24.48010 618.0
24.48510 604.0
24.49010 647.0
24.49510 604.0
24.50010 619.0
24.50510 641.0
24.51010 641.0
24.51510 615.0
24.52010 654.0
24.52510 649.0
24.53010 647.0
24.53510 663.0
24.54010 709.0
24.54510 666.0
24.55010 662.0
24.55510 714.0
24.56010 757.0
24.56510 714.0
24.57010 644.0
24.57510 704.0
24.58010 700.0
24.58510 716.0
24.59010 747.0
24.59510 696.0
24.60010 793.0
24.60510 735.0
24.61010 736.0
24.61510 751.0
24.62010 808.0
24.62510 734.0
24.63010 763.0
24.63510 743.0
24.64010 741.0
24.64510 742.0
24.65010 756.0
24.65510 733.0
24.66010 806.0
24.66510 782.0
24.67010 787.0
24.67510 777.0
24.68010 811.0
24.68510 793.0
24.69010 859.0
24.69510 781.0
24.70010 860.0
24.70510 848.0
24.71010 785.0
24.71510 797.0
24.72010 847.0
24.72510 867.0
24.73010 826.0
24.73510 836.0
24.74010 818.0
24.74510 831.0
24.75010 847.0
24.75510 827.0
24.76010 832.0
24.76510 825.0
24.77010 855.0
24.77510 877.0
24.78010 881.0
24.78510 908.0
24.79010 858.0
24.79510 880.0
24.80010 871.0
24.80510 829.0
24.81010 907.0
24.81510 903.0
24.82010 881.0
24.82510 890.0
24.83010 869.0
24.83510 851.0
24.84010 858.0
24.84510 883.0
24.85010 843.0
24.85510 882.0
24.86010 874.0
24.86510 879.0
24.87010 885.0
24.87510 859.0
24.88010 887.0
24.88510 917.0
24.89010 953.0
24.89510 905.0
24.90010 880.0
24.90510 861.0
24.91010 981.0
24.91510 946.0
24.92010 954.0
24.92510 926.0
24.93010 890.0
24.93510 929.0
24.94010 878.0
24.94510 897.0
24.95010 890.0
24.95510 889.0
24.96010 911.0
24.96510 948.0
24.97010 925.0
24.97510 941.0
24.98010 931.0
24.98510 893.0
24.99010 905.0
24.99510 949.0
25.00010 892.0
25.00510 935.0
25.01010 927.0
25.01510 889.0
25.02010 908.0
25.02510 919.0
25.03010 911.0
25.03510 865.0
25.04010 956.0
25.04510 905.0
25.05010 898.0
25.05510 862.0
25.06010 889.0
25.06510 857.0
25.07010 884.0
25.07510 826.0
25.08010 867.0
25.08510 855.0
25.09010 880.0
25.09510 825.0
25.10010 851.0
25.10510 880.0
25.11010 818.0
25.11510 814.0
25.12010 793.0
25.12510 841.0
25.13010 816.0
25.13510 811.0
25.14010 849.0
25.14510 825.0
25.15010 780.0
25.15510 791.0
25.16010 788.0
25.16510 798.0
25.17010 817.0
25.17510 755.0
25.18010 752.0
25.18510 723.0
25.19010 712.0
25.19510 746.0
25.20010 677.0
25.20510 741.0
25.21010 677.0
25.21510 688.0
25.22010 613.0
25.22510 720.0
25.23010 692.0
25.23510 669.0
25.24010 738.0
25.24510 718.0
25.25010 628.0
25.25510 706.0
25.26010 666.0
25.26510 667.0
25.27010 673.0
25.27510 636.0
25.28010 593.0
25.28510 629.0
25.29010 635.0
25.29510 681.0
25.30010 624.0
25.30510 651.0
25.31010 599.0
25.31510 619.0
25.32010 586.0
25.32510 648.0
25.33010 590.0
25.33510 564.0
25.34010 578.0
25.34510 574.0
25.35010 562.0
25.35510 568.0
25.36010 596.0
25.36510 554.0
25.37010 566.0
25.37510 530.0
25.38010 558.0
25.38510 556.0
25.39010 555.0
25.39510 521.0
25.40010 514.0
25.40510 545.0
25.41010 486.0
25.41510 526.0
25.42010 506.0
25.42510 522.0
25.43010 526.0
25.43510 488.0
25.44010 486.0
25.44510 511.0
25.45010 454.0
25.45510 476.0
25.46010 425.0
25.46510 478.0
25.47010 429.0
25.47510 446.0
25.48010 458.0
25.48510 440.0
25.49010 454.0
25.49510 431.0
25.50010 407.0
25.50510 418.0
25.51010 404.0
25.51510 387.0
25.52010 427.0
25.52510 417.0
25.53010 411.0
25.53510 406.0
25.54010 395.0
25.54510 385.0
25.55010 368.0
25.55510 377.0
25.56010 373.0
25.56510 365.0
25.57010 345.0
25.57510 351.0
25.58010 357.0
25.58510 358.0
25.59010 350.0
25.59510 335.0
25.60010 343.0
25.60510 345.0
25.61010 336.0
25.61510 333.0
25.62010 330.0
25.62510 339.0
25.63010 317.0
25.63510 338.0
25.64010 301.0
25.64510 328.0
25.65010 311.0
25.65510 303.0
25.66010 314.0
25.66510 317.0
25.67010 317.0
25.67510 309.0
25.68010 274.0
25.68510 323.0
25.69010 276.0
25.69510 272.0
25.70010 264.0
25.70510 284.0
25.71010 271.0
25.71510 287.0
25.72010 277.0
25.72510 278.0
25.73010 254.0
25.73510 259.0
25.74010 260.0
25.74510 288.0
25.75010 287.0
25.75510 263.0
25.76010 234.0
25.76510 250.0
25.77010 260.0
25.77510 248.0
25.78010 240.0
25.78510 233.0
25.79010 241.0
25.79510 239.0
25.80010 211.0
25.80510 254.0
25.81010 225.0
25.81510 220.0
25.82010 199.0
25.82510 178.0
25.83010 212.0
25.83510 231.0
25.84010 210.0
25.84510 213.0
25.85010 229.0
25.85510 195.0
25.86010 210.0
25.86510 198.0
25.87010 200.0
25.87510 194.0
25.88010 209.0
25.88510 169.0
25.89010 186.0
25.89510 168.0
25.90010 207.0
25.90510 172.0
25.91010 194.0
25.91510 174.0
25.92010 182.0
25.92510 181.0
25.93010 179.0
25.93510 158.0
25.94010 159.0
25.94510 165.0
25.95010 161.0
25.95510 165.0
25.96010 188.0
25.96510 167.0
25.97010 167.0
25.97510 148.0
25.98010 161.0
25.98510 155.0
25.99010 168.0
25.99510 158.0
26.00010 151.0
26.00510 154.0
26.01010 180.0
26.01510 143.0
26.02010 139.0
26.02510 167.0
26.03010 157.0
26.03510 128.0
26.04010 149.0
26.04510 137.0
26.05010 143.0
26.05510 135.0
26.06010 141.0
26.06510 152.0
26.07010 146.0
26.07510 137.0
26.08010 127.0
26.08510 134.0
26.09010 126.0
26.09510 118.0
26.10010 123.0
26.10510 137.0
26.11010 124.0
26.11510 123.0
26.12010 136.0
26.12510 125.0
26.13010 148.0
26.13510 97.0
26.14010 108.0
26.14510 107.0
26.15010 130.0
26.15510 122.0
26.16010 111.0
26.16510 115.0
26.17010 141.0
26.17510 108.0
26.18010 132.0
26.18510 121.0
26.19010 102.0
26.19510 122.0
26.20010 104.0
26.20510 113.0
26.21010 113.0
26.21510 116.0
26.22010 112.0
26.22510 108.0
26.23010 101.0
26.23510 107.0
26.24010 111.0
26.24510 106.0
26.25010 103.0
26.25510 99.0
26.26010 111.0
26.26510 93.0
26.27010 91.0
26.27510 99.0
26.28010 115.0
26.28510 122.0
26.29010 101.0
26.29510 84.0
26.30010 89.0
26.30510 109.0
26.31010 118.0
26.31510 90.0
26.32010 100.0
26.32510 90.0
26.33010 96.0
26.33510 84.0
26.34010 85.0
26.34510 98.0
26.35010 90.0
26.35510 101.0
26.36010 97.0
26.36510 98.0
26.37010 94.0
26.37510 103.0
26.38010 74.0
26.38510 92.0
26.39010 82.0
26.39510 93.0
26.40010 89.0
26.40510 83.0
26.41010 88.0
26.41510 104.0
26.42010 104.0
26.42510 73.0
26.43010 100.0
26.43510 90.0
26.44010 93.0
26.44510 90.0
26.45010 112.0
26.45510 97.0
26.46010 100.0
26.46510 85.0
26.47010 80.0
26.47510 80.0
26.48010 85.0
26.48510 72.0
26.49010 71.0
26.49510 92.0
26.50010 92.0
26.50510 77.0
26.51010 56.0
26.51510 76.0
26.52010 82.0
26.52510 79.0
26.53010 93.0
26.53510 76.0
26.54010 83.0
26.54510 79.0
26.55010 72.0
26.55510 89.0
26.56010 69.0
26.56510 82.0
26.57010 75.0
26.57510 68.0
26.58010 70.0
26.58510 75.0
26.59010 89.0
26.59510 82.0
26.60010 81.0
26.60510 78.0
26.61010 82.0
26.61510 79.0
26.62010 73.0
26.62510 86.0
26.63010 81.0
26.63510 76.0
26.64010 76.0
26.64510 68.0
26.65010 51.0
26.65510 74.0
26.66010 83.0
26.66510 80.0
26.67010 74.0
26.67510 56.0
26.68010 66.0
26.68510 79.0
26.69010 74.0
26.69510 75.0
26.70010 69.0
26.70510 71.0
26.71010 82.0
26.71510 87.0
26.72010 75.0
26.72510 68.0
26.73010 74.0
26.73510 84.0
26.74010 89.0
26.74510 90.0
26.75010 63.0
26.75510 89.0
26.76010 63.0
26.76510 79.0
26.77010 71.0
26.77510 76.0
26.78010 84.0
26.78510 72.0
26.79010 82.0
26.79510 65.0
26.80010 68.0
26.80510 74.0
26.81010 61.0
26.81510 75.0
26.82010 64.0
26.82510 70.0
26.83010 60.0
26.83510 68.0
26.84010 53.0
26.84510 75.0
26.85010 73.0
26.85510 62.0
26.86010 50.0
26.86510 76.0
26.87010 66.0
26.87510 62.0
26.88010 73.0
26.88510 82.0
26.89010 73.0
26.89510 55.0
26.90010 75.0