File: data/W6932r/XRD_Omega/film_r_scan_omega_4deg_step_0.005deg0.xy
23.06850 33.0
23.07350 45.0
23.07850 39.0
23.08350 46.0
23.08850 39.0
23.09350 31.0
23.09850 53.0
23.10350 30.0
23.10850 42.0
23.11350 49.0
23.11850 39.0
23.12350 46.0
23.12850 31.0
23.13350 32.0
23.13850 40.0
23.14350 32.0
23.14850 37.0
23.15350 38.0
23.15850 43.0
23.16350 39.0
23.16850 25.0
23.17350 28.0
23.17850 47.0
23.18350 37.0
23.18850 54.0
23.19350 36.0
23.19850 46.0
23.20350 30.0
23.20850 29.0
23.21350 45.0
23.21850 40.0
23.22350 35.0
23.22850 45.0
23.23350 48.0
23.23850 23.0
23.24350 40.0
23.24850 49.0
23.25350 42.0
23.25850 52.0
23.26350 43.0
23.26850 40.0
23.27350 35.0
23.27850 33.0
23.28350 42.0
23.28850 32.0
23.29350 50.0
23.29850 33.0
23.30350 38.0
23.30850 49.0
23.31350 43.0
23.31850 41.0
23.32350 51.0
23.32850 47.0
23.33350 46.0
23.33850 55.0
23.34350 42.0
23.34850 38.0
23.35350 33.0
23.35850 44.0
23.36350 39.0
23.36850 39.0
23.37350 44.0
23.37850 43.0
23.38350 35.0
23.38850 45.0
23.39350 41.0
23.39850 43.0
23.40350 36.0
23.40850 43.0
23.41350 51.0
23.41850 42.0
23.42350 33.0
23.42850 39.0
23.43350 45.0
23.43850 29.0
23.44350 47.0
23.44850 42.0
23.45350 39.0
23.45850 42.0
23.46350 38.0
23.46850 38.0
23.47350 50.0
23.47850 46.0
23.48350 44.0
23.48850 48.0
23.49350 36.0
23.49850 41.0
23.50350 36.0
23.50850 34.0
23.51350 45.0
23.51850 47.0
23.52350 55.0
23.52850 54.0
23.53350 47.0
23.53850 41.0
23.54350 35.0
23.54850 49.0
23.55350 41.0
23.55850 40.0
23.56350 52.0
23.56850 47.0
23.57350 46.0
23.57850 44.0
23.58350 43.0
23.58850 50.0
23.59350 38.0
23.59850 42.0
23.60350 52.0
23.60850 54.0
23.61350 44.0
23.61850 40.0
23.62350 52.0
23.62850 58.0
23.63350 53.0
23.63850 43.0
23.64350 35.0
23.64850 55.0
23.65350 57.0
23.65850 52.0
23.66350 61.0
23.66850 37.0
23.67350 46.0
23.67850 63.0
23.68350 50.0
23.68850 58.0
23.69350 55.0
23.69850 43.0
23.70350 53.0
23.70850 39.0
23.71350 40.0
23.71850 51.0
23.72350 59.0
23.72850 48.0
23.73350 57.0
23.73850 62.0
23.74350 44.0
23.74850 58.0
23.75350 67.0
23.75850 39.0
23.76350 44.0
23.76850 73.0
23.77350 52.0
23.77850 60.0
23.78350 59.0
23.78850 49.0
23.79350 67.0
23.79850 52.0
23.80350 57.0
23.80850 55.0
23.81350 71.0
23.81850 42.0
23.82350 49.0
23.82850 52.0
23.83350 55.0
23.83850 56.0
23.84350 52.0
23.84850 72.0
23.85350 67.0
23.85850 58.0
23.86350 55.0
23.86850 60.0
23.87350 61.0
23.87850 66.0
23.88350 58.0
23.88850 57.0
23.89350 66.0
23.89850 57.0
23.90350 73.0
23.90850 61.0
23.91350 60.0
23.91850 70.0
23.92350 73.0
23.92850 80.0
23.93350 56.0
23.93850 69.0
23.94350 72.0
23.94850 80.0
23.95350 71.0
23.95850 79.0
23.96350 81.0
23.96850 83.0
23.97350 91.0
23.97850 85.0
23.98350 76.0
23.98850 82.0
23.99350 84.0
23.99850 74.0
24.00350 64.0
24.00850 90.0
24.01350 90.0
24.01850 67.0
24.02350 104.0
24.02850 77.0
24.03350 99.0
24.03850 97.0
24.04350 116.0
24.04850 118.0
24.05350 95.0
24.05850 89.0
24.06350 96.0
24.06850 101.0
24.07350 95.0
24.07850 85.0
24.08350 119.0
24.08850 114.0
24.09350 100.0
24.09850 112.0
24.10350 127.0
24.10850 101.0
24.11350 134.0
24.11850 120.0
24.12350 118.0
24.12850 117.0
24.13350 132.0
24.13850 135.0
24.14350 119.0
24.14850 145.0
24.15350 113.0
24.15850 161.0
24.16350 110.0
24.16850 130.0
24.17350 142.0
24.17850 135.0
24.18350 153.0
24.18850 158.0
24.19350 139.0
24.19850 149.0
24.20350 160.0
24.20850 168.0
24.21350 157.0
24.21850 160.0
24.22350 146.0
24.22850 136.0
24.23350 168.0
24.23850 171.0
24.24350 163.0
24.24850 166.0
24.25350 159.0
24.25850 171.0
24.26350 173.0
24.26850 190.0
24.27350 194.0
24.27850 189.0
24.28350 188.0
24.28850 223.0
24.29350 219.0
24.29850 192.0
24.30350 206.0
24.30850 215.0
24.31350 204.0
24.31850 216.0
24.32350 202.0
24.32850 220.0
24.33350 268.0
24.33850 258.0
24.34350 231.0
24.34850 274.0
24.35350 245.0
24.35850 287.0
24.36350 250.0
24.36850 289.0
24.37350 307.0
24.37850 287.0
24.38350 295.0
24.38850 317.0
24.39350 324.0
24.39850 327.0
24.40350 315.0
24.40850 308.0
24.41350 335.0
24.41850 359.0
24.42350 315.0
24.42850 382.0
24.43350 382.0
24.43850 385.0
24.44350 420.0
24.44850 405.0
24.45350 383.0
24.45850 405.0
24.46350 405.0
24.46850 418.0
24.47350 435.0
24.47850 476.0
24.48350 406.0
24.48850 448.0
24.49350 441.0
24.49850 444.0
24.50350 467.0
24.50850 523.0
24.51350 489.0
24.51850 506.0
24.52350 550.0
24.52850 549.0
24.53350 563.0
24.53850 599.0
24.54350 571.0
24.54850 582.0
24.55350 597.0
24.55850 641.0
24.56350 632.0
24.56850 617.0
24.57350 629.0
24.57850 673.0
24.58350 701.0
24.58850 642.0
24.59350 733.0
24.59850 718.0
24.60350 797.0
24.60850 797.0
24.61350 827.0
24.61850 805.0
24.62350 814.0
24.62850 757.0
24.63350 843.0
24.63850 903.0
24.64350 829.0
24.64850 890.0
24.65350 898.0
24.65850 932.0
24.66350 962.0
24.66850 978.0
24.67350 991.0
24.67850 1006.0
24.68350 1042.0
24.68850 1054.0
24.69350 1081.0
24.69850 1102.0
24.70350 1086.0
24.70850 1111.0
24.71350 1135.0
24.71850 1139.0
24.72350 1160.0
24.72850 1198.0
24.73350 1200.0
24.73850 1313.0
24.74350 1213.0
24.74850 1308.0
24.75350 1292.0
24.75850 1399.0
24.76350 1367.0
24.76850 1404.0
24.77350 1384.0
24.77850 1483.0
24.78350 1408.0
24.78850 1434.0
24.79350 1530.0
24.79850 1526.0
24.80350 1493.0
24.80850 1518.0
24.81350 1579.0
24.81850 1541.0
24.82350 1761.0
24.82850 1563.0
24.83350 1662.0
24.83850 1686.0
24.84350 1740.0
24.84850 1708.0
24.85350 1795.0
24.85850 1744.0
24.86350 1804.0
24.86850 1833.0
24.87350 1851.0
24.87850 1931.0
24.88350 1906.0
24.88850 1931.0
24.89350 1932.0
24.89850 1983.0
24.90350 1920.0
24.90850 2029.0
24.91350 2091.0
24.91850 2073.0
24.92350 2123.0
24.92850 2014.0
24.93350 2093.0
24.93850 1998.0
24.94350 2099.0
24.94850 2254.0
24.95350 2223.0
24.95850 2207.0
24.96350 2186.0
24.96850 2223.0
24.97350 2247.0
24.97850 2223.0
24.98350 2189.0
24.98850 2180.0
24.99350 2150.0
24.99850 2248.0
25.00350 2137.0
25.00850 2224.0
25.01350 2201.0
25.01850 2159.0
25.02350 2283.0
25.02850 2276.0
25.03350 2223.0
25.03850 2160.0
25.04350 2222.0
25.04850 2292.0
25.05350 2218.0
25.05850 2201.0
25.06350 2218.0
25.06850 2128.0
25.07350 2245.0
25.07850 2165.0
25.08350 2243.0
25.08850 2107.0
25.09350 2234.0
25.09850 2224.0
25.10350 2140.0
25.10850 2157.0
25.11350 2117.0
25.11850 2124.0
25.12350 2185.0
25.12850 2103.0
25.13350 2149.0
25.13850 2155.0
25.14350 2114.0
25.14850 2023.0
25.15350 2045.0
25.15850 2130.0
25.16350 2123.0
25.16850 2011.0
25.17350 2032.0
25.17850 1989.0
25.18350 1965.0
25.18850 2007.0
25.19350 2035.0
25.19850 2000.0
25.20350 1917.0
25.20850 1892.0
25.21350 1912.0
25.21850 1948.0
25.22350 1849.0
25.22850 1893.0
25.23350 1831.0
25.23850 1863.0
25.24350 1832.0
25.24850 1885.0
25.25350 1738.0
25.25850 1827.0
25.26350 1771.0
25.26850 1732.0
25.27350 1705.0
25.27850 1674.0
25.28350 1673.0
25.28850 1666.0
25.29350 1628.0
25.29850 1604.0
25.30350 1675.0
25.30850 1535.0
25.31350 1649.0
25.31850 1589.0
25.32350 1481.0
25.32850 1493.0
25.33350 1508.0
25.33850 1433.0
25.34350 1442.0
25.34850 1418.0
25.35350 1304.0
25.35850 1414.0
25.36350 1369.0
25.36850 1295.0
25.37350 1317.0
25.37850 1332.0
25.38350 1284.0
25.38850 1242.0
25.39350 1255.0
25.39850 1230.0
25.40350 1259.0
25.40850 1272.0
25.41350 1120.0
25.41850 1158.0
25.42350 1222.0
25.42850 1099.0
25.43350 1141.0
25.43850 1073.0
25.44350 1154.0
25.44850 1080.0
25.45350 980.0
25.45850 1003.0
25.46350 1039.0
25.46850 993.0
25.47350 944.0
25.47850 973.0
25.48350 1000.0
25.48850 902.0
25.49350 869.0
25.49850 888.0
25.50350 846.0
25.50850 872.0
25.51350 883.0
25.51850 843.0
25.52350 848.0
25.52850 876.0
25.53350 823.0
25.53850 774.0
25.54350 755.0
25.54850 739.0
25.55350 709.0
25.55850 721.0
25.56350 735.0
25.56850 724.0
25.57350 642.0
25.57850 668.0
25.58350 707.0
25.58850 646.0
25.59350 625.0
25.59850 649.0
25.60350 617.0
25.60850 632.0
25.61350 594.0
25.61850 603.0
25.62350 557.0
25.62850 553.0
25.63350 550.0
25.63850 534.0
25.64350 550.0
25.64850 578.0
25.65350 501.0
25.65850 510.0
25.66350 504.0
25.66850 504.0
25.67350 487.0
25.67850 473.0
25.68350 467.0
25.68850 455.0
25.69350 464.0
25.69850 433.0
25.70350 417.0
25.70850 430.0
25.71350 398.0
25.71850 407.0
25.72350 406.0
25.72850 397.0
25.73350 399.0
25.73850 376.0
25.74350 407.0
25.74850 347.0
25.75350 372.0
25.75850 360.0
25.76350 349.0
25.76850 338.0
25.77350 346.0
25.77850 325.0
25.78350 347.0
25.78850 324.0
25.79350 324.0
25.79850 307.0
25.80350 313.0
25.80850 305.0
25.81350 295.0
25.81850 297.0
25.82350 293.0
25.82850 288.0
25.83350 283.0
25.83850 259.0
25.84350 258.0
25.84850 254.0
25.85350 274.0
25.85850 244.0
25.86350 220.0
25.86850 258.0
25.87350 246.0
25.87850 204.0
25.88350 243.0
25.88850 218.0
25.89350 194.0
25.89850 209.0
25.90350 225.0
25.90850 225.0
25.91350 211.0
25.91850 219.0
25.92350 225.0
25.92850 193.0
25.93350 178.0
25.93850 185.0
25.94350 186.0
25.94850 195.0
25.95350 221.0
25.95850 176.0
25.96350 187.0
25.96850 168.0
25.97350 146.0
25.97850 169.0
25.98350 154.0
25.98850 145.0
25.99350 160.0
25.99850 183.0
26.00350 162.0
26.00850 162.0
26.01350 150.0
26.01850 172.0
26.02350 164.0
26.02850 152.0
26.03350 145.0
26.03850 141.0
26.04350 135.0
26.04850 115.0
26.05350 157.0
26.05850 140.0
26.06350 117.0
26.06850 130.0
26.07350 126.0
26.07850 125.0
26.08350 123.0
26.08850 93.0
26.09350 122.0
26.09850 127.0
26.10350 131.0
26.10850 112.0
26.11350 116.0
26.11850 98.0
26.12350 137.0
26.12850 118.0
26.13350 113.0
26.13850 107.0
26.14350 120.0
26.14850 96.0
26.15350 85.0
26.15850 100.0
26.16350 105.0
26.16850 96.0
26.17350 93.0
26.17850 115.0
26.18350 96.0
26.18850 77.0
26.19350 94.0
26.19850 98.0
26.20350 94.0
26.20850 92.0
26.21350 71.0
26.21850 66.0
26.22350 87.0
26.22850 95.0
26.23350 84.0
26.23850 71.0
26.24350 92.0
26.24850 75.0
26.25350 85.0
26.25850 77.0
26.26350 71.0
26.26850 68.0
26.27350 70.0
26.27850 71.0
26.28350 62.0
26.28850 70.0
26.29350 69.0
26.29850 61.0
26.30350 57.0
26.30850 73.0
26.31350 62.0
26.31850 65.0
26.32350 64.0
26.32850 73.0
26.33350 70.0
26.33850 68.0
26.34350 64.0
26.34850 67.0
26.35350 64.0
26.35850 56.0
26.36350 55.0
26.36850 52.0
26.37350 75.0
26.37850 66.0
26.38350 72.0
26.38850 58.0
26.39350 62.0
26.39850 66.0
26.40350 63.0
26.40850 59.0
26.41350 56.0
26.41850 56.0
26.42350 58.0
26.42850 64.0
26.43350 58.0
26.43850 65.0
26.44350 50.0
26.44850 46.0
26.45350 67.0
26.45850 60.0
26.46350 57.0
26.46850 51.0
26.47350 59.0
26.47850 54.0
26.48350 45.0
26.48850 55.0
26.49350 59.0
26.49850 57.0
26.50350 51.0
26.50850 59.0
26.51350 51.0
26.51850 53.0
26.52350 52.0
26.52850 41.0
26.53350 58.0
26.53850 52.0
26.54350 45.0
26.54850 50.0
26.55350 49.0
26.55850 59.0
26.56350 52.0
26.56850 61.0
26.57350 43.0
26.57850 46.0
26.58350 36.0
26.58850 37.0
26.59350 62.0
26.59850 50.0
26.60350 60.0
26.60850 44.0
26.61350 50.0
26.61850 54.0
26.62350 57.0
26.62850 49.0
26.63350 34.0
26.63850 39.0
26.64350 40.0
26.64850 36.0
26.65350 38.0
26.65850 41.0
26.66350 39.0
26.66850 49.0
26.67350 49.0
26.67850 49.0
26.68350 45.0
26.68850 52.0
26.69350 44.0
26.69850 41.0
26.70350 38.0
26.70850 31.0
26.71350 42.0
26.71850 46.0
26.72350 37.0
26.72850 43.0
26.73350 39.0
26.73850 44.0
26.74350 55.0
26.74850 36.0
26.75350 37.0
26.75850 42.0
26.76350 43.0
26.76850 45.0
26.77350 43.0
26.77850 43.0
26.78350 55.0
26.78850 33.0
26.79350 27.0
26.79850 37.0
26.80350 36.0
26.80850 37.0
26.81350 30.0
26.81850 47.0
26.82350 41.0
26.82850 45.0
26.83350 44.0
26.83850 34.0
26.84350 41.0
26.84850 33.0
26.85350 51.0
26.85850 44.0
26.86350 32.0
26.86850 50.0
26.87350 41.0
26.87850 49.0
26.88350 37.0
26.88850 38.0
26.89350 34.0
26.89850 45.0
26.90350 42.0
26.90850 38.0
26.91350 35.0
26.91850 32.0
26.92350 29.0
26.92850 41.0
26.93350 37.0
26.93850 46.0
26.94350 28.0
26.94850 40.0
26.95350 31.0
26.95850 33.0
26.96350 36.0
26.96850 27.0
26.97350 26.0
26.97850 38.0
26.98350 36.0
26.98850 38.0
26.99350 35.0
26.99850 29.0
27.00350 27.0
27.00850 36.0
27.01350 42.0
27.01850 40.0
27.02350 37.0
27.02850 44.0