File: data/W6932c/XRD_Omega/film_c_scan_omega_4deg_step_0.005deg0.xy
17.58560 29.0
17.59060 24.0
17.59560 37.0
17.60060 43.0
17.60560 40.0
17.61060 28.0
17.61560 29.0
17.62060 32.0
17.62560 26.0
17.63060 27.0
17.63560 32.0
17.64060 43.0
17.64560 35.0
17.65060 34.0
17.65560 30.0
17.66060 29.0
17.66560 31.0
17.67060 36.0
17.67560 35.0
17.68060 36.0
17.68560 24.0
17.69060 35.0
17.69560 43.0
17.70060 38.0
17.70560 42.0
17.71060 28.0
17.71560 31.0
17.72060 25.0
17.72560 34.0
17.73060 25.0
17.73560 42.0
17.74060 28.0
17.74560 26.0
17.75060 35.0
17.75560 33.0
17.76060 36.0
17.76560 33.0
17.77060 26.0
17.77560 35.0
17.78060 29.0
17.78560 37.0
17.79060 43.0
17.79560 36.0
17.80060 20.0
17.80560 46.0
17.81060 33.0
17.81560 32.0
17.82060 30.0
17.82560 40.0
17.83060 31.0
17.83560 34.0
17.84060 37.0
17.84560 29.0
17.85060 46.0
17.85560 31.0
17.86060 37.0
17.86560 25.0
17.87060 33.0
17.87560 32.0
17.88060 48.0
17.88560 28.0
17.89060 32.0
17.89560 24.0
17.90060 37.0
17.90560 31.0
17.91060 34.0
17.91560 34.0
17.92060 47.0
17.92560 27.0
17.93060 35.0
17.93560 33.0
17.94060 32.0
17.94560 38.0
17.95060 25.0
17.95560 44.0
17.96060 33.0
17.96560 35.0
17.97060 28.0
17.97560 45.0
17.98060 37.0
17.98560 36.0
17.99060 35.0
17.99560 42.0
18.00060 32.0
18.00560 41.0
18.01060 24.0
18.01560 34.0
18.02060 27.0
18.02560 32.0
18.03060 33.0
18.03560 44.0
18.04060 32.0
18.04560 37.0
18.05060 38.0
18.05560 20.0
18.06060 42.0
18.06560 40.0
18.07060 30.0
18.07560 37.0
18.08060 33.0
18.08560 36.0
18.09060 33.0
18.09560 22.0
18.10060 22.0
18.10560 38.0
18.11060 31.0
18.11560 39.0
18.12060 25.0
18.12560 24.0
18.13060 32.0
18.13560 39.0
18.14060 41.0
18.14560 25.0
18.15060 43.0
18.15560 30.0
18.16060 33.0
18.16560 39.0
18.17060 39.0
18.17560 25.0
18.18060 22.0
18.18560 30.0
18.19060 32.0
18.19560 35.0
18.20060 33.0
18.20560 27.0
18.21060 33.0
18.21560 37.0
18.22060 38.0
18.22560 34.0
18.23060 34.0
18.23560 33.0
18.24060 43.0
18.24560 38.0
18.25060 25.0
18.25560 41.0
18.26060 37.0
18.26560 35.0
18.27060 31.0
18.27560 33.0
18.28060 41.0
18.28560 44.0
18.29060 38.0
18.29560 28.0
18.30060 37.0
18.30560 33.0
18.31060 35.0
18.31560 33.0
18.32060 34.0
18.32560 27.0
18.33060 32.0
18.33560 30.0
18.34060 36.0
18.34560 25.0
18.35060 29.0
18.35560 40.0
18.36060 29.0
18.36560 49.0
18.37060 28.0
18.37560 36.0
18.38060 39.0
18.38560 31.0
18.39060 30.0
18.39560 22.0
18.40060 37.0
18.40560 30.0
18.41060 30.0
18.41560 27.0
18.42060 37.0
18.42560 28.0
18.43060 32.0
18.43560 43.0
18.44060 38.0
18.44560 27.0
18.45060 42.0
18.45560 36.0
18.46060 34.0
18.46560 29.0
18.47060 28.0
18.47560 32.0
18.48060 39.0
18.48560 31.0
18.49060 39.0
18.49560 33.0
18.50060 35.0
18.50560 46.0
18.51060 30.0
18.51560 34.0
18.52060 43.0
18.52560 29.0
18.53060 37.0
18.53560 32.0
18.54060 21.0
18.54560 33.0
18.55060 37.0
18.55560 29.0
18.56060 45.0
18.56560 43.0
18.57060 36.0
18.57560 43.0
18.58060 34.0
18.58560 37.0
18.59060 30.0
18.59560 29.0
18.60060 40.0
18.60560 32.0
18.61060 21.0
18.61560 27.0
18.62060 33.0
18.62560 35.0
18.63060 36.0
18.63560 30.0
18.64060 30.0
18.64560 35.0
18.65060 34.0
18.65560 29.0
18.66060 45.0
18.66560 29.0
18.67060 42.0
18.67560 41.0
18.68060 33.0
18.68560 31.0
18.69060 36.0
18.69560 42.0
18.70060 35.0
18.70560 43.0
18.71060 39.0
18.71560 40.0
18.72060 37.0
18.72560 36.0
18.73060 30.0
18.73560 38.0
18.74060 44.0
18.74560 39.0
18.75060 44.0
18.75560 20.0
18.76060 37.0
18.76560 38.0
18.77060 34.0
18.77560 41.0
18.78060 52.0
18.78560 45.0
18.79060 35.0
18.79560 34.0
18.80060 39.0
18.80560 18.0
18.81060 27.0
18.81560 34.0
18.82060 44.0
18.82560 33.0
18.83060 30.0
18.83560 44.0
18.84060 44.0
18.84560 47.0
18.85060 37.0
18.85560 46.0
18.86060 42.0
18.86560 39.0
18.87060 33.0
18.87560 34.0
18.88060 41.0
18.88560 45.0
18.89060 35.0
18.89560 51.0
18.90060 42.0
18.90560 45.0
18.91060 39.0
18.91560 52.0
18.92060 41.0
18.92560 38.0
18.93060 36.0
18.93560 48.0
18.94060 38.0
18.94560 35.0
18.95060 45.0
18.95560 50.0
18.96060 44.0
18.96560 54.0
18.97060 45.0
18.97560 49.0
18.98060 53.0
18.98560 44.0
18.99060 53.0
18.99560 39.0
19.00060 36.0
19.00560 44.0
19.01060 46.0
19.01560 39.0
19.02060 50.0
19.02560 57.0
19.03060 49.0
19.03560 47.0
19.04060 52.0
19.04560 57.0
19.05060 54.0
19.05560 49.0
19.06060 54.0
19.06560 52.0
19.07060 49.0
19.07560 55.0
19.08060 42.0
19.08560 54.0
19.09060 44.0
19.09560 47.0
19.10060 52.0
19.10560 58.0
19.11060 66.0
19.11560 61.0
19.12060 57.0
19.12560 62.0
19.13060 53.0
19.13560 52.0
19.14060 63.0
19.14560 62.0
19.15060 57.0
19.15560 68.0
19.16060 67.0
19.16560 63.0
19.17060 74.0
19.17560 71.0
19.18060 75.0
19.18560 84.0
19.19060 47.0
19.19560 85.0
19.20060 60.0
19.20560 76.0
19.21060 86.0
19.21560 88.0
19.22060 71.0
19.22560 95.0
19.23060 75.0
19.23560 94.0
19.24060 103.0
19.24560 118.0
19.25060 85.0
19.25560 103.0
19.26060 116.0
19.26560 103.0
19.27060 111.0
19.27560 102.0
19.28060 128.0
19.28560 100.0
19.29060 134.0
19.29560 140.0
19.30060 130.0
19.30560 108.0
19.31060 137.0
19.31560 147.0
19.32060 129.0
19.32560 152.0
19.33060 156.0
19.33560 179.0
19.34060 164.0
19.34560 193.0
19.35060 211.0
19.35560 192.0
19.36060 203.0
19.36560 207.0
19.37060 210.0
19.37560 246.0
19.38060 244.0
19.38560 300.0
19.39060 280.0
19.39560 329.0
19.40060 319.0
19.40560 407.0
19.41060 432.0
19.41560 515.0
19.42060 626.0
19.42560 742.0
19.43060 934.0
19.43560 1029.0
19.44060 1111.0
19.44560 1274.0
19.45060 1332.0
19.45560 1449.0
19.46060 1609.0
19.46560 1720.0
19.47060 1871.0
19.47560 1942.0
19.48060 2212.0
19.48560 2349.0
19.49060 2611.0
19.49560 3027.0
19.50060 3156.0
19.50560 3439.0
19.51060 3750.0
19.51560 4173.0
19.52060 4589.0
19.52560 4708.0
19.53060 5336.0
19.53560 5986.0
19.54060 6441.0
19.54560 7189.0
19.55060 7560.0
19.55560 7930.0
19.56060 7832.0
19.56560 7636.0
19.57060 7759.0
19.57560 7257.0
19.58060 7033.0
19.58560 6691.0
19.59060 6466.0
19.59560 6203.0
19.60060 5877.0
19.60560 5724.0
19.61060 5300.0
19.61560 5040.0
19.62060 4423.0
19.62560 4111.0
19.63060 3672.0
19.63560 3190.0
19.64060 2764.0
19.64560 2530.0
19.65060 2298.0
19.65560 1915.0
19.66060 1658.0
19.66560 1519.0
19.67060 1376.0
19.67560 1187.0
19.68060 1011.0
19.68560 902.0
19.69060 775.0
19.69560 686.0
19.70060 613.0
19.70560 491.0
19.71060 476.0
19.71560 431.0
19.72060 370.0
19.72560 345.0
19.73060 335.0
19.73560 288.0
19.74060 242.0
19.74560 266.0
19.75060 199.0
19.75560 263.0
19.76060 196.0
19.76560 220.0
19.77060 179.0
19.77560 176.0
19.78060 149.0
19.78560 145.0
19.79060 157.0
19.79560 123.0
19.80060 139.0
19.80560 144.0
19.81060 109.0
19.81560 119.0
19.82060 104.0
19.82560 93.0
19.83060 108.0
19.83560 94.0
19.84060 102.0
19.84560 92.0
19.85060 101.0
19.85560 93.0
19.86060 73.0
19.86560 80.0
19.87060 102.0
19.87560 75.0
19.88060 101.0
19.88560 77.0
19.89060 70.0
19.89560 70.0
19.90060 60.0
19.90560 64.0
19.91060 65.0
19.91560 63.0
19.92060 60.0
19.92560 55.0
19.93060 69.0
19.93560 75.0
19.94060 74.0
19.94560 58.0
19.95060 76.0
19.95560 67.0
19.96060 51.0
19.96560 60.0
19.97060 61.0
19.97560 57.0
19.98060 48.0
19.98560 55.0
19.99060 68.0
19.99560 51.0
20.00060 60.0
20.00560 40.0
20.01060 54.0
20.01560 64.0
20.02060 44.0
20.02560 56.0
20.03060 47.0
20.03560 54.0
20.04060 54.0
20.04560 55.0
20.05060 50.0
20.05560 40.0
20.06060 34.0
20.06560 46.0
20.07060 40.0
20.07560 51.0
20.08060 37.0
20.08560 55.0
20.09060 32.0
20.09560 52.0
20.10060 44.0
20.10560 42.0
20.11060 38.0
20.11560 39.0
20.12060 43.0
20.12560 45.0
20.13060 43.0
20.13560 49.0
20.14060 33.0
20.14560 37.0
20.15060 41.0
20.15560 46.0
20.16060 33.0
20.16560 40.0
20.17060 40.0
20.17560 40.0
20.18060 43.0
20.18560 41.0
20.19060 46.0
20.19560 45.0
20.20060 40.0
20.20560 28.0
20.21060 39.0
20.21560 40.0
20.22060 36.0
20.22560 44.0
20.23060 37.0
20.23560 50.0
20.24060 32.0
20.24560 37.0
20.25060 39.0
20.25560 57.0
20.26060 24.0
20.26560 33.0
20.27060 40.0
20.27560 36.0
20.28060 41.0
20.28560 39.0
20.29060 38.0
20.29560 39.0
20.30060 45.0
20.30560 32.0
20.31060 32.0
20.31560 40.0
20.32060 34.0
20.32560 40.0
20.33060 50.0
20.33560 29.0
20.34060 32.0
20.34560 36.0
20.35060 39.0
20.35560 38.0
20.36060 37.0
20.36560 42.0
20.37060 32.0
20.37560 40.0
20.38060 37.0
20.38560 32.0
20.39060 41.0
20.39560 34.0
20.40060 26.0
20.40560 37.0
20.41060 32.0
20.41560 46.0
20.42060 32.0
20.42560 42.0
20.43060 20.0
20.43560 42.0
20.44060 28.0
20.44560 29.0
20.45060 38.0
20.45560 26.0
20.46060 26.0
20.46560 44.0
20.47060 36.0
20.47560 27.0
20.48060 48.0
20.48560 22.0
20.49060 38.0
20.49560 28.0
20.50060 21.0
20.50560 47.0
20.51060 30.0
20.51560 32.0
20.52060 37.0
20.52560 42.0
20.53060 33.0
20.53560 39.0
20.54060 35.0
20.54560 28.0
20.55060 37.0
20.55560 27.0
20.56060 33.0
20.56560 40.0
20.57060 30.0
20.57560 38.0
20.58060 39.0
20.58560 33.0
20.59060 36.0
20.59560 34.0
20.60060 36.0
20.60560 36.0
20.61060 38.0
20.61560 33.0
20.62060 43.0
20.62560 45.0
20.63060 28.0
20.63560 28.0
20.64060 34.0
20.64560 33.0
20.65060 32.0
20.65560 39.0
20.66060 31.0
20.66560 29.0
20.67060 28.0
20.67560 38.0
20.68060 38.0
20.68560 17.0
20.69060 29.0
20.69560 28.0
20.70060 25.0
20.70560 26.0
20.71060 33.0
20.71560 23.0
20.72060 29.0
20.72560 42.0
20.73060 37.0
20.73560 26.0
20.74060 33.0
20.74560 33.0
20.75060 32.0
20.75560 35.0
20.76060 28.0
20.76560 41.0
20.77060 39.0
20.77560 29.0
20.78060 25.0
20.78560 30.0
20.79060 40.0
20.79560 36.0
20.80060 29.0
20.80560 32.0
20.81060 35.0
20.81560 22.0
20.82060 29.0
20.82560 26.0
20.83060 33.0
20.83560 32.0
20.84060 31.0
20.84560 23.0
20.85060 46.0
20.85560 37.0
20.86060 31.0
20.86560 32.0
20.87060 36.0
20.87560 24.0
20.88060 25.0
20.88560 25.0
20.89060 33.0
20.89560 15.0
20.90060 32.0
20.90560 35.0
20.91060 35.0
20.91560 31.0
20.92060 29.0
20.92560 29.0
20.93060 37.0
20.93560 24.0
20.94060 25.0
20.94560 34.0
20.95060 38.0
20.95560 25.0
20.96060 31.0
20.96560 29.0
20.97060 23.0
20.97560 21.0
20.98060 24.0
20.98560 43.0
20.99060 33.0
20.99560 28.0
21.00060 30.0
21.00560 35.0
21.01060 22.0
21.01560 34.0
21.02060 28.0
21.02560 26.0
21.03060 35.0
21.03560 29.0
21.04060 25.0
21.04560 29.0
21.05060 41.0
21.05560 36.0
21.06060 30.0
21.06560 39.0
21.07060 29.0
21.07560 35.0
21.08060 30.0
21.08560 32.0
21.09060 34.0
21.09560 33.0
21.10060 23.0
21.10560 38.0
21.11060 35.0
21.11560 33.0
21.12060 31.0
21.12560 33.0
21.13060 23.0
21.13560 31.0
21.14060 41.0
21.14560 22.0
21.15060 26.0
21.15560 30.0
21.16060 33.0
21.16560 33.0
21.17060 29.0
21.17560 25.0
21.18060 39.0
21.18560 38.0
21.19060 30.0
21.19560 33.0
21.20060 30.0
21.20560 26.0
21.21060 35.0
21.21560 35.0
21.22060 32.0
21.22560 35.0
21.23060 25.0
21.23560 18.0
21.24060 16.0
21.24560 29.0
21.25060 30.0
21.25560 34.0
21.26060 48.0
21.26560 28.0
21.27060 39.0
21.27560 31.0
21.28060 37.0
21.28560 27.0
21.29060 31.0
21.29560 26.0
21.30060 32.0
21.30560 37.0
21.31060 29.0
21.31560 39.0
21.32060 38.0
21.32560 26.0
21.33060 33.0
21.33560 42.0
21.34060 26.0
21.34560 29.0
21.35060 34.0
21.35560 30.0
21.36060 34.0
21.36560 22.0
21.37060 29.0
21.37560 20.0
21.38060 27.0
21.38560 23.0
21.39060 21.0
21.39560 35.0
21.40060 36.0
21.40560 28.0
21.41060 38.0
21.41560 35.0
21.42060 29.0
21.42560 31.0
21.43060 24.0
21.43560 27.0
21.44060 33.0
21.44560 32.0
21.45060 28.0
21.45560 35.0
21.46060 29.0
21.46560 22.0
21.47060 30.0
21.47560 34.0
21.48060 37.0
21.48560 37.0
21.49060 36.0
21.49560 38.0
21.50060 27.0
21.50560 30.0
21.51060 32.0
21.51560 31.0
21.52060 32.0
21.52560 25.0
21.53060 47.0
21.53560 33.0
21.54060 29.0
21.54560 31.0