File: data/W6959a/XRD_2ThetaOmega/a_scan_2th-om_10-130deg_PIXscan_17min_C2.xy
10.0035 63.0
10.0872 40.0
10.1709 46.0
10.2546 49.0
10.3383 62.0
10.422 37.0
10.5057 52.0
10.5894 52.0
10.6731 48.0
10.7568 44.0
10.8405 50.0
10.9242 35.0
11.0079 58.0
11.0916 50.0
11.1753 42.0
11.259 44.0
11.3428 44.0
11.4265 41.0
11.5102 51.0
11.5939 42.0
11.6776 38.0
11.7613 47.0
11.845 48.0
11.9287 36.0
12.0124 46.0
12.0961 38.0
12.1798 48.0
12.2635 39.0
12.3472 45.0
12.4309 44.0
12.5146 43.0
12.5983 36.0
12.682 37.0
12.7657 37.0
12.8495 46.0
12.9332 43.0
13.0169 42.0
13.1006 41.0
13.1843 44.0
13.268 29.0
13.3517 42.0
13.4354 33.0
13.5191 46.0
13.6028 33.0
13.6865 47.0
13.7702 33.0
13.8539 48.0
13.9376 42.0
14.0213 45.0
14.105 25.0
14.1887 41.0
14.2724 35.0
14.3562 34.0
14.4399 54.0
14.5236 41.0
14.6073 34.0
14.691 35.0
14.7747 35.0
14.8584 40.0
14.9421 37.0
15.0258 41.0
15.1095 41.0
15.1932 42.0
15.2769 37.0
15.3606 39.0
15.4443 25.0
15.528 51.0
15.6117 47.0
15.6954 33.0
15.7791 37.0
15.8629 35.0
15.9466 32.0
16.0303 39.0
16.114 33.0
16.1977 29.0
16.2814 42.0
16.3651 43.0
16.4488 42.0
16.5325 26.0
16.6162 34.0
16.6999 43.0
16.7836 39.0
16.8673 35.0
16.951 36.0
17.0347 28.0
17.1184 31.0
17.2021 44.0
17.2858 27.0
17.3696 40.0
17.4533 36.0
17.537 39.0
17.6207 33.0
17.7044 34.0
17.7881 33.0
17.8718 37.0
17.9555 35.0
18.0392 38.0
18.1229 41.0
18.2066 29.0
18.2903 33.0
18.374 31.0
18.4577 28.0
18.5414 32.0
18.6251 29.0
18.7088 27.0
18.7925 35.0
18.8763 35.0
18.96 29.0
19.0437 28.0
19.1274 28.0
19.2111 36.0
19.2948 33.0
19.3785 35.0
19.4622 39.0
19.5459 35.0
19.6296 33.0
19.7133 26.0
19.797 34.0
19.8807 28.0
19.9644 38.0
20.0481 24.0
20.1318 33.0
20.2155 23.0
20.2992 29.0
20.383 26.0
20.4667 31.0
20.5504 29.0
20.6341 25.0
20.7178 30.0
20.8015 33.0
20.8852 25.0
20.9689 32.0
21.0526 30.0
21.1363 33.0
21.22 34.0
21.3037 29.0
21.3874 33.0
21.4711 36.0
21.5548 27.0
21.6385 23.0
21.7222 22.0
21.8059 20.0
21.8897 32.0
21.9734 31.0
22.0571 28.0
22.1408 39.0
22.2245 28.0
22.3082 22.0
22.3919 33.0
22.4756 29.0
22.5593 30.0
22.643 21.0
22.7267 19.0
22.8104 28.0
22.8941 20.0
22.9778 17.0
23.0615 23.0
23.1452 27.0
23.2289 22.0
23.3126 24.0
23.3964 29.0
23.4801 30.0
23.5638 26.0
23.6475 25.0
23.7312 25.0
23.8149 33.0
23.8986 23.0
23.9823 28.0
24.066 19.0
24.1497 21.0
24.2334 26.0
24.3171 32.0
24.4008 33.0
24.4845 30.0
24.5682 29.0
24.6519 29.0
24.7356 13.0
24.8193 23.0
24.9031 29.0
24.9868 24.0
25.0705 25.0
25.1542 19.0
25.2379 21.0
25.3216 19.0
25.4053 34.0
25.489 27.0
25.5727 21.0
25.6564 24.0
25.7401 24.0
25.8238 29.0
25.9075 28.0
25.9912 30.0
26.0749 29.0
26.1586 26.0
26.2423 18.0
26.326 19.0
26.4098 22.0
26.4935 24.0
26.5772 31.0
26.6609 19.0
26.7446 24.0
26.8283 26.0
26.912 25.0
26.9957 21.0
27.0794 25.0
27.1631 23.0
27.2468 43.0
27.3305 20.0
27.4142 23.0
27.4979 24.0
27.5816 27.0
27.6653 28.0
27.749 29.0
27.8327 19.0
27.9165 20.0
28.0002 29.0
28.0839 20.0
28.1676 21.0
28.2513 28.0
28.335 22.0
28.4187 36.0
28.5024 20.0
28.5861 26.0
28.6698 22.0
28.7535 23.0
28.8372 34.0
28.9209 26.0
29.0046 26.0
29.0883 24.0
29.172 24.0
29.2557 27.0
29.3394 15.0
29.4232 28.0
29.5069 21.0
29.5906 25.0
29.6743 22.0
29.758 26.0
29.8417 34.0
29.9254 31.0
30.0091 21.0
30.0928 22.0
30.1765 20.0
30.2602 29.0
30.3439 20.0
30.4276 25.0
30.5113 29.0
30.595 23.0
30.6787 14.0
30.7624 20.0
30.8461 17.0
30.9298 26.0
31.0136 26.0
31.0973 23.0
31.181 25.0
31.2647 25.0
31.3484 27.0
31.4321 28.0
31.5158 29.0
31.5995 29.0
31.6832 26.0
31.7669 23.0
31.8506 26.0
31.9343 28.0
32.018 28.0
32.1017 21.0
32.1854 55.0
32.2691 56.0
32.3528 227.0
32.4365 57.0
32.5203 25.0
32.604 29.0
32.6877 22.0
32.7714 27.0
32.8551 33.0
32.9388 25.0
33.0225 32.0
33.1062 27.0
33.1899 35.0
33.2736 38.0
33.3573 26.0
33.441 29.0
33.5247 29.0
33.6084 35.0
33.6921 33.0
33.7758 25.0
33.8595 38.0
33.9432 127.0
34.027 67.0
34.1107 47.0
34.1944 40.0
34.2781 45.0
34.3618 73.0
34.4455 52.0
34.5292 46.0
34.6129 66.0
34.6966 61.0
34.7803 61.0
34.864 69.0
34.9477 77.0
35.0314 101.0
35.1151 106.0
35.1988 145.0
35.2825 179.0
35.3662 214.0
35.4499 291.0
35.5337 432.0
35.6174 828.0
35.7011 2803.0
35.7848 10055.0
35.8685 19606.0
35.9522 45440.0
36.0359 25879.0
36.1196 2311.0
36.2033 837.0
36.287 516.0
36.3707 302.0
36.4544 228.0
36.5381 191.0
36.6218 152.0
36.7055 105.0
36.7892 103.0
36.8729 106.0
36.9566 119.0
37.0404 107.0
37.1241 122.0
37.2078 99.0
37.2915 134.0
37.3752 180.0
37.4589 199.0
37.5426 670.0
37.6263 972.0
37.71 48313.0
37.7937 11220.0
37.8774 3251.0
37.9611 552.0
38.0448 257.0
38.1285 183.0
38.2122 115.0
38.2959 93.0
38.3796 81.0
38.4633 67.0
38.5471 56.0
38.6308 38.0
38.7145 48.0
38.7982 35.0
38.8819 32.0
38.9656 48.0
39.0493 39.0
39.133 35.0
39.2167 37.0
39.3004 41.0
39.3841 26.0
39.4678 29.0
39.5515 29.0
39.6352 25.0
39.7189 39.0
39.8026 27.0
39.8863 33.0
39.97 21.0
40.0538 31.0
40.1375 34.0
40.2212 19.0
40.3049 27.0
40.3886 32.0
40.4723 33.0
40.556 29.0
40.6397 28.0
40.7234 32.0
40.8071 21.0
40.8908 18.0
40.9745 35.0
41.0582 38.0
41.1419 24.0
41.2256 28.0
41.3093 31.0
41.393 31.0
41.4767 33.0
41.5605 31.0
41.6442 22.0
41.7279 24.0
41.8116 33.0
41.8953 31.0
41.979 22.0
42.0627 21.0
42.1464 27.0
42.2301 26.0
42.3138 27.0
42.3975 35.0
42.4812 36.0
42.5649 31.0
42.6486 27.0
42.7323 32.0
42.816 27.0
42.8997 27.0
42.9834 30.0
43.0672 34.0
43.1509 31.0
43.2346 28.0
43.3183 35.0
43.402 41.0
43.4857 25.0
43.5694 33.0
43.6531 30.0
43.7368 33.0
43.8205 26.0
43.9042 31.0
43.9879 35.0
44.0716 32.0
44.1553 35.0
44.239 40.0
44.3227 52.0
44.4064 47.0
44.4901 48.0
44.5739 52.0
44.6576 30.0
44.7413 37.0
44.825 27.0
44.9087 31.0
44.9924 29.0
45.0761 34.0
45.1598 39.0
45.2435 26.0
45.3272 32.0
45.4109 28.0
45.4946 26.0
45.5783 35.0
45.662 26.0
45.7457 26.0
45.8294 27.0
45.9131 30.0
45.9968 15.0
46.0806 24.0
46.1643 16.0
46.248 35.0
46.3317 33.0
46.4154 33.0
46.4991 31.0
46.5828 25.0
46.6665 30.0
46.7502 26.0
46.8339 25.0
46.9176 37.0
47.0013 30.0
47.085 26.0
47.1687 29.0
47.2524 29.0
47.3361 27.0
47.4198 32.0
47.5035 33.0
47.5873 31.0
47.671 22.0
47.7547 27.0
47.8384 27.0
47.9221 23.0
48.0058 30.0
48.0895 31.0
48.1732 26.0
48.2569 21.0
48.3406 25.0
48.4243 29.0
48.508 25.0
48.5917 20.0
48.6754 37.0
48.7591 32.0
48.8428 17.0
48.9265 33.0
49.0102 25.0
49.094 29.0
49.1777 34.0
49.2614 33.0
49.3451 35.0
49.4288 24.0
49.5125 28.0
49.5962 26.0
49.6799 30.0
49.7636 27.0
49.8473 30.0
49.931 21.0
50.0147 33.0
50.0984 33.0
50.1821 31.0
50.2658 37.0
50.3495 39.0
50.4332 27.0
50.5169 26.0
50.6007 26.0
50.6844 24.0
50.7681 35.0
50.8518 34.0
50.9355 36.0
51.0192 27.0
51.1029 35.0
51.1866 23.0
51.2703 25.0
51.354 24.0
51.4377 27.0
51.5214 29.0
51.6051 33.0
51.6888 28.0
51.7725 25.0
51.8562 21.0
51.9399 26.0
52.0236 22.0
52.1074 31.0
52.1911 28.0
52.2748 34.0
52.3585 28.0
52.4422 31.0
52.5259 28.0
52.6096 26.0
52.6933 37.0
52.777 29.0
52.8607 28.0
52.9444 39.0
53.0281 34.0
53.1118 27.0
53.1955 21.0
53.2792 28.0
53.3629 24.0
53.4466 33.0
53.5303 34.0
53.6141 29.0
53.6978 31.0
53.7815 29.0
53.8652 19.0
53.9489 31.0
54.0326 28.0
54.1163 27.0
54.2 45.0
54.2837 25.0
54.3674 34.0
54.4511 30.0
54.5348 29.0
54.6185 20.0
54.7022 37.0
54.7859 39.0
54.8696 28.0
54.9533 29.0
55.037 30.0
55.1208 36.0
55.2045 31.0
55.2882 31.0
55.3719 28.0
55.4556 26.0
55.5393 31.0
55.623 23.0
55.7067 27.0
55.7904 33.0
55.8741 32.0
55.9578 38.0
56.0415 31.0
56.1252 30.0
56.2089 29.0
56.2926 21.0
56.3763 23.0
56.46 28.0
56.5437 27.0
56.6275 34.0
56.7112 30.0
56.7949 27.0
56.8786 31.0
56.9623 27.0
57.046 30.0
57.1297 30.0
57.2134 34.0
57.2971 37.0
57.3808 26.0
57.4645 46.0
57.5482 34.0
57.6319 33.0
57.7156 30.0
57.7993 40.0
57.883 39.0
57.9667 35.0
58.0504 38.0
58.1342 34.0
58.2179 28.0
58.3016 27.0
58.3853 34.0
58.469 33.0
58.5527 32.0
58.6364 28.0
58.7201 26.0
58.8038 31.0
58.8875 40.0
58.9712 32.0
59.0549 28.0
59.1386 31.0
59.2223 28.0
59.306 31.0
59.3897 23.0
59.4734 21.0
59.5571 26.0
59.6409 26.0
59.7246 36.0
59.8083 28.0
59.892 34.0
59.9757 25.0
60.0594 29.0
60.1431 38.0
60.2268 31.0
60.3105 33.0
60.3942 34.0
60.4779 38.0
60.5616 41.0
60.6453 27.0
60.729 36.0
60.8127 36.0
60.8964 36.0
60.9801 26.0
61.0638 30.0
61.1476 28.0
61.2313 35.0
61.315 25.0
61.3987 29.0
61.4824 33.0
61.5661 35.0
61.6498 28.0
61.7335 38.0
61.8172 27.0
61.9009 40.0
61.9846 34.0
62.0683 35.0
62.152 30.0
62.2357 24.0
62.3194 24.0
62.4031 23.0
62.4868 40.0
62.5705 40.0
62.6543 27.0
62.738 31.0
62.8217 27.0
62.9054 37.0
62.9891 30.0
63.0728 32.0
63.1565 37.0
63.2402 27.0
63.3239 30.0
63.4076 27.0
63.4913 28.0
63.575 36.0
63.6587 30.0
63.7424 30.0
63.8261 33.0
63.9098 26.0
63.9935 35.0
64.0772 28.0
64.161 31.0
64.2447 36.0
64.3284 27.0
64.4121 28.0
64.4958 29.0
64.5795 33.0
64.6632 28.0
64.7469 30.0
64.8306 30.0
64.9143 32.0
64.998 33.0
65.0817 35.0
65.1654 27.0
65.2491 39.0
65.3328 29.0
65.4165 27.0
65.5002 32.0
65.5839 34.0
65.6677 24.0
65.7514 30.0
65.8351 26.0
65.9188 29.0
66.0025 31.0
66.0862 45.0
66.1699 17.0
66.2536 32.0
66.3373 37.0
66.421 36.0
66.5047 22.0
66.5884 24.0
66.6721 32.0
66.7558 36.0
66.8395 37.0
66.9232 38.0
67.0069 33.0
67.0906 37.0
67.1744 40.0
67.2581 48.0
67.3418 35.0
67.4255 35.0
67.5092 40.0
67.5929 25.0
67.6766 28.0
67.7603 38.0
67.844 32.0
67.9277 38.0
68.0114 30.0
68.0951 32.0
68.1788 29.0
68.2625 27.0
68.3462 23.0
68.4299 44.0
68.5136 31.0
68.5973 23.0
68.6811 27.0
68.7648 31.0
68.8485 38.0
68.9322 28.0
69.0159 35.0
69.0996 29.0
69.1833 30.0
69.267 26.0
69.3507 32.0
69.4344 41.0
69.5181 28.0
69.6018 29.0
69.6855 27.0
69.7692 19.0
69.8529 40.0
69.9366 35.0
70.0203 34.0
70.104 29.0
70.1878 33.0
70.2715 44.0
70.3552 25.0
70.4389 33.0
70.5226 35.0
70.6063 30.0
70.69 33.0
70.7737 32.0
70.8574 28.0
70.9411 33.0
71.0248 27.0
71.1085 34.0
71.1922 37.0
71.2759 32.0
71.3596 28.0
71.4433 26.0
71.527 48.0
71.6107 67.0
71.6945 50.0
71.7782 37.0
71.8619 27.0
71.9456 39.0
72.0293 34.0
72.113 37.0
72.1967 40.0
72.2804 42.0
72.3641 31.0
72.4478 40.0
72.5315 35.0
72.6152 52.0
72.6989 27.0
72.7826 33.0
72.8663 41.0
72.95 32.0
73.0337 32.0
73.1174 35.0
73.2012 40.0
73.2849 42.0
73.3686 33.0
73.4523 36.0
73.536 28.0
73.6197 32.0
73.7034 45.0
73.7871 38.0
73.8708 45.0
73.9545 38.0
74.0382 30.0
74.1219 41.0
74.2056 36.0
74.2893 36.0
74.373 44.0
74.4567 35.0
74.5404 39.0
74.6241 42.0
74.7079 55.0
74.7916 41.0
74.8753 40.0
74.959 36.0
75.0427 36.0
75.1264 58.0
75.2101 50.0
75.2938 53.0
75.3775 65.0
75.4612 65.0
75.5449 79.0
75.6286 96.0
75.7123 192.0
75.796 352.0
75.8797 414.0
75.9634 454.0
76.0471 532.0
76.1308 1022.0
76.2146 3274.0
76.2983 1901.0
76.382 1085.0
76.4657 1727.0
76.5494 632.0
76.6331 185.0
76.7168 116.0
76.8005 91.0
76.8842 55.0
76.9679 56.0
77.0516 53.0
77.1353 44.0
77.219 40.0
77.3027 48.0
77.3864 52.0
77.4701 53.0
77.5538 50.0
77.6375 41.0
77.7213 48.0
77.805 39.0
77.8887 26.0
77.9724 40.0
78.0561 36.0
78.1398 28.0
78.2235 49.0
78.3072 44.0
78.3909 37.0
78.4746 39.0
78.5583 51.0
78.642 35.0
78.7257 58.0
78.8094 51.0
78.8931 48.0
78.9768 45.0
79.0605 38.0
79.1442 46.0
79.228 51.0
79.3117 47.0
79.3954 43.0
79.4791 56.0
79.5628 62.0
79.6465 53.0
79.7302 63.0
79.8139 59.0
79.8976 62.0
79.9813 56.0
80.065 63.0
80.1487 115.0
80.2324 120.0
80.3161 156.0
80.3998 163.0
80.4835 329.0
80.5672 917.0
80.6509 15784.0
80.7347 1927.0
80.8184 885.0
80.9021 7966.0
80.9858 917.0
81.0695 290.0
81.1532 129.0
81.2369 96.0
81.3206 91.0
81.4043 80.0
81.488 59.0
81.5717 52.0
81.6554 62.0
81.7391 48.0
81.8228 60.0
81.9065 52.0
81.9902 44.0
82.0739 46.0
82.1576 63.0
82.2414 46.0
82.3251 47.0
82.4088 37.0
82.4925 36.0
82.5762 32.0
82.6599 33.0
82.7436 43.0
82.8273 31.0
82.911 31.0
82.9947 35.0
83.0784 41.0
83.1621 25.0
83.2458 20.0
83.3295 35.0
83.4132 28.0
83.4969 33.0
83.5806 27.0
83.6643 32.0
83.7481 34.0
83.8318 42.0
83.9155 24.0
83.9992 48.0
84.0829 36.0
84.1666 34.0
84.2503 43.0
84.334 33.0
84.4177 37.0
84.5014 37.0
84.5851 25.0
84.6688 29.0
84.7525 39.0
84.8362 26.0
84.9199 35.0
85.0036 28.0
85.0873 24.0
85.171 24.0
85.2548 33.0
85.3385 36.0
85.4222 28.0
85.5059 33.0
85.5896 29.0
85.6733 39.0
85.757 32.0
85.8407 32.0
85.9244 39.0
86.0081 34.0
86.0918 34.0
86.1755 31.0
86.2592 42.0
86.3429 40.0
86.4266 24.0
86.5103 44.0
86.594 34.0
86.6777 34.0
86.7615 36.0
86.8452 33.0
86.9289 36.0
87.0126 34.0
87.0963 39.0
87.18 25.0
87.2637 30.0
87.3474 32.0
87.4311 26.0
87.5148 27.0
87.5985 36.0
87.6822 29.0
87.7659 31.0
87.8496 36.0
87.9333 28.0
88.017 33.0
88.1007 37.0
88.1844 35.0
88.2682 27.0
88.3519 30.0
88.4356 29.0
88.5193 34.0
88.603 41.0
88.6867 41.0
88.7704 32.0
88.8541 33.0
88.9378 28.0
89.0215 36.0
89.1052 34.0
89.1889 37.0
89.2726 37.0
89.3563 40.0
89.44 28.0
89.5237 37.0
89.6074 34.0
89.6911 40.0
89.7749 29.0
89.8586 29.0
89.9423 31.0
90.026 46.0
90.1097 27.0
90.1934 26.0
90.2771 26.0
90.3608 28.0
90.4445 20.0
90.5282 28.0
90.6119 32.0
90.6956 30.0
90.7793 27.0
90.863 56.0
90.9467 30.0
91.0304 30.0
91.1141 26.0
91.1978 45.0
91.2816 39.0
91.3653 34.0
91.449 30.0
91.5327 27.0
91.6164 40.0
91.7001 32.0
91.7838 30.0
91.8675 33.0
91.9512 38.0
92.0349 32.0
92.1186 42.0
92.2023 29.0
92.286 37.0
92.3697 37.0
92.4534 33.0
92.5371 31.0
92.6208 39.0
92.7045 36.0
92.7883 30.0
92.872 38.0
92.9557 35.0
93.0394 31.0
93.1231 30.0
93.2068 33.0
93.2905 38.0
93.3742 37.0
93.4579 30.0
93.5416 28.0
93.6253 24.0
93.709 32.0
93.7927 36.0
93.8764 31.0
93.9601 30.0
94.0438 28.0
94.1275 32.0
94.2112 43.0
94.295 35.0
94.3787 39.0
94.4624 34.0
94.5461 40.0
94.6298 43.0
94.7135 34.0
94.7972 35.0
94.8809 36.0
94.9646 29.0
95.0483 36.0
95.132 32.0
95.2157 27.0
95.2994 37.0
95.3831 33.0
95.4668 36.0
95.5505 31.0
95.6342 29.0
95.7179 34.0
95.8017 32.0
95.8854 34.0
95.9691 38.0
96.0528 42.0
96.1365 23.0
96.2202 42.0
96.3039 24.0
96.3876 30.0
96.4713 26.0
96.555 40.0
96.6387 37.0
96.7224 34.0
96.8061 27.0
96.8898 31.0
96.9735 42.0
97.0572 34.0
97.1409 31.0
97.2246 35.0
97.3084 35.0
97.3921 31.0
97.4758 38.0
97.5595 27.0
97.6432 39.0
97.7269 37.0
97.8106 35.0
97.8943 26.0
97.978 33.0
98.0617 36.0
98.1454 31.0
98.2291 39.0
98.3128 36.0
98.3965 39.0
98.4802 33.0
98.5639 45.0
98.6476 33.0
98.7313 38.0
98.8151 39.0
98.8988 35.0
98.9825 33.0
99.0662 47.0
99.1499 46.0
99.2336 43.0
99.3173 40.0
99.401 47.0
99.4847 31.0
99.5684 21.0
99.6521 34.0
99.7358 28.0
99.8195 34.0
99.9032 41.0
99.9869 35.0
100.071 32.0
100.154 35.0
100.238 31.0
100.322 27.0
100.405 39.0
100.489 25.0
100.573 39.0
100.657 32.0
100.74 26.0
100.824 35.0
100.908 34.0
100.991 35.0
101.075 29.0
101.159 31.0
101.243 27.0
101.326 25.0
101.41 30.0
101.494 24.0
101.577 33.0
101.661 38.0
101.745 38.0
101.828 32.0
101.912 27.0
101.996 27.0
102.08 26.0
102.163 35.0
102.247 19.0
102.331 34.0
102.414 37.0
102.498 36.0
102.582 37.0
102.666 39.0
102.749 25.0
102.833 26.0
102.917 32.0
103 33.0
103.084 30.0
103.168 25.0
103.251 32.0
103.335 39.0
103.419 31.0
103.503 32.0
103.586 27.0
103.67 30.0
103.754 29.0
103.837 49.0
103.921 47.0
104.005 26.0
104.089 42.0
104.172 32.0
104.256 31.0
104.34 44.0
104.423 35.0
104.507 37.0
104.591 38.0
104.674 33.0
104.758 34.0
104.842 36.0
104.926 30.0
105.009 37.0
105.093 28.0
105.177 30.0
105.26 32.0
105.344 37.0
105.428 32.0
105.511 31.0
105.595 29.0
105.679 39.0
105.763 26.0
105.846 27.0
105.93 40.0
106.014 39.0
106.097 30.0
106.181 27.0
106.265 34.0
106.349 39.0
106.432 37.0
106.516 41.0
106.6 38.0
106.683 35.0
106.767 31.0
106.851 31.0
106.934 45.0
107.018 32.0
107.102 36.0
107.186 43.0
107.269 32.0
107.353 29.0
107.437 29.0
107.52 31.0
107.604 28.0
107.688 37.0
107.772 33.0
107.855 43.0
107.939 38.0
108.023 35.0
108.106 36.0
108.19 32.0
108.274 45.0
108.357 35.0
108.441 36.0
108.525 51.0
108.609 37.0
108.692 37.0
108.776 39.0
108.86 26.0
108.943 31.0
109.027 35.0
109.111 33.0
109.195 30.0
109.278 37.0
109.362 31.0
109.446 43.0
109.529 34.0
109.613 33.0
109.697 36.0
109.78 38.0
109.864 40.0
109.948 41.0
110.032 38.0
110.115 29.0
110.199 23.0
110.283 31.0
110.366 30.0
110.45 49.0
110.534 34.0
110.618 30.0
110.701 32.0
110.785 48.0
110.869 37.0
110.952 33.0
111.036 42.0
111.12 37.0
111.203 41.0
111.287 42.0
111.371 28.0
111.455 34.0
111.538 34.0
111.622 42.0
111.706 25.0
111.789 36.0
111.873 32.0
111.957 34.0
112.041 36.0
112.124 36.0
112.208 26.0
112.292 43.0
112.375 47.0
112.459 23.0
112.543 31.0
112.626 33.0
112.71 38.0
112.794 44.0
112.878 24.0
112.961 39.0
113.045 30.0
113.129 33.0
113.212 39.0
113.296 35.0
113.38 31.0
113.464 33.0
113.547 32.0
113.631 40.0
113.715 33.0
113.798 38.0
113.882 42.0
113.966 29.0
114.049 45.0
114.133 27.0
114.217 27.0
114.301 35.0
114.384 31.0
114.468 32.0
114.552 44.0
114.635 26.0
114.719 40.0
114.803 29.0
114.887 32.0
114.97 33.0
115.054 31.0
115.138 36.0
115.221 25.0
115.305 26.0
115.389 32.0
115.472 40.0
115.556 34.0
115.64 29.0
115.724 44.0
115.807 28.0
115.891 34.0
115.975 29.0
116.058 45.0
116.142 33.0
116.226 35.0
116.31 43.0
116.393 24.0
116.477 34.0
116.561 41.0
116.644 26.0
116.728 26.0
116.812 28.0
116.895 33.0
116.979 36.0
117.063 30.0
117.147 43.0
117.23 35.0
117.314 28.0
117.398 36.0
117.481 39.0
117.565 43.0
117.649 26.0
117.733 37.0
117.816 42.0
117.9 41.0
117.984 43.0
118.067 43.0
118.151 24.0
118.235 21.0
118.318 42.0
118.402 31.0
118.486 36.0
118.57 31.0
118.653 36.0
118.737 33.0
118.821 44.0
118.904 35.0
118.988 33.0
119.072 28.0
119.156 25.0
119.239 36.0
119.323 27.0
119.407 31.0
119.49 36.0
119.574 35.0
119.658 40.0
119.741 23.0
119.825 37.0
119.909 29.0
119.993 40.0
120.076 34.0
120.16 29.0
120.244 48.0
120.327 31.0
120.411 31.0
120.495 42.0
120.578 38.0
120.662 26.0
120.746 35.0
120.83 39.0
120.913 35.0
120.997 35.0
121.081 33.0
121.164 42.0
121.248 31.0
121.332 36.0
121.416 35.0
121.499 30.0
121.583 36.0
121.667 40.0
121.75 31.0
121.834 40.0
121.918 39.0
122.001 32.0
122.085 30.0
122.169 39.0
122.253 24.0
122.336 45.0
122.42 38.0
122.504 41.0
122.587 45.0
122.671 69.0
122.755 74.0
122.839 61.0
122.922 39.0
123.006 46.0
123.09 31.0
123.173 37.0
123.257 36.0
123.341 29.0
123.424 32.0
123.508 43.0
123.592 35.0
123.676 46.0
123.759 25.0
123.843 34.0
123.927 37.0
124.01 26.0
124.094 38.0
124.178 36.0
124.262 30.0
124.345 34.0
124.429 48.0
124.513 30.0
124.596 36.0
124.68 36.0
124.764 34.0
124.847 29.0
124.931 39.0
125.015 30.0
125.099 39.0
125.182 34.0
125.266 34.0
125.35 38.0
125.433 25.0
125.517 42.0
125.601 36.0
125.685 23.0
125.768 40.0
125.852 31.0
125.936 29.0
126.019 28.0
126.103 29.0
126.187 28.0
126.27 34.0
126.354 25.0
126.438 34.0
126.522 35.0
126.605 27.0
126.689 34.0
126.773 35.0
126.856 22.0
126.94 31.0
127.024 27.0
127.108 28.0
127.191 27.0
127.275 22.0
127.359 30.0
127.442 30.0
127.526 33.0
127.61 37.0
127.693 34.0
127.777 41.0
127.861 39.0
127.945 40.0
128.028 28.0
128.112 40.0
128.196 28.0
128.279 31.0
128.363 30.0
128.447 27.0
128.531 41.0
128.614 26.0
128.698 40.0
128.782 33.0
128.865 25.0
128.949 30.0
129.033 40.0
129.116 27.0
129.2 41.0
129.284 39.0
129.368 37.0
129.451 36.0
129.535 39.0
129.619 33.0
129.702 42.0
129.786 34.0
129.87 42.0
129.954 31.0
129.998 43.0