File: data/W6901a/XRD_2ThetaOmega/scan_2th-om_a_Cr2O3_30-40deg_PIXscan_4min_2.xy
30.0025 109.0
30.0123 88.0
30.0222 122.0
30.032 135.0
30.0419 120.0
30.0517 92.0
30.0615 89.0
30.0714 115.0
30.0812 88.0
30.0911 94.0
30.1009 121.0
30.1108 86.0
30.1206 84.0
30.1305 104.0
30.1403 101.0
30.1502 114.0
30.16 117.0
30.1699 104.0
30.1797 115.0
30.1896 104.0
30.1994 102.0
30.2093 91.0
30.2191 105.0
30.229 112.0
30.2388 111.0
30.2487 97.0
30.2585 99.0
30.2684 115.0
30.2782 124.0
30.288 100.0
30.2979 103.0
30.3077 103.0
30.3176 122.0
30.3274 102.0
30.3373 99.0
30.3471 86.0
30.357 112.0
30.3668 119.0
30.3767 108.0
30.3865 117.0
30.3964 104.0
30.4062 87.0
30.4161 95.0
30.4259 102.0
30.4358 108.0
30.4456 104.0
30.4555 76.0
30.4653 76.0
30.4752 105.0
30.485 105.0
30.4948 114.0
30.5047 89.0
30.5145 109.0
30.5244 117.0
30.5342 97.0
30.5441 107.0
30.5539 92.0
30.5638 102.0
30.5736 104.0
30.5835 95.0
30.5933 103.0
30.6032 102.0
30.613 106.0
30.6229 85.0
30.6327 101.0
30.6426 106.0
30.6524 93.0
30.6623 102.0
30.6721 113.0
30.682 87.0
30.6918 100.0
30.7016 100.0
30.7115 103.0
30.7213 97.0
30.7312 102.0
30.741 112.0
30.7509 105.0
30.7607 100.0
30.7706 94.0
30.7804 81.0
30.7903 101.0
30.8001 111.0
30.81 104.0
30.8198 99.0
30.8297 78.0
30.8395 85.0
30.8494 121.0
30.8592 96.0
30.8691 102.0
30.8789 87.0
30.8888 121.0
30.8986 105.0
30.9085 93.0
30.9183 102.0
30.9281 90.0
30.938 111.0
30.9478 108.0
30.9577 112.0
30.9675 79.0
30.9774 93.0
30.9872 107.0
30.9971 99.0
31.0069 106.0
31.0168 108.0
31.0266 106.0
31.0365 102.0
31.0463 95.0
31.0562 104.0
31.066 101.0
31.0759 88.0
31.0857 101.0
31.0956 114.0
31.1054 101.0
31.1153 111.0
31.1251 107.0
31.1349 106.0
31.1448 119.0
31.1546 94.0
31.1645 112.0
31.1743 105.0
31.1842 111.0
31.194 86.0
31.2039 105.0
31.2137 107.0
31.2236 94.0
31.2334 98.0
31.2433 86.0
31.2531 99.0
31.263 92.0
31.2728 88.0
31.2827 94.0
31.2925 100.0
31.3024 100.0
31.3122 104.0
31.3221 89.0
31.3319 112.0
31.3418 117.0
31.3516 96.0
31.3614 106.0
31.3713 92.0
31.3811 95.0
31.391 101.0
31.4008 118.0
31.4107 102.0
31.4205 97.0
31.4304 121.0
31.4402 106.0
31.4501 90.0
31.4599 116.0
31.4698 109.0
31.4796 87.0
31.4895 95.0
31.4993 112.0
31.5092 97.0
31.519 101.0
31.5289 110.0
31.5387 91.0
31.5486 108.0
31.5584 94.0
31.5682 92.0
31.5781 112.0
31.5879 120.0
31.5978 97.0
31.6076 107.0
31.6175 80.0
31.6273 107.0
31.6372 121.0
31.647 97.0
31.6569 117.0
31.6667 81.0
31.6766 100.0
31.6864 109.0
31.6963 83.0
31.7061 80.0
31.716 97.0
31.7258 100.0
31.7357 104.0
31.7455 105.0
31.7554 102.0
31.7652 99.0
31.7751 103.0
31.7849 94.0
31.7947 103.0
31.8046 104.0
31.8144 80.0
31.8243 86.0
31.8341 89.0
31.844 93.0
31.8538 105.0
31.8637 103.0
31.8735 97.0
31.8834 98.0
31.8932 107.0
31.9031 111.0
31.9129 103.0
31.9228 122.0
31.9326 121.0
31.9425 96.0
31.9523 112.0
31.9622 97.0
31.972 120.0
31.9819 106.0
31.9917 90.0
32.0015 114.0
32.0114 90.0
32.0212 113.0
32.0311 104.0
32.0409 89.0
32.0508 99.0
32.0606 88.0
32.0705 98.0
32.0803 126.0
32.0902 99.0
32.1 103.0
32.1099 106.0
32.1197 104.0
32.1296 93.0
32.1394 99.0
32.1493 115.0
32.1591 116.0
32.169 116.0
32.1788 114.0
32.1887 96.0
32.1985 101.0
32.2083 96.0
32.2182 106.0
32.228 106.0
32.2379 91.0
32.2477 95.0
32.2576 98.0
32.2674 104.0
32.2773 103.0
32.2871 96.0
32.297 110.0
32.3068 100.0
32.3167 99.0
32.3265 90.0
32.3364 110.0
32.3462 86.0
32.3561 105.0
32.3659 93.0
32.3758 92.0
32.3856 106.0
32.3955 110.0
32.4053 102.0
32.4152 103.0
32.425 102.0
32.4348 92.0
32.4447 113.0
32.4545 108.0
32.4644 109.0
32.4742 100.0
32.4841 119.0
32.4939 101.0
32.5038 110.0
32.5136 93.0
32.5235 114.0
32.5333 115.0
32.5432 89.0
32.553 109.0
32.5629 102.0
32.5727 88.0
32.5826 92.0
32.5924 89.0
32.6023 111.0
32.6121 100.0
32.622 103.0
32.6318 112.0
32.6416 93.0
32.6515 109.0
32.6613 124.0
32.6712 111.0
32.681 116.0
32.6909 108.0
32.7007 116.0
32.7106 122.0
32.7204 109.0
32.7303 100.0
32.7401 101.0
32.75 93.0
32.7598 105.0
32.7697 120.0
32.7795 84.0
32.7894 102.0
32.7992 90.0
32.8091 117.0
32.8189 104.0
32.8288 86.0
32.8386 107.0
32.8485 87.0
32.8583 104.0
32.8681 93.0
32.878 111.0
32.8878 93.0
32.8977 99.0
32.9075 105.0
32.9174 96.0
32.9272 104.0
32.9371 93.0
32.9469 112.0
32.9568 95.0
32.9666 83.0
32.9765 103.0
32.9863 105.0
32.9962 99.0
33.006 100.0
33.0159 99.0
33.0257 109.0
33.0356 88.0
33.0454 117.0
33.0553 116.0
33.0651 106.0
33.0749 101.0
33.0848 98.0
33.0946 79.0
33.1045 105.0
33.1143 117.0
33.1242 99.0
33.134 93.0
33.1439 120.0
33.1537 101.0
33.1636 114.0
33.1734 116.0
33.1833 113.0
33.1931 116.0
33.203 101.0
33.2128 106.0
33.2227 96.0
33.2325 93.0
33.2424 91.0
33.2522 97.0
33.2621 102.0
33.2719 85.0
33.2818 95.0
33.2916 100.0
33.3014 97.0
33.3113 100.0
33.3211 105.0
33.331 106.0
33.3408 80.0
33.3507 98.0
33.3605 101.0
33.3704 120.0
33.3802 98.0
33.3901 101.0
33.3999 114.0
33.4098 101.0
33.4196 98.0
33.4295 93.0
33.4393 112.0
33.4492 88.0
33.459 120.0
33.4689 110.0
33.4787 87.0
33.4886 113.0
33.4984 98.0
33.5082 107.0
33.5181 103.0
33.5279 88.0
33.5378 106.0
33.5476 121.0
33.5575 110.0
33.5673 92.0
33.5772 118.0
33.587 122.0
33.5969 131.0
33.6067 114.0
33.6166 111.0
33.6264 118.0
33.6363 109.0
33.6461 126.0
33.656 131.0
33.6658 120.0
33.6757 112.0
33.6855 121.0
33.6954 120.0
33.7052 128.0
33.715 108.0
33.7249 108.0
33.7347 123.0
33.7446 120.0
33.7544 119.0
33.7643 121.0
33.7741 121.0
33.784 121.0
33.7938 131.0
33.8037 126.0
33.8135 129.0
33.8234 158.0
33.8332 152.0
33.8431 152.0
33.8529 172.0
33.8628 217.0
33.8726 303.0
33.8825 500.0
33.8923 839.0
33.9022 1027.0
33.912 1287.0
33.9219 1181.0
33.9317 1064.0
33.9415 790.0
33.9514 529.0
33.9612 387.0
33.9711 291.0
33.9809 281.0
33.9908 196.0
34.0006 164.0
34.0105 172.0
34.0203 160.0
34.0302 113.0
34.04 141.0
34.0499 139.0
34.0597 122.0
34.0696 128.0
34.0794 138.0
34.0893 140.0
34.0991 153.0
34.109 151.0
34.1188 112.0
34.1287 132.0
34.1385 142.0
34.1483 125.0
34.1582 125.0
34.168 146.0
34.1779 134.0
34.1877 148.0
34.1976 126.0
34.2074 119.0
34.2173 131.0
34.2271 144.0
34.237 126.0
34.2468 136.0
34.2567 164.0
34.2665 135.0
34.2764 132.0
34.2862 122.0
34.2961 141.0
34.3059 174.0
34.3158 133.0
34.3256 128.0
34.3355 133.0
34.3453 137.0
34.3552 146.0
34.365 166.0
34.3748 150.0
34.3847 122.0
34.3945 144.0
34.4044 139.0
34.4142 131.0
34.4241 155.0
34.4339 135.0
34.4438 152.0
34.4536 133.0
34.4635 134.0
34.4733 151.0
34.4832 137.0
34.493 127.0
34.5029 138.0
34.5127 128.0
34.5226 153.0
34.5324 115.0
34.5423 128.0
34.5521 137.0
34.562 139.0
34.5718 124.0
34.5816 147.0
34.5915 139.0
34.6013 148.0
34.6112 144.0
34.621 140.0
34.6309 124.0
34.6407 136.0
34.6506 132.0
34.6604 133.0
34.6703 124.0
34.6801 143.0
34.69 126.0
34.6998 144.0
34.7097 148.0
34.7195 153.0
34.7294 130.0
34.7392 141.0
34.7491 154.0
34.7589 158.0
34.7688 168.0
34.7786 156.0
34.7884 169.0
34.7983 167.0
34.8081 179.0
34.818 172.0
34.8278 171.0
34.8377 170.0
34.8475 167.0
34.8574 166.0
34.8672 181.0
34.8771 189.0
34.8869 165.0
34.8968 203.0
34.9066 192.0
34.9165 177.0
34.9263 192.0
34.9362 182.0
34.946 183.0
34.9559 197.0
34.9657 204.0
34.9756 198.0
34.9854 170.0
34.9953 195.0
35.0051 172.0
35.0149 174.0
35.0248 171.0
35.0346 181.0
35.0445 185.0
35.0543 189.0
35.0642 174.0
35.074 176.0
35.0839 208.0
35.0937 178.0
35.1036 186.0
35.1134 182.0
35.1233 178.0
35.1331 158.0
35.143 158.0
35.1528 155.0
35.1627 169.0
35.1725 186.0
35.1824 181.0
35.1922 199.0
35.2021 186.0
35.2119 188.0
35.2217 192.0
35.2316 192.0
35.2414 190.0
35.2513 270.0
35.2611 228.0
35.271 226.0
35.2808 280.0
35.2907 265.0
35.3005 263.0
35.3104 288.0
35.3202 351.0
35.3301 343.0
35.3399 340.0
35.3498 407.0
35.3596 383.0
35.3695 398.0
35.3793 421.0
35.3892 442.0
35.399 484.0
35.4089 463.0
35.4187 533.0
35.4286 558.0
35.4384 589.0
35.4482 560.0
35.4581 594.0
35.4679 646.0
35.4778 621.0
35.4876 691.0
35.4975 722.0
35.5073 714.0
35.5172 792.0
35.527 761.0
35.5369 813.0
35.5467 842.0
35.5566 885.0
35.5664 898.0
35.5763 929.0
35.5861 977.0
35.596 978.0
35.6058 1006.0
35.6157 972.0
35.6255 910.0
35.6354 1010.0
35.6452 962.0
35.655 1031.0
35.6649 964.0
35.6747 1037.0
35.6846 1083.0
35.6944 1063.0
35.7043 1047.0
35.7141 1111.0
35.724 1088.0
35.7338 1070.0
35.7437 1054.0
35.7535 1098.0
35.7634 1096.0
35.7732 1022.0
35.7831 999.0
35.7929 1078.0
35.8028 955.0
35.8126 978.0
35.8225 936.0
35.8323 941.0
35.8422 989.0
35.852 921.0
35.8619 925.0
35.8717 868.0
35.8815 812.0
35.8914 829.0
35.9012 876.0
35.9111 834.0
35.9209 745.0
35.9308 745.0
35.9406 670.0
35.9505 714.0
35.9603 618.0
35.9702 680.0
35.98 655.0
35.9899 525.0
35.9997 573.0
36.0096 536.0
36.0194 537.0
36.0293 510.0
36.0391 507.0
36.049 514.0
36.0588 491.0
36.0687 437.0
36.0785 400.0
36.0883 392.0
36.0982 343.0
36.108 360.0
36.1179 368.0
36.1277 331.0
36.1376 325.0
36.1474 321.0
36.1573 299.0
36.1671 329.0
36.177 284.0
36.1868 220.0
36.1967 235.0
36.2065 301.0
36.2164 260.0
36.2262 214.0
36.2361 269.0
36.2459 203.0
36.2558 193.0
36.2656 209.0
36.2755 199.0
36.2853 212.0
36.2951 187.0
36.305 201.0
36.3148 218.0
36.3247 207.0
36.3345 198.0
36.3444 194.0
36.3542 236.0
36.3641 227.0
36.3739 231.0
36.3838 198.0
36.3936 205.0
36.4035 202.0
36.4133 172.0
36.4232 202.0
36.433 198.0
36.4429 185.0
36.4527 211.0
36.4626 198.0
36.4724 206.0
36.4823 223.0
36.4921 203.0
36.502 185.0
36.5118 196.0
36.5216 183.0
36.5315 216.0
36.5413 182.0
36.5512 187.0
36.561 206.0
36.5709 192.0
36.5807 209.0
36.5906 213.0
36.6004 196.0
36.6103 211.0
36.6201 206.0
36.63 214.0
36.6398 220.0
36.6497 200.0
36.6595 261.0
36.6694 234.0
36.6792 263.0
36.6891 223.0
36.6989 202.0
36.7088 255.0
36.7186 265.0
36.7284 205.0
36.7383 219.0
36.7481 200.0
36.758 215.0
36.7678 273.0
36.7777 201.0
36.7875 259.0
36.7974 314.0
36.8072 290.0
36.8171 306.0
36.8269 310.0
36.8368 308.0
36.8466 319.0
36.8565 327.0
36.8663 300.0
36.8762 314.0
36.886 319.0
36.8959 329.0
36.9057 308.0
36.9156 355.0
36.9254 347.0
36.9353 343.0
36.9451 386.0
36.9549 332.0
36.9648 346.0
36.9746 368.0
36.9845 343.0
36.9943 388.0
37.0042 403.0
37.014 380.0
37.0239 419.0
37.0337 405.0
37.0436 389.0
37.0534 418.0
37.0633 416.0
37.0731 401.0
37.083 418.0
37.0928 419.0
37.1027 454.0
37.1125 457.0
37.1224 454.0
37.1322 432.0
37.1421 495.0
37.1519 432.0
37.1617 499.0
37.1716 491.0
37.1814 521.0
37.1913 520.0
37.2011 527.0
37.211 569.0
37.2208 580.0
37.2307 590.0
37.2405 608.0
37.2504 650.0
37.2602 646.0
37.2701 681.0
37.2799 705.0
37.2898 652.0
37.2996 727.0
37.3095 750.0
37.3193 778.0
37.3292 777.0
37.339 813.0
37.3489 869.0
37.3587 858.0
37.3686 888.0
37.3784 952.0
37.3882 1014.0
37.3981 1047.0
37.4079 1113.0
37.4178 1110.0
37.4276 1231.0
37.4375 1354.0
37.4473 1654.0
37.4572 1800.0
37.467 2198.0
37.4769 2521.0
37.4867 3045.0
37.4966 3453.0
37.5064 3747.0
37.5163 3809.0
37.5261 3839.0
37.536 3698.0
37.5458 3567.0
37.5557 3833.0
37.5655 4291.0
37.5754 5013.0
37.5852 6296.0
37.595 7897.0
37.6049 10540.0
37.6147 14968.0
37.6246 24730.0
37.6344 50744.0
37.6443 128862.0
37.6541 225373.0
37.664 261602.0
37.6738 268551.0
37.6837 256594.0
37.6935 186977.0
37.7034 79801.0
37.7132 37307.0
37.7231 28272.0
37.7329 41471.0
37.7428 85633.0
37.7526 124306.0
37.7625 138185.0
37.7723 138546.0
37.7822 125753.0
37.792 79904.0
37.8018 35236.0
37.8117 17032.0
37.8215 10178.0
37.8314 7269.0
37.8412 5693.0
37.8511 4693.0
37.8609 3993.0
37.8708 3583.0
37.8806 3011.0
37.8905 2795.0
37.9003 2581.0
37.9102 2236.0
37.92 2116.0
37.9299 1955.0
37.9397 1839.0
37.9496 1677.0
37.9594 1628.0
37.9693 1552.0
37.9791 1435.0
37.989 1324.0
37.9988 1226.0
38.0087 1219.0
38.0185 1120.0
38.0283 1023.0
38.0382 1142.0
38.048 1068.0
38.0579 1024.0
38.0677 993.0
38.0776 946.0
38.0874 908.0
38.0973 869.0
38.1071 834.0
38.117 839.0
38.1268 827.0
38.1367 792.0
38.1465 809.0
38.1564 768.0
38.1662 727.0
38.1761 696.0
38.1859 701.0
38.1958 689.0
38.2056 644.0
38.2155 565.0
38.2253 581.0
38.2351 609.0
38.245 567.0
38.2548 571.0
38.2647 484.0
38.2745 544.0
38.2844 517.0
38.2942 546.0
38.3041 466.0
38.3139 522.0
38.3238 505.0
38.3336 444.0
38.3435 470.0
38.3533 394.0
38.3632 398.0
38.373 401.0
38.3829 399.0
38.3927 411.0
38.4026 375.0
38.4124 368.0
38.4223 363.0
38.4321 352.0
38.442 320.0
38.4518 355.0
38.4616 296.0
38.4715 290.0
38.4813 312.0
38.4912 326.0
38.501 322.0
38.5109 310.0
38.5207 285.0
38.5306 286.0
38.5404 293.0
38.5503 286.0
38.5601 281.0
38.57 269.0
38.5798 273.0
38.5897 275.0
38.5995 211.0
38.6094 203.0
38.6192 226.0
38.6291 188.0
38.6389 215.0
38.6488 258.0
38.6586 188.0
38.6684 209.0
38.6783 187.0
38.6881 200.0
38.698 192.0
38.7078 218.0
38.7177 194.0
38.7275 200.0
38.7374 177.0
38.7472 196.0
38.7571 181.0
38.7669 166.0
38.7768 157.0
38.7866 189.0
38.7965 177.0
38.8063 171.0
38.8162 180.0
38.826 156.0
38.8359 180.0
38.8457 148.0
38.8556 151.0
38.8654 163.0
38.8753 162.0
38.8851 149.0
38.8949 176.0
38.9048 159.0
38.9146 159.0
38.9245 141.0
38.9343 157.0
38.9442 164.0
38.954 153.0
38.9639 150.0
38.9737 150.0
38.9836 149.0
38.9934 151.0
39.0033 136.0
39.0131 179.0
39.023 134.0
39.0328 145.0
39.0427 162.0
39.0525 157.0
39.0624 139.0
39.0722 154.0
39.0821 148.0
39.0919 158.0
39.1017 165.0
39.1116 149.0
39.1214 132.0
39.1313 133.0
39.1411 137.0
39.151 151.0
39.1608 155.0
39.1707 125.0
39.1805 132.0
39.1904 145.0
39.2002 136.0
39.2101 142.0
39.2199 130.0
39.2298 141.0
39.2396 135.0
39.2495 143.0
39.2593 145.0
39.2692 141.0
39.279 137.0
39.2889 109.0
39.2987 147.0
39.3085 107.0
39.3184 148.0
39.3282 139.0
39.3381 147.0
39.3479 137.0
39.3578 143.0
39.3676 129.0
39.3775 110.0
39.3873 130.0
39.3972 132.0
39.407 115.0
39.4169 143.0
39.4267 137.0
39.4366 151.0
39.4464 122.0
39.4563 121.0
39.4661 126.0
39.476 111.0
39.4858 119.0
39.4957 105.0
39.5055 112.0
39.5154 111.0
39.5252 118.0
39.535 120.0
39.5449 137.0
39.5547 124.0
39.5646 124.0
39.5744 124.0
39.5843 125.0
39.5941 148.0
39.604 127.0
39.6138 119.0
39.6237 142.0
39.6335 126.0
39.6434 107.0
39.6532 131.0
39.6631 117.0
39.6729 134.0
39.6828 99.0
39.6926 124.0
39.7025 124.0
39.7123 135.0
39.7222 120.0
39.732 128.0
39.7418 120.0
39.7517 143.0
39.7615 104.0
39.7714 83.0
39.7812 143.0
39.7911 139.0
39.8009 137.0
39.8108 121.0
39.8206 124.0
39.8305 107.0
39.8403 102.0
39.8502 110.0
39.86 129.0
39.8699 130.0
39.8797 115.0
39.8896 135.0
39.8994 146.0
39.9093 108.0
39.9191 103.0
39.929 135.0
39.9388 123.0
39.9487 125.0
39.9585 125.0
39.9683 100.0
39.9782 100.0
39.988 125.0
39.9979 141.0