File: data/W6902c/XRD_2ThetaOmega/scan_2th-om_c_Cr2O3_35-45deg_PIXscan_4min_C3.xy
35.0021 127.0
35.0119 114.0
35.0218 119.0
35.0316 119.0
35.0415 93.0
35.0513 106.0
35.0611 102.0
35.071 110.0
35.0808 91.0
35.0907 131.0
35.1005 121.0
35.1104 122.0
35.1202 128.0
35.1301 126.0
35.1399 153.0
35.1498 121.0
35.1596 121.0
35.1695 92.0
35.1793 114.0
35.1892 121.0
35.199 120.0
35.2089 125.0
35.2187 147.0
35.2286 118.0
35.2384 128.0
35.2483 127.0
35.2581 112.0
35.268 125.0
35.2778 102.0
35.2876 129.0
35.2975 118.0
35.3073 112.0
35.3172 122.0
35.327 115.0
35.3369 116.0
35.3467 114.0
35.3566 104.0
35.3664 104.0
35.3763 120.0
35.3861 121.0
35.396 134.0
35.4058 122.0
35.4157 129.0
35.4255 113.0
35.4354 119.0
35.4452 123.0
35.4551 92.0
35.4649 125.0
35.4748 132.0
35.4846 122.0
35.4944 105.0
35.5043 103.0
35.5141 122.0
35.524 123.0
35.5338 124.0
35.5437 112.0
35.5535 111.0
35.5634 139.0
35.5732 94.0
35.5831 134.0
35.5929 114.0
35.6028 113.0
35.6126 109.0
35.6225 102.0
35.6323 118.0
35.6422 116.0
35.652 114.0
35.6619 101.0
35.6717 104.0
35.6816 117.0
35.6914 115.0
35.7012 116.0
35.7111 104.0
35.7209 116.0
35.7308 118.0
35.7406 118.0
35.7505 105.0
35.7603 107.0
35.7702 111.0
35.78 131.0
35.7899 111.0
35.7997 128.0
35.8096 90.0
35.8194 125.0
35.8293 105.0
35.8391 106.0
35.849 128.0
35.8588 124.0
35.8687 114.0
35.8785 113.0
35.8884 125.0
35.8982 106.0
35.9081 95.0
35.9179 110.0
35.9277 108.0
35.9376 118.0
35.9474 120.0
35.9573 97.0
35.9671 114.0
35.977 115.0
35.9868 107.0
35.9967 125.0
36.0065 113.0
36.0164 111.0
36.0262 106.0
36.0361 125.0
36.0459 102.0
36.0558 123.0
36.0656 125.0
36.0755 111.0
36.0853 116.0
36.0952 95.0
36.105 126.0
36.1149 118.0
36.1247 130.0
36.1345 123.0
36.1444 119.0
36.1542 121.0
36.1641 125.0
36.1739 120.0
36.1838 118.0
36.1936 109.0
36.2035 106.0
36.2133 108.0
36.2232 114.0
36.233 108.0
36.2429 103.0
36.2527 107.0
36.2626 105.0
36.2724 93.0
36.2823 114.0
36.2921 126.0
36.302 103.0
36.3118 108.0
36.3217 107.0
36.3315 115.0
36.3414 120.0
36.3512 115.0
36.361 107.0
36.3709 118.0
36.3807 120.0
36.3906 123.0
36.4004 120.0
36.4103 90.0
36.4201 110.0
36.43 95.0
36.4398 109.0
36.4497 108.0
36.4595 100.0
36.4694 119.0
36.4792 108.0
36.4891 112.0
36.4989 112.0
36.5088 97.0
36.5186 100.0
36.5285 101.0
36.5383 107.0
36.5482 115.0
36.558 131.0
36.5678 126.0
36.5777 99.0
36.5875 96.0
36.5974 130.0
36.6072 149.0
36.6171 126.0
36.6269 113.0
36.6368 122.0
36.6466 125.0
36.6565 103.0
36.6663 122.0
36.6762 116.0
36.686 118.0
36.6959 115.0
36.7057 111.0
36.7156 100.0
36.7254 111.0
36.7353 113.0
36.7451 107.0
36.755 105.0
36.7648 123.0
36.7747 122.0
36.7845 121.0
36.7943 83.0
36.8042 125.0
36.814 101.0
36.8239 107.0
36.8337 107.0
36.8436 111.0
36.8534 116.0
36.8633 114.0
36.8731 102.0
36.883 107.0
36.8928 117.0
36.9027 132.0
36.9125 113.0
36.9224 106.0
36.9322 116.0
36.9421 108.0
36.9519 99.0
36.9618 129.0
36.9716 110.0
36.9815 105.0
36.9913 121.0
37.0011 119.0
37.011 105.0
37.0208 135.0
37.0307 85.0
37.0405 133.0
37.0504 101.0
37.0602 103.0
37.0701 127.0
37.0799 102.0
37.0898 106.0
37.0996 111.0
37.1095 121.0
37.1193 105.0
37.1292 110.0
37.139 133.0
37.1489 125.0
37.1587 139.0
37.1686 114.0
37.1784 125.0
37.1883 136.0
37.1981 106.0
37.2079 115.0
37.2178 115.0
37.2276 128.0
37.2375 98.0
37.2473 113.0
37.2572 108.0
37.267 107.0
37.2769 130.0
37.2867 115.0
37.2966 112.0
37.3064 128.0
37.3163 123.0
37.3261 109.0
37.336 122.0
37.3458 130.0
37.3557 127.0
37.3655 119.0
37.3754 123.0
37.3852 152.0
37.3951 157.0
37.4049 145.0
37.4148 186.0
37.4246 275.0
37.4344 308.0
37.4443 315.0
37.4541 329.0
37.464 344.0
37.4738 303.0
37.4837 209.0
37.4935 198.0
37.5034 173.0
37.5132 154.0
37.5231 127.0
37.5329 140.0
37.5428 121.0
37.5526 120.0
37.5625 118.0
37.5723 124.0
37.5822 135.0
37.592 144.0
37.6019 130.0
37.6117 142.0
37.6216 129.0
37.6314 121.0
37.6412 130.0
37.6511 115.0
37.6609 109.0
37.6708 117.0
37.6806 128.0
37.6905 138.0
37.7003 134.0
37.7102 153.0
37.72 146.0
37.7299 132.0
37.7397 138.0
37.7496 122.0
37.7594 137.0
37.7693 138.0
37.7791 140.0
37.789 129.0
37.7988 113.0
37.8087 134.0
37.8185 112.0
37.8284 142.0
37.8382 122.0
37.8481 111.0
37.8579 167.0
37.8677 148.0
37.8776 152.0
37.8874 123.0
37.8973 132.0
37.9071 137.0
37.917 128.0
37.9268 154.0
37.9367 130.0
37.9465 148.0
37.9564 128.0
37.9662 146.0
37.9761 140.0
37.9859 128.0
37.9958 124.0
38.0056 159.0
38.0155 127.0
38.0253 136.0
38.0352 153.0
38.045 138.0
38.0549 138.0
38.0647 167.0
38.0745 175.0
38.0844 156.0
38.0942 158.0
38.1041 158.0
38.1139 144.0
38.1238 153.0
38.1336 163.0
38.1435 152.0
38.1533 172.0
38.1632 145.0
38.173 166.0
38.1829 145.0
38.1927 149.0
38.2026 139.0
38.2124 166.0
38.2223 152.0
38.2321 178.0
38.242 182.0
38.2518 178.0
38.2617 171.0
38.2715 168.0
38.2814 173.0
38.2912 148.0
38.301 167.0
38.3109 185.0
38.3207 178.0
38.3306 154.0
38.3404 161.0
38.3503 190.0
38.3601 182.0
38.37 185.0
38.3798 198.0
38.3897 188.0
38.3995 202.0
38.4094 186.0
38.4192 189.0
38.4291 211.0
38.4389 173.0
38.4488 196.0
38.4586 187.0
38.4685 193.0
38.4783 206.0
38.4882 205.0
38.498 236.0
38.5078 224.0
38.5177 216.0
38.5275 260.0
38.5374 221.0
38.5472 208.0
38.5571 218.0
38.5669 231.0
38.5768 216.0
38.5866 269.0
38.5965 265.0
38.6063 257.0
38.6162 269.0
38.626 263.0
38.6359 261.0
38.6457 228.0
38.6556 223.0
38.6654 285.0
38.6753 300.0
38.6851 313.0
38.695 304.0
38.7048 310.0
38.7146 342.0
38.7245 323.0
38.7343 352.0
38.7442 374.0
38.754 352.0
38.7639 365.0
38.7737 354.0
38.7836 356.0
38.7934 363.0
38.8033 405.0
38.8131 389.0
38.823 429.0
38.8328 502.0
38.8427 503.0
38.8525 501.0
38.8624 525.0
38.8722 511.0
38.8821 528.0
38.8919 582.0
38.9018 562.0
38.9116 611.0
38.9215 682.0
38.9313 692.0
38.9411 791.0
38.951 854.0
38.9608 893.0
38.9707 1011.0
38.9805 1066.0
38.9904 1059.0
39.0002 1083.0
39.0101 1242.0
39.0199 1282.0
39.0298 1544.0
39.0396 1608.0
39.0495 1805.0
39.0593 2141.0
39.0692 2292.0
39.079 2746.0
39.0889 3130.0
39.0987 3571.0
39.1086 3824.0
39.1184 4027.0
39.1283 4242.0
39.1381 4448.0
39.1479 4636.0
39.1578 4669.0
39.1676 4674.0
39.1775 4534.0
39.1873 4523.0
39.1972 4214.0
39.207 4116.0
39.2169 4129.0
39.2267 3914.0
39.2366 3761.0
39.2464 3509.0
39.2563 3316.0
39.2661 3026.0
39.276 2942.0
39.2858 2724.0
39.2957 2500.0
39.3055 2231.0
39.3154 2053.0
39.3252 1802.0
39.3351 1635.0
39.3449 1538.0
39.3548 1288.0
39.3646 1246.0
39.3744 1044.0
39.3843 1023.0
39.3941 884.0
39.404 875.0
39.4138 782.0
39.4237 778.0
39.4335 679.0
39.4434 648.0
39.4532 573.0
39.4631 609.0
39.4729 500.0
39.4828 477.0
39.4926 462.0
39.5025 436.0
39.5123 441.0
39.5222 378.0
39.532 352.0
39.5419 318.0
39.5517 347.0
39.5616 361.0
39.5714 303.0
39.5812 311.0
39.5911 288.0
39.6009 258.0
39.6108 287.0
39.6206 297.0
39.6305 200.0
39.6403 219.0
39.6502 236.0
39.66 206.0
39.6699 227.0
39.6797 191.0
39.6896 210.0
39.6994 204.0
39.7093 185.0
39.7191 234.0
39.729 196.0
39.7388 188.0
39.7487 193.0
39.7585 163.0
39.7684 180.0
39.7782 176.0
39.788 164.0
39.7979 171.0
39.8077 186.0
39.8176 156.0
39.8274 156.0
39.8373 173.0
39.8471 168.0
39.857 148.0
39.8668 144.0
39.8767 151.0
39.8865 174.0
39.8964 167.0
39.9062 171.0
39.9161 125.0
39.9259 128.0
39.9358 149.0
39.9456 126.0
39.9555 163.0
39.9653 152.0
39.9752 143.0
39.985 136.0
39.9949 133.0
40.0047 134.0
40.0145 121.0
40.0244 151.0
40.0342 128.0
40.0441 138.0
40.0539 142.0
40.0638 134.0
40.0736 125.0
40.0835 147.0
40.0933 122.0
40.1032 149.0
40.113 147.0
40.1229 123.0
40.1327 122.0
40.1426 139.0
40.1524 137.0
40.1623 132.0
40.1721 168.0
40.182 117.0
40.1918 122.0
40.2017 125.0
40.2115 127.0
40.2213 127.0
40.2312 145.0
40.241 141.0
40.2509 129.0
40.2607 132.0
40.2706 143.0
40.2804 149.0
40.2903 112.0
40.3001 132.0
40.31 127.0
40.3198 132.0
40.3297 107.0
40.3395 146.0
40.3494 134.0
40.3592 149.0
40.3691 144.0
40.3789 132.0
40.3888 124.0
40.3986 140.0
40.4085 141.0
40.4183 140.0
40.4282 145.0
40.438 136.0
40.4478 130.0
40.4577 106.0
40.4675 160.0
40.4774 128.0
40.4872 151.0
40.4971 154.0
40.5069 147.0
40.5168 148.0
40.5266 153.0
40.5365 132.0
40.5463 175.0
40.5562 142.0
40.566 145.0
40.5759 148.0
40.5857 134.0
40.5956 153.0
40.6054 110.0
40.6153 162.0
40.6251 153.0
40.635 164.0
40.6448 145.0
40.6546 142.0
40.6645 168.0
40.6743 158.0
40.6842 143.0
40.694 137.0
40.7039 154.0
40.7137 180.0
40.7236 162.0
40.7334 177.0
40.7433 171.0
40.7531 150.0
40.763 178.0
40.7728 150.0
40.7827 166.0
40.7925 166.0
40.8024 166.0
40.8122 183.0
40.8221 175.0
40.8319 172.0
40.8418 170.0
40.8516 177.0
40.8615 160.0
40.8713 187.0
40.8811 153.0
40.891 181.0
40.9008 173.0
40.9107 173.0
40.9205 152.0
40.9304 197.0
40.9402 178.0
40.9501 175.0
40.9599 166.0
40.9698 191.0
40.9796 173.0
40.9895 173.0
40.9993 194.0
41.0092 158.0
41.019 169.0
41.0289 158.0
41.0387 196.0
41.0486 180.0
41.0584 179.0
41.0683 181.0
41.0781 206.0
41.0879 190.0
41.0978 221.0
41.1076 184.0
41.1175 208.0
41.1273 236.0
41.1372 200.0
41.147 217.0
41.1569 270.0
41.1667 214.0
41.1766 234.0
41.1864 232.0
41.1963 283.0
41.2061 283.0
41.216 223.0
41.2258 263.0
41.2357 305.0
41.2455 288.0
41.2554 291.0
41.2652 306.0
41.2751 305.0
41.2849 321.0
41.2947 297.0
41.3046 336.0
41.3144 349.0
41.3243 343.0
41.3341 369.0
41.344 341.0
41.3538 383.0
41.3637 382.0
41.3735 419.0
41.3834 490.0
41.3932 575.0
41.4031 666.0
41.4129 763.0
41.4228 901.0
41.4326 952.0
41.4425 1050.0
41.4523 1014.0
41.4622 996.0
41.472 1019.0
41.4819 1032.0
41.4917 1022.0
41.5016 1069.0
41.5114 1084.0
41.5212 1308.0
41.5311 1574.0
41.5409 1998.0
41.5508 2554.0
41.5606 3497.0
41.5705 5489.0
41.5803 10362.0
41.5902 24765.0
41.6 47656.0
41.6099 60422.0
41.6197 65479.0
41.6296 66440.0
41.6394 63093.0
41.6493 45824.0
41.6591 22872.0
41.669 11259.0
41.6788 7718.0
41.6887 8556.0
41.6985 14640.0
41.7084 24648.0
41.7182 30882.0
41.728 33145.0
41.7379 33262.0
41.7477 30193.0
41.7576 22585.0
41.7674 12153.0
41.7773 5711.0
41.7871 3213.0
41.797 2150.0
41.8068 1710.0
41.8167 1304.0
41.8265 1179.0
41.8364 1035.0
41.8462 885.0
41.8561 784.0
41.8659 739.0
41.8758 682.0
41.8856 619.0
41.8955 582.0
41.9053 523.0
41.9152 506.0
41.925 486.0
41.9349 492.0
41.9447 411.0
41.9545 400.0
41.9644 393.0
41.9742 368.0
41.9841 384.0
41.9939 346.0
42.0038 370.0
42.0136 340.0
42.0235 329.0
42.0333 315.0
42.0432 311.0
42.053 305.0
42.0629 289.0
42.0727 294.0
42.0826 317.0
42.0924 283.0
42.1023 222.0
42.1121 219.0
42.122 276.0
42.1318 198.0
42.1417 223.0
42.1515 219.0
42.1613 200.0
42.1712 227.0
42.181 203.0
42.1909 221.0
42.2007 186.0
42.2106 199.0
42.2204 192.0
42.2303 175.0
42.2401 203.0
42.25 194.0
42.2598 160.0
42.2697 186.0
42.2795 189.0
42.2894 173.0
42.2992 152.0
42.3091 153.0
42.3189 166.0
42.3288 197.0
42.3386 188.0
42.3485 158.0
42.3583 193.0
42.3682 144.0
42.378 174.0
42.3878 152.0
42.3977 161.0
42.4075 122.0
42.4174 153.0
42.4272 165.0
42.4371 176.0
42.4469 142.0
42.4568 149.0
42.4666 171.0
42.4765 150.0
42.4863 158.0
42.4962 157.0
42.506 125.0
42.5159 151.0
42.5257 148.0
42.5356 158.0
42.5454 142.0
42.5553 132.0
42.5651 121.0
42.575 140.0
42.5848 142.0
42.5946 148.0
42.6045 140.0
42.6143 115.0
42.6242 132.0
42.634 143.0
42.6439 130.0
42.6537 152.0
42.6636 131.0
42.6734 145.0
42.6833 141.0
42.6931 140.0
42.703 111.0
42.7128 110.0
42.7227 136.0
42.7325 120.0
42.7424 145.0
42.7522 126.0
42.7621 136.0
42.7719 141.0
42.7818 127.0
42.7916 136.0
42.8014 146.0
42.8113 138.0
42.8211 120.0
42.831 129.0
42.8408 131.0
42.8507 140.0
42.8605 134.0
42.8704 113.0
42.8802 129.0
42.8901 130.0
42.8999 110.0
42.9098 128.0
42.9196 129.0
42.9295 134.0
42.9393 118.0
42.9492 118.0
42.959 114.0
42.9689 117.0
42.9787 132.0
42.9886 116.0
42.9984 133.0
43.0083 122.0
43.0181 133.0
43.0279 138.0
43.0378 124.0
43.0476 129.0
43.0575 139.0
43.0673 138.0
43.0772 135.0
43.087 138.0
43.0969 125.0
43.1067 129.0
43.1166 148.0
43.1264 119.0
43.1363 97.0
43.1461 130.0
43.156 121.0
43.1658 126.0
43.1757 119.0
43.1855 135.0
43.1954 140.0
43.2052 147.0
43.2151 122.0
43.2249 117.0
43.2347 130.0
43.2446 139.0
43.2544 111.0
43.2643 125.0
43.2741 124.0
43.284 120.0
43.2938 121.0
43.3037 124.0
43.3135 134.0
43.3234 113.0
43.3332 140.0
43.3431 114.0
43.3529 118.0
43.3628 136.0
43.3726 127.0
43.3825 145.0
43.3923 136.0
43.4022 117.0
43.412 135.0
43.4219 145.0
43.4317 116.0
43.4416 124.0
43.4514 123.0
43.4612 127.0
43.4711 132.0
43.4809 114.0
43.4908 135.0
43.5006 118.0
43.5105 109.0
43.5203 124.0
43.5302 116.0
43.54 144.0
43.5499 138.0
43.5597 130.0
43.5696 123.0
43.5794 106.0
43.5893 117.0
43.5991 112.0
43.609 136.0
43.6188 118.0
43.6287 122.0
43.6385 149.0
43.6484 134.0
43.6582 141.0
43.668 144.0
43.6779 121.0
43.6877 124.0
43.6976 111.0
43.7074 150.0
43.7173 124.0
43.7271 133.0
43.737 121.0
43.7468 141.0
43.7567 113.0
43.7665 143.0
43.7764 127.0
43.7862 127.0
43.7961 106.0
43.8059 117.0
43.8158 148.0
43.8256 123.0
43.8355 135.0
43.8453 124.0
43.8552 138.0
43.865 122.0
43.8749 158.0
43.8847 145.0
43.8945 142.0
43.9044 145.0
43.9142 155.0
43.9241 153.0
43.9339 126.0
43.9438 123.0
43.9536 140.0
43.9635 132.0
43.9733 125.0
43.9832 127.0
43.993 130.0
44.0029 150.0
44.0127 146.0
44.0226 129.0
44.0324 142.0
44.0423 125.0
44.0521 134.0
44.062 116.0
44.0718 156.0
44.0817 122.0
44.0915 120.0
44.1013 155.0
44.1112 145.0
44.121 162.0
44.1309 158.0
44.1407 139.0
44.1506 163.0
44.1604 160.0
44.1703 153.0
44.1801 151.0
44.19 169.0
44.1998 182.0
44.2097 161.0
44.2195 184.0
44.2294 192.0
44.2392 199.0
44.2491 189.0
44.2589 182.0
44.2688 188.0
44.2786 208.0
44.2885 222.0
44.2983 198.0
44.3081 234.0
44.318 221.0
44.3278 218.0
44.3377 242.0
44.3475 234.0
44.3574 274.0
44.3672 256.0
44.3771 272.0
44.3869 268.0
44.3968 243.0
44.4066 281.0
44.4165 261.0
44.4263 257.0
44.4362 238.0
44.446 281.0
44.4559 245.0
44.4657 264.0
44.4756 244.0
44.4854 223.0
44.4953 236.0
44.5051 227.0
44.515 227.0
44.5248 248.0
44.5346 223.0
44.5445 208.0
44.5543 206.0
44.5642 188.0
44.574 170.0
44.5839 192.0
44.5937 197.0
44.6036 196.0
44.6134 184.0
44.6233 183.0
44.6331 155.0
44.643 164.0
44.6528 164.0
44.6627 165.0
44.6725 162.0
44.6824 160.0
44.6922 166.0
44.7021 148.0
44.7119 172.0
44.7218 142.0
44.7316 134.0
44.7414 131.0
44.7513 139.0
44.7611 167.0
44.771 120.0
44.7808 134.0
44.7907 144.0
44.8005 140.0
44.8104 153.0
44.8202 116.0
44.8301 124.0
44.8399 133.0
44.8498 135.0
44.8596 136.0
44.8695 123.0
44.8793 122.0
44.8892 123.0
44.899 128.0
44.9089 124.0
44.9187 133.0
44.9286 126.0
44.9384 126.0
44.9483 116.0
44.9581 123.0
44.9679 143.0
44.9778 116.0
44.9876 114.0
44.9975 141.0