File: data/W6903a/XRD_Omega/scan_omega_4deg_step_0.005deg0_C4_1.xy
15.57650 340.0
15.58150 329.0
15.58650 330.0
15.59150 363.0
15.59650 332.0
15.60150 352.0
15.60650 353.0
15.61150 340.0
15.61650 344.0
15.62150 382.0
15.62650 363.0
15.63150 372.0
15.63650 329.0
15.64150 342.0
15.64650 361.0
15.65150 363.0
15.65650 358.0
15.66150 360.0
15.66650 389.0
15.67150 376.0
15.67650 376.0
15.68150 390.0
15.68650 383.0
15.69150 360.0
15.69650 422.0
15.70150 389.0
15.70650 368.0
15.71150 378.0
15.71650 402.0
15.72150 411.0
15.72650 420.0
15.73150 402.0
15.73650 420.0
15.74150 404.0
15.74650 431.0
15.75150 411.0
15.75650 442.0
15.76150 376.0
15.76650 438.0
15.77150 407.0
15.77650 420.0
15.78150 435.0
15.78650 428.0
15.79150 438.0
15.79650 432.0
15.80150 442.0
15.80650 401.0
15.81150 424.0
15.81650 460.0
15.82150 472.0
15.82650 475.0
15.83150 436.0
15.83650 494.0
15.84150 440.0
15.84650 488.0
15.85150 447.0
15.85650 450.0
15.86150 448.0
15.86650 478.0
15.87150 537.0
15.87650 494.0
15.88150 533.0
15.88650 515.0
15.89150 516.0
15.89650 517.0
15.90150 526.0
15.90650 511.0
15.91150 512.0
15.91650 536.0
15.92150 475.0
15.92650 563.0
15.93150 510.0
15.93650 559.0
15.94150 532.0
15.94650 526.0
15.95150 510.0
15.95650 514.0
15.96150 518.0
15.96650 582.0
15.97150 546.0
15.97650 583.0
15.98150 593.0
15.98650 616.0
15.99150 576.0
15.99650 548.0
16.00150 586.0
16.00650 553.0
16.01150 610.0
16.01650 633.0
16.02150 622.0
16.02650 591.0
16.03150 615.0
16.03650 575.0
16.04150 655.0
16.04650 622.0
16.05150 631.0
16.05650 675.0
16.06150 627.0
16.06650 688.0
16.07150 629.0
16.07650 633.0
16.08150 680.0
16.08650 696.0
16.09150 667.0
16.09650 688.0
16.10150 687.0
16.10650 654.0
16.11150 719.0
16.11650 646.0
16.12150 710.0
16.12650 688.0
16.13150 725.0
16.13650 721.0
16.14150 733.0
16.14650 669.0
16.15150 769.0
16.15650 734.0
16.16150 774.0
16.16650 764.0
16.17150 774.0
16.17650 819.0
16.18150 764.0
16.18650 784.0
16.19150 837.0
16.19650 828.0
16.20150 801.0
16.20650 833.0
16.21150 859.0
16.21650 888.0
16.22150 787.0
16.22650 868.0
16.23150 824.0
16.23650 886.0
16.24150 880.0
16.24650 861.0
16.25150 840.0
16.25650 860.0
16.26150 868.0
16.26650 880.0
16.27150 933.0
16.27650 960.0
16.28150 938.0
16.28650 946.0
16.29150 940.0
16.29650 960.0
16.30150 879.0
16.30650 989.0
16.31150 1046.0
16.31650 992.0
16.32150 1031.0
16.32650 1004.0
16.33150 1011.0
16.33650 1067.0
16.34150 1017.0
16.34650 1046.0
16.35150 1076.0
16.35650 1033.0
16.36150 1111.0
16.36650 1087.0
16.37150 1154.0
16.37650 1206.0
16.38150 1161.0
16.38650 1133.0
16.39150 1097.0
16.39650 1195.0
16.40150 1168.0
16.40650 1229.0
16.41150 1219.0
16.41650 1163.0
16.42150 1234.0
16.42650 1171.0
16.43150 1262.0
16.43650 1254.0
16.44150 1254.0
16.44650 1288.0
16.45150 1319.0
16.45650 1307.0
16.46150 1380.0
16.46650 1367.0
16.47150 1364.0
16.47650 1361.0
16.48150 1399.0
16.48650 1419.0
16.49150 1453.0
16.49650 1428.0
16.50150 1426.0
16.50650 1400.0
16.51150 1414.0
16.51650 1483.0
16.52150 1533.0
16.52650 1527.0
16.53150 1576.0
16.53650 1543.0
16.54150 1591.0
16.54650 1555.0
16.55150 1619.0
16.55650 1648.0
16.56150 1648.0
16.56650 1555.0
16.57150 1708.0
16.57650 1632.0
16.58150 1690.0
16.58650 1689.0
16.59150 1806.0
16.59650 1717.0
16.60150 1704.0
16.60650 1662.0
16.61150 1769.0
16.61650 1840.0
16.62150 1871.0
16.62650 1860.0
16.63150 1858.0
16.63650 1846.0
16.64150 1817.0
16.64650 1858.0
16.65150 1946.0
16.65650 1896.0
16.66150 1964.0
16.66650 1913.0
16.67150 2026.0
16.67650 2057.0
16.68150 2031.0
16.68650 2056.0
16.69150 2078.0
16.69650 2110.0
16.70150 2211.0
16.70650 2213.0
16.71150 2212.0
16.71650 2272.0
16.72150 2287.0
16.72650 2257.0
16.73150 2296.0
16.73650 2346.0
16.74150 2306.0
16.74650 2285.0
16.75150 2373.0
16.75650 2363.0
16.76150 2450.0
16.76650 2390.0
16.77150 2465.0
16.77650 2374.0
16.78150 2517.0
16.78650 2593.0
16.79150 2528.0
16.79650 2674.0
16.80150 2626.0
16.80650 2621.0
16.81150 2764.0
16.81650 2681.0
16.82150 2817.0
16.82650 2791.0
16.83150 2773.0
16.83650 2760.0
16.84150 2853.0
16.84650 2822.0
16.85150 2850.0
16.85650 2846.0
16.86150 2975.0
16.86650 2846.0
16.87150 3026.0
16.87650 3007.0
16.88150 3070.0
16.88650 3163.0
16.89150 3181.0
16.89650 3152.0
16.90150 3215.0
16.90650 3294.0
16.91150 3335.0
16.91650 3264.0
16.92150 3293.0
16.92650 3403.0
16.93150 3349.0
16.93650 3399.0
16.94150 3397.0
16.94650 3405.0
16.95150 3576.0
16.95650 3580.0
16.96150 3724.0
16.96650 3656.0
16.97150 3654.0
16.97650 3622.0
16.98150 3701.0
16.98650 3776.0
16.99150 3843.0
16.99650 3727.0
17.00150 3838.0
17.00650 3941.0
17.01150 3924.0
17.01650 3850.0
17.02150 4039.0
17.02650 3957.0
17.03150 4013.0
17.03650 4138.0
17.04150 4211.0
17.04650 4149.0
17.05150 4218.0
17.05650 4222.0
17.06150 4187.0
17.06650 4480.0
17.07150 4441.0
17.07650 4257.0
17.08150 4383.0
17.08650 4544.0
17.09150 4492.0
17.09650 4621.0
17.10150 4588.0
17.10650 4658.0
17.11150 4722.0
17.11650 4559.0
17.12150 4694.0
17.12650 4781.0
17.13150 4836.0
17.13650 4925.0
17.14150 4881.0
17.14650 4996.0
17.15150 4964.0
17.15650 4935.0
17.16150 5134.0
17.16650 5115.0
17.17150 5120.0
17.17650 5073.0
17.18150 5258.0
17.18650 5108.0
17.19150 5256.0
17.19650 5377.0
17.20150 5423.0
17.20650 5381.0
17.21150 5488.0
17.21650 5366.0
17.22150 5385.0
17.22650 5579.0
17.23150 5587.0
17.23650 5684.0
17.24150 5692.0
17.24650 5752.0
17.25150 5758.0
17.25650 5772.0
17.26150 5831.0
17.26650 5872.0
17.27150 5865.0
17.27650 5941.0
17.28150 5956.0
17.28650 5955.0
17.29150 6062.0
17.29650 6005.0
17.30150 6096.0
17.30650 6135.0
17.31150 6203.0
17.31650 6008.0
17.32150 6199.0
17.32650 6218.0
17.33150 6259.0
17.33650 6252.0
17.34150 6309.0
17.34650 6346.0
17.35150 6498.0
17.35650 6348.0
17.36150 6491.0
17.36650 6531.0
17.37150 6478.0
17.37650 6597.0
17.38150 6549.0
17.38650 6554.0
17.39150 6549.0
17.39650 6684.0
17.40150 6779.0
17.40650 6746.0
17.41150 6788.0
17.41650 7038.0
17.42150 7003.0
17.42650 6964.0
17.43150 7109.0
17.43650 7107.0
17.44150 7262.0
17.44650 7165.0
17.45150 7294.0
17.45650 7531.0
17.46150 7360.0
17.46650 7429.0
17.47150 7407.0
17.47650 7500.0
17.48150 7615.0
17.48650 7707.0
17.49150 7644.0
17.49650 7602.0
17.50150 7748.0
17.50650 7762.0
17.51150 8015.0
17.51650 8096.0
17.52150 7925.0
17.52650 7992.0
17.53150 8009.0
17.53650 8116.0
17.54150 7871.0
17.54650 8024.0
17.55150 7836.0
17.55650 7935.0
17.56150 7924.0
17.56650 7634.0
17.57150 7869.0
17.57650 7789.0
17.58150 7701.0
17.58650 7576.0
17.59150 7601.0
17.59650 7576.0
17.60150 7452.0
17.60650 7392.0
17.61150 7367.0
17.61650 7454.0
17.62150 7555.0
17.62650 7446.0
17.63150 7179.0
17.63650 7237.0
17.64150 7188.0
17.64650 7145.0
17.65150 7207.0
17.65650 7158.0
17.66150 7181.0
17.66650 7189.0
17.67150 7134.0
17.67650 7170.0
17.68150 6925.0
17.68650 6976.0
17.69150 6849.0
17.69650 6833.0
17.70150 6929.0
17.70650 6808.0
17.71150 6691.0
17.71650 6650.0
17.72150 6664.0
17.72650 6620.0
17.73150 6652.0
17.73650 6607.0
17.74150 6669.0
17.74650 6732.0
17.75150 6589.0
17.75650 6621.0
17.76150 6642.0
17.76650 6529.0
17.77150 6570.0
17.77650 6385.0
17.78150 6370.0
17.78650 6442.0
17.79150 6263.0
17.79650 6308.0
17.80150 6169.0
17.80650 6207.0
17.81150 6262.0
17.81650 6213.0
17.82150 6150.0
17.82650 6011.0
17.83150 5881.0
17.83650 6039.0
17.84150 5940.0
17.84650 6033.0
17.85150 5913.0
17.85650 5977.0
17.86150 5776.0
17.86650 5848.0
17.87150 5723.0
17.87650 5696.0
17.88150 5626.0
17.88650 5830.0
17.89150 5761.0
17.89650 5716.0
17.90150 5580.0
17.90650 5527.0
17.91150 5351.0
17.91650 5381.0
17.92150 5484.0
17.92650 5419.0
17.93150 5447.0
17.93650 5295.0
17.94150 5421.0
17.94650 5132.0
17.95150 5182.0
17.95650 5112.0
17.96150 5115.0
17.96650 5061.0
17.97150 4963.0
17.97650 5077.0
17.98150 4894.0
17.98650 4977.0
17.99150 4888.0
17.99650 4867.0
18.00150 4836.0
18.00650 4813.0
18.01150 4932.0
18.01650 4826.0
18.02150 4642.0
18.02650 4718.0
18.03150 4716.0
18.03650 4646.0
18.04150 4577.0
18.04650 4578.0
18.05150 4396.0
18.05650 4360.0
18.06150 4417.0
18.06650 4316.0
18.07150 4283.0
18.07650 4224.0
18.08150 4323.0
18.08650 4118.0
18.09150 4214.0
18.09650 4234.0
18.10150 4116.0
18.10650 4170.0
18.11150 4155.0
18.11650 4066.0
18.12150 3967.0
18.12650 3914.0
18.13150 3978.0
18.13650 3926.0
18.14150 3933.0
18.14650 3969.0
18.15150 4029.0
18.15650 3727.0
18.16150 3693.0
18.16650 3754.0
18.17150 3634.0
18.17650 3652.0
18.18150 3719.0
18.18650 3591.0
18.19150 3591.0
18.19650 3445.0
18.20150 3525.0
18.20650 3383.0
18.21150 3275.0
18.21650 3380.0
18.22150 3334.0
18.22650 3307.0
18.23150 3287.0
18.23650 3156.0
18.24150 3214.0
18.24650 3164.0
18.25150 3096.0
18.25650 3139.0
18.26150 3079.0
18.26650 3059.0
18.27150 3128.0
18.27650 2973.0
18.28150 3011.0
18.28650 2906.0
18.29150 3019.0
18.29650 2853.0
18.30150 2964.0
18.30650 2823.0
18.31150 2744.0
18.31650 2772.0
18.32150 2726.0
18.32650 2693.0
18.33150 2707.0
18.33650 2721.0
18.34150 2687.0
18.34650 2647.0
18.35150 2622.0
18.35650 2652.0
18.36150 2597.0
18.36650 2528.0
18.37150 2483.0
18.37650 2524.0
18.38150 2404.0
18.38650 2422.0
18.39150 2343.0
18.39650 2393.0
18.40150 2392.0
18.40650 2303.0
18.41150 2310.0
18.41650 2181.0
18.42150 2237.0
18.42650 2242.0
18.43150 2089.0
18.43650 2072.0
18.44150 2151.0
18.44650 2129.0
18.45150 2141.0
18.45650 2156.0
18.46150 2085.0
18.46650 2080.0
18.47150 1937.0
18.47650 1969.0
18.48150 1978.0
18.48650 1960.0
18.49150 1905.0
18.49650 1916.0
18.50150 2033.0
18.50650 1892.0
18.51150 1898.0
18.51650 1927.0
18.52150 1880.0
18.52650 1856.0
18.53150 1794.0
18.53650 1765.0
18.54150 1780.0
18.54650 1786.0
18.55150 1730.0
18.55650 1726.0
18.56150 1738.0
18.56650 1704.0
18.57150 1715.0
18.57650 1648.0
18.58150 1555.0
18.58650 1570.0
18.59150 1569.0
18.59650 1595.0
18.60150 1530.0
18.60650 1522.0
18.61150 1491.0
18.61650 1550.0
18.62150 1464.0
18.62650 1475.0
18.63150 1562.0
18.63650 1489.0
18.64150 1467.0
18.64650 1348.0
18.65150 1454.0
18.65650 1405.0
18.66150 1379.0
18.66650 1337.0
18.67150 1384.0
18.67650 1339.0
18.68150 1326.0
18.68650 1283.0
18.69150 1249.0
18.69650 1286.0
18.70150 1272.0
18.70650 1281.0
18.71150 1179.0
18.71650 1245.0
18.72150 1202.0
18.72650 1226.0
18.73150 1170.0
18.73650 1171.0
18.74150 1137.0
18.74650 1139.0
18.75150 1164.0
18.75650 1123.0
18.76150 1117.0
18.76650 1066.0
18.77150 1121.0
18.77650 1082.0
18.78150 1084.0
18.78650 1012.0
18.79150 973.0
18.79650 1025.0
18.80150 1020.0
18.80650 1025.0
18.81150 1062.0
18.81650 983.0
18.82150 1026.0
18.82650 976.0
18.83150 980.0
18.83650 971.0
18.84150 993.0
18.84650 943.0
18.85150 883.0
18.85650 944.0
18.86150 903.0
18.86650 940.0
18.87150 933.0
18.87650 833.0
18.88150 910.0
18.88650 891.0
18.89150 863.0
18.89650 877.0
18.90150 912.0
18.90650 892.0
18.91150 798.0
18.91650 864.0
18.92150 795.0
18.92650 806.0
18.93150 852.0
18.93650 793.0
18.94150 770.0
18.94650 794.0
18.95150 758.0
18.95650 810.0
18.96150 796.0
18.96650 778.0
18.97150 791.0
18.97650 784.0
18.98150 767.0
18.98650 759.0
18.99150 747.0
18.99650 749.0
19.00150 689.0
19.00650 693.0
19.01150 698.0
19.01650 674.0
19.02150 644.0
19.02650 722.0
19.03150 645.0
19.03650 706.0
19.04150 724.0
19.04650 675.0
19.05150 664.0
19.05650 709.0
19.06150 611.0
19.06650 615.0
19.07150 575.0
19.07650 613.0
19.08150 613.0
19.08650 631.0
19.09150 602.0
19.09650 643.0
19.10150 587.0
19.10650 667.0
19.11150 609.0
19.11650 606.0
19.12150 579.0
19.12650 598.0
19.13150 545.0
19.13650 574.0
19.14150 527.0
19.14650 571.0
19.15150 545.0
19.15650 536.0
19.16150 526.0
19.16650 529.0
19.17150 535.0
19.17650 535.0
19.18150 537.0
19.18650 526.0
19.19150 497.0
19.19650 540.0
19.20150 481.0
19.20650 513.0
19.21150 481.0
19.21650 457.0
19.22150 497.0
19.22650 472.0
19.23150 476.0
19.23650 457.0
19.24150 471.0
19.24650 466.0
19.25150 458.0
19.25650 495.0
19.26150 482.0
19.26650 459.0
19.27150 468.0
19.27650 462.0
19.28150 476.0
19.28650 434.0
19.29150 438.0
19.29650 423.0
19.30150 430.0
19.30650 426.0
19.31150 413.0
19.31650 439.0
19.32150 448.0
19.32650 421.0
19.33150 402.0
19.33650 413.0
19.34150 407.0
19.34650 394.0
19.35150 406.0
19.35650 381.0
19.36150 379.0
19.36650 395.0
19.37150 423.0
19.37650 384.0
19.38150 376.0
19.38650 381.0
19.39150 344.0
19.39650 357.0
19.40150 384.0
19.40650 368.0
19.41150 352.0
19.41650 361.0
19.42150 370.0
19.42650 376.0
19.43150 352.0
19.43650 338.0
19.44150 367.0
19.44650 319.0
19.45150 354.0
19.45650 369.0
19.46150 355.0
19.46650 343.0
19.47150 363.0
19.47650 373.0
19.48150 297.0
19.48650 353.0
19.49150 325.0
19.49650 325.0
19.50150 351.0
19.50650 372.0
19.51150 328.0
19.51650 352.0
19.52150 339.0
19.52650 276.0
19.53150 302.0
19.53650 344.0