File: data/W6778c/XRD_2ThetaOmega/W6778c_absolute_2th-om_10-130deg_PIXscan_17min_1.xy
10.0035 41.0
10.0872 25.0
10.1709 31.0
10.2546 23.0
10.3383 18.0
10.422 29.0
10.5057 21.0
10.5894 28.0
10.6731 20.0
10.7568 26.0
10.8405 18.0
10.9242 18.0
11.0079 25.0
11.0916 23.0
11.1753 22.0
11.259 18.0
11.3428 19.0
11.4265 23.0
11.5102 23.0
11.5939 27.0
11.6776 26.0
11.7613 18.0
11.845 23.0
11.9287 29.0
12.0124 15.0
12.0961 29.0
12.1798 22.0
12.2635 17.0
12.3472 13.0
12.4309 21.0
12.5146 27.0
12.5983 19.0
12.682 21.0
12.7657 19.0
12.8495 18.0
12.9332 15.0
13.0169 26.0
13.1006 13.0
13.1843 23.0
13.268 15.0
13.3517 15.0
13.4354 14.0
13.5191 13.0
13.6028 21.0
13.6865 22.0
13.7702 18.0
13.8539 15.0
13.9376 19.0
14.0213 15.0
14.105 19.0
14.1887 20.0
14.2724 22.0
14.3562 16.0
14.4399 12.0
14.5236 24.0
14.6073 21.0
14.691 11.0
14.7747 15.0
14.8584 11.0
14.9421 20.0
15.0258 14.0
15.1095 22.0
15.1932 22.0
15.2769 13.0
15.3606 16.0
15.4443 18.0
15.528 27.0
15.6117 15.0
15.6954 16.0
15.7791 20.0
15.8629 18.0
15.9466 20.0
16.0303 20.0
16.114 18.0
16.1977 14.0
16.2814 26.0
16.3651 13.0
16.4488 12.0
16.5325 9.0
16.6162 19.0
16.6999 15.0
16.7836 16.0
16.8673 15.0
16.951 16.0
17.0347 12.0
17.1184 15.0
17.2021 11.0
17.2858 18.0
17.3696 18.0
17.4533 11.0
17.537 10.0
17.6207 13.0
17.7044 9.0
17.7881 21.0
17.8718 20.0
17.9555 15.0
18.0392 19.0
18.1229 12.0
18.2066 13.0
18.2903 13.0
18.374 28.0
18.4577 22.0
18.5414 12.0
18.6251 12.0
18.7088 11.0
18.7925 14.0
18.8763 19.0
18.96 19.0
19.0437 7.0
19.1274 17.0
19.2111 25.0
19.2948 9.0
19.3785 16.0
19.4622 18.0
19.5459 23.0
19.6296 16.0
19.7133 10.0
19.797 12.0
19.8807 14.0
19.9644 17.0
20.0481 16.0
20.1318 14.0
20.2155 12.0
20.2992 11.0
20.383 16.0
20.4667 10.0
20.5504 15.0
20.6341 12.0
20.7178 20.0
20.8015 7.0
20.8852 13.0
20.9689 15.0
21.0526 14.0
21.1363 14.0
21.22 16.0
21.3037 14.0
21.3874 20.0
21.4711 16.0
21.5548 12.0
21.6385 14.0
21.7222 13.0
21.8059 9.0
21.8897 13.0
21.9734 14.0
22.0571 14.0
22.1408 18.0
22.2245 15.0
22.3082 14.0
22.3919 17.0
22.4756 14.0
22.5593 8.0
22.643 10.0
22.7267 6.0
22.8104 15.0
22.8941 20.0
22.9778 11.0
23.0615 10.0
23.1452 9.0
23.2289 20.0
23.3126 10.0
23.3964 11.0
23.4801 14.0
23.5638 10.0
23.6475 9.0
23.7312 8.0
23.8149 19.0
23.8986 12.0
23.9823 13.0
24.066 8.0
24.1497 14.0
24.2334 5.0
24.3171 10.0
24.4008 14.0
24.4845 10.0
24.5682 8.0
24.6519 12.0
24.7356 9.0
24.8193 15.0
24.9031 8.0
24.9868 9.0
25.0705 8.0
25.1542 11.0
25.2379 9.0
25.3216 11.0
25.4053 10.0
25.489 9.0
25.5727 7.0
25.6564 12.0
25.7401 15.0
25.8238 12.0
25.9075 10.0
25.9912 16.0
26.0749 18.0
26.1586 12.0
26.2423 12.0
26.326 9.0
26.4098 13.0
26.4935 8.0
26.5772 10.0
26.6609 8.0
26.7446 17.0
26.8283 12.0
26.912 10.0
26.9957 10.0
27.0794 10.0
27.1631 11.0
27.2468 12.0
27.3305 14.0
27.4142 4.0
27.4979 8.0
27.5816 8.0
27.6653 9.0
27.749 11.0
27.8327 11.0
27.9165 13.0
28.0002 12.0
28.0839 14.0
28.1676 6.0
28.2513 8.0
28.335 5.0
28.4187 13.0
28.5024 13.0
28.5861 8.0
28.6698 13.0
28.7535 10.0
28.8372 8.0
28.9209 9.0
29.0046 9.0
29.0883 11.0
29.172 10.0
29.2557 14.0
29.3394 11.0
29.4232 17.0
29.5069 11.0
29.5906 14.0
29.6743 17.0
29.758 11.0
29.8417 7.0
29.9254 13.0
30.0091 9.0
30.0928 6.0
30.1765 16.0
30.2602 11.0
30.3439 14.0
30.4276 9.0
30.5113 11.0
30.595 5.0
30.6787 8.0
30.7624 8.0
30.8461 9.0
30.9298 7.0
31.0136 11.0
31.0973 16.0
31.181 16.0
31.2647 9.0
31.3484 4.0
31.4321 14.0
31.5158 7.0
31.5995 7.0
31.6832 14.0
31.7669 7.0
31.8506 7.0
31.9343 12.0
32.018 11.0
32.1017 11.0
32.1854 13.0
32.2691 12.0
32.3528 13.0
32.4365 13.0
32.5203 12.0
32.604 11.0
32.6877 13.0
32.7714 10.0
32.8551 10.0
32.9388 5.0
33.0225 11.0
33.1062 9.0
33.1899 13.0
33.2736 18.0
33.3573 12.0
33.441 10.0
33.5247 13.0
33.6084 10.0
33.6921 10.0
33.7758 8.0
33.8595 12.0
33.9432 3.0
34.027 10.0
34.1107 8.0
34.1944 10.0
34.2781 6.0
34.3618 16.0
34.4455 10.0
34.5292 6.0
34.6129 10.0
34.6966 12.0
34.7803 16.0
34.864 8.0
34.9477 13.0
35.0314 8.0
35.1151 13.0
35.1988 14.0
35.2825 8.0
35.3662 11.0
35.4499 4.0
35.5337 9.0
35.6174 10.0
35.7011 6.0
35.7848 6.0
35.8685 11.0
35.9522 6.0
36.0359 13.0
36.1196 10.0
36.2033 11.0
36.287 8.0
36.3707 12.0
36.4544 7.0
36.5381 8.0
36.6218 11.0
36.7055 11.0
36.7892 10.0
36.8729 16.0
36.9566 8.0
37.0404 12.0
37.1241 11.0
37.2078 11.0
37.2915 14.0
37.3752 20.0
37.4589 27.0
37.5426 12.0
37.6263 17.0
37.71 16.0
37.7937 13.0
37.8774 10.0
37.9611 14.0
38.0448 13.0
38.1285 10.0
38.2122 26.0
38.2959 20.0
38.3796 17.0
38.4633 35.0
38.5471 29.0
38.6308 40.0
38.7145 82.0
38.7982 136.0
38.8819 318.0
38.9656 535.0
39.0493 634.0
39.133 708.0
39.2167 542.0
39.3004 361.0
39.3841 223.0
39.4678 96.0
39.5515 68.0
39.6352 38.0
39.7189 32.0
39.8026 66.0
39.8863 24.0
39.97 17.0
40.0538 22.0
40.1375 26.0
40.2212 17.0
40.3049 15.0
40.3886 11.0
40.4723 19.0
40.556 12.0
40.6397 11.0
40.7234 13.0
40.8071 15.0
40.8908 12.0
40.9745 15.0
41.0582 14.0
41.1419 18.0
41.2256 33.0
41.3093 28.0
41.393 60.0
41.4767 89.0
41.5605 671.0
41.6442 2717.0
41.7279 3607.0
41.8116 120.0
41.8953 66.0
41.979 39.0
42.0627 32.0
42.1464 35.0
42.2301 21.0
42.3138 21.0
42.3975 21.0
42.4812 22.0
42.5649 12.0
42.6486 14.0
42.7323 15.0
42.816 21.0
42.8997 11.0
42.9834 6.0
43.0672 12.0
43.1509 15.0
43.2346 10.0
43.3183 9.0
43.402 11.0
43.4857 16.0
43.5694 13.0
43.6531 18.0
43.7368 11.0
43.8205 14.0
43.9042 19.0
43.9879 16.0
44.0716 7.0
44.1553 16.0
44.239 17.0
44.3227 23.0
44.4064 30.0
44.4901 15.0
44.5739 14.0
44.6576 17.0
44.7413 11.0
44.825 9.0
44.9087 15.0
44.9924 9.0
45.0761 15.0
45.1598 10.0
45.2435 6.0
45.3272 6.0
45.4109 13.0
45.4946 13.0
45.5783 18.0
45.662 13.0
45.7457 5.0
45.8294 13.0
45.9131 6.0
45.9968 11.0
46.0806 9.0
46.1643 5.0
46.248 11.0
46.3317 12.0
46.4154 11.0
46.4991 10.0
46.5828 13.0
46.6665 9.0
46.7502 11.0
46.8339 12.0
46.9176 16.0
47.0013 5.0
47.085 6.0
47.1687 10.0
47.2524 12.0
47.3361 9.0
47.4198 16.0
47.5035 9.0
47.5873 11.0
47.671 2.0
47.7547 6.0
47.8384 10.0
47.9221 14.0
48.0058 10.0
48.0895 7.0
48.1732 6.0
48.2569 9.0
48.3406 12.0
48.4243 15.0
48.508 4.0
48.5917 8.0
48.6754 10.0
48.7591 9.0
48.8428 12.0
48.9265 8.0
49.0102 11.0
49.094 18.0
49.1777 15.0
49.2614 10.0
49.3451 13.0
49.4288 7.0
49.5125 9.0
49.5962 11.0
49.6799 13.0
49.7636 16.0
49.8473 15.0
49.931 10.0
50.0147 13.0
50.0984 12.0
50.1821 14.0
50.2658 11.0
50.3495 7.0
50.4332 9.0
50.5169 14.0
50.6007 10.0
50.6844 7.0
50.7681 6.0
50.8518 11.0
50.9355 14.0
51.0192 11.0
51.1029 11.0
51.1866 9.0
51.2703 10.0
51.354 12.0
51.4377 6.0
51.5214 5.0
51.6051 13.0
51.6888 16.0
51.7725 8.0
51.8562 8.0
51.9399 13.0
52.0236 7.0
52.1074 13.0
52.1911 10.0
52.2748 7.0
52.3585 7.0
52.4422 9.0
52.5259 7.0
52.6096 4.0
52.6933 9.0
52.777 9.0
52.8607 6.0
52.9444 7.0
53.0281 10.0
53.1118 15.0
53.1955 8.0
53.2792 12.0
53.3629 11.0
53.4466 8.0
53.5303 9.0
53.6141 16.0
53.6978 6.0
53.7815 9.0
53.8652 12.0
53.9489 5.0
54.0326 4.0
54.1163 10.0
54.2 5.0
54.2837 7.0
54.3674 7.0
54.4511 16.0
54.5348 12.0
54.6185 15.0
54.7022 12.0
54.7859 12.0
54.8696 14.0
54.9533 6.0
55.037 15.0
55.1208 10.0
55.2045 13.0
55.2882 8.0
55.3719 6.0
55.4556 12.0
55.5393 13.0
55.623 13.0
55.7067 7.0
55.7904 5.0
55.8741 9.0
55.9578 15.0
56.0415 7.0
56.1252 11.0
56.2089 12.0
56.2926 8.0
56.3763 9.0
56.46 16.0
56.5437 13.0
56.6275 17.0
56.7112 9.0
56.7949 7.0
56.8786 9.0
56.9623 10.0
57.046 10.0
57.1297 7.0
57.2134 9.0
57.2971 17.0
57.3808 10.0
57.4645 18.0
57.5482 14.0
57.6319 12.0
57.7156 9.0
57.7993 10.0
57.883 6.0
57.9667 9.0
58.0504 9.0
58.1342 10.0
58.2179 10.0
58.3016 15.0
58.3853 13.0
58.469 5.0
58.5527 11.0
58.6364 12.0
58.7201 12.0
58.8038 11.0
58.8875 9.0
58.9712 12.0
59.0549 8.0
59.1386 7.0
59.2223 12.0
59.306 15.0
59.3897 8.0
59.4734 8.0
59.5571 17.0
59.6409 14.0
59.7246 15.0
59.8083 15.0
59.892 14.0
59.9757 9.0
60.0594 11.0
60.1431 19.0
60.2268 10.0
60.3105 11.0
60.3942 11.0
60.4779 14.0
60.5616 8.0
60.6453 7.0
60.729 10.0
60.8127 15.0
60.8964 14.0
60.9801 7.0
61.0638 9.0
61.1476 10.0
61.2313 10.0
61.315 13.0
61.3987 13.0
61.4824 13.0
61.5661 10.0
61.6498 11.0
61.7335 17.0
61.8172 7.0
61.9009 10.0
61.9846 8.0
62.0683 8.0
62.152 11.0
62.2357 6.0
62.3194 9.0
62.4031 13.0
62.4868 10.0
62.5705 7.0
62.6543 18.0
62.738 10.0
62.8217 15.0
62.9054 8.0
62.9891 11.0
63.0728 9.0
63.1565 15.0
63.2402 13.0
63.3239 10.0
63.4076 9.0
63.4913 14.0
63.575 13.0
63.6587 8.0
63.7424 11.0
63.8261 16.0
63.9098 17.0
63.9935 9.0
64.0772 6.0
64.161 11.0
64.2447 14.0
64.3284 10.0
64.4121 17.0
64.4958 7.0
64.5795 8.0
64.6632 10.0
64.7469 11.0
64.8306 16.0
64.9143 8.0
64.998 8.0
65.0817 5.0
65.1654 19.0
65.2491 13.0
65.3328 13.0
65.4165 17.0
65.5002 11.0
65.5839 17.0
65.6677 12.0
65.7514 19.0
65.8351 12.0
65.9188 18.0
66.0025 13.0
66.0862 8.0
66.1699 12.0
66.2536 9.0
66.3373 11.0
66.421 7.0
66.5047 8.0
66.5884 20.0
66.6721 14.0
66.7558 4.0
66.8395 16.0
66.9232 6.0
67.0069 8.0
67.0906 11.0
67.1744 13.0
67.2581 12.0
67.3418 14.0
67.4255 9.0
67.5092 15.0
67.5929 8.0
67.6766 13.0
67.7603 7.0
67.844 18.0
67.9277 10.0
68.0114 21.0
68.0951 5.0
68.1788 4.0
68.2625 11.0
68.3462 9.0
68.4299 10.0
68.5136 8.0
68.5973 14.0
68.6811 14.0
68.7648 11.0
68.8485 10.0
68.9322 12.0
69.0159 12.0
69.0996 16.0
69.1833 7.0
69.267 20.0
69.3507 14.0
69.4344 5.0
69.5181 10.0
69.6018 12.0
69.6855 9.0
69.7692 17.0
69.8529 14.0
69.9366 16.0
70.0203 10.0
70.104 9.0
70.1878 14.0
70.2715 17.0
70.3552 9.0
70.4389 16.0
70.5226 11.0
70.6063 16.0
70.69 13.0
70.7737 10.0
70.8574 10.0
70.9411 12.0
71.0248 12.0
71.1085 17.0
71.1922 12.0
71.2759 4.0
71.3596 10.0
71.4433 11.0
71.527 5.0
71.6107 17.0
71.6945 12.0
71.7782 5.0
71.8619 11.0
71.9456 14.0
72.0293 20.0
72.113 16.0
72.1967 11.0
72.2804 9.0
72.3641 14.0
72.4478 10.0
72.5315 14.0
72.6152 13.0
72.6989 13.0
72.7826 7.0
72.8663 20.0
72.95 16.0
73.0337 12.0
73.1174 11.0
73.2012 9.0
73.2849 12.0
73.3686 14.0
73.4523 9.0
73.536 7.0
73.6197 10.0
73.7034 14.0
73.7871 11.0
73.8708 6.0
73.9545 12.0
74.0382 9.0
74.1219 12.0
74.2056 16.0
74.2893 15.0
74.373 13.0
74.4567 17.0
74.5404 16.0
74.6241 14.0
74.7079 21.0
74.7916 10.0
74.8753 10.0
74.959 5.0
75.0427 15.0
75.1264 19.0
75.2101 9.0
75.2938 10.0
75.3775 10.0
75.4612 6.0
75.5449 10.0
75.6286 9.0
75.7123 14.0
75.796 12.0
75.8797 16.0
75.9634 19.0
76.0471 10.0
76.1308 14.0
76.2146 16.0
76.2983 13.0
76.382 11.0
76.4657 19.0
76.5494 7.0
76.6331 11.0
76.7168 9.0
76.8005 10.0
76.8842 10.0
76.9679 12.0
77.0516 17.0
77.1353 12.0
77.219 9.0
77.3027 14.0
77.3864 11.0
77.4701 11.0
77.5538 7.0
77.6375 11.0
77.7213 13.0
77.805 10.0
77.8887 11.0
77.9724 14.0
78.0561 13.0
78.1398 7.0
78.2235 14.0
78.3072 9.0
78.3909 16.0
78.4746 11.0
78.5583 8.0
78.642 14.0
78.7257 16.0
78.8094 15.0
78.8931 17.0
78.9768 19.0
79.0605 26.0
79.1442 16.0
79.228 14.0
79.3117 8.0
79.3954 16.0
79.4791 13.0
79.5628 12.0
79.6465 15.0
79.7302 21.0
79.8139 13.0
79.8976 22.0
79.9813 41.0
80.065 24.0
80.1487 12.0
80.2324 13.0
80.3161 11.0
80.3998 13.0
80.4835 15.0
80.5672 7.0
80.6509 15.0
80.7347 6.0
80.8184 10.0
80.9021 14.0
80.9858 15.0
81.0695 11.0
81.1532 10.0
81.2369 13.0
81.3206 11.0
81.4043 12.0
81.488 22.0
81.5717 13.0
81.6554 14.0
81.7391 20.0
81.8228 20.0
81.9065 14.0
81.9902 12.0
82.0739 13.0
82.1576 20.0
82.2414 27.0
82.3251 14.0
82.4088 11.0
82.4925 18.0
82.5762 17.0
82.6599 20.0
82.7436 14.0
82.8273 18.0
82.911 28.0
82.9947 21.0
83.0784 21.0
83.1621 17.0
83.2458 17.0
83.3295 42.0
83.4132 37.0
83.4969 44.0
83.5806 60.0
83.6643 69.0
83.7481 81.0
83.8318 84.0
83.9155 112.0
83.9992 121.0
84.0829 122.0
84.1666 126.0
84.2503 116.0
84.334 120.0
84.4177 104.0
84.5014 106.0
84.5851 76.0
84.6688 64.0
84.7525 50.0
84.8362 53.0
84.9199 39.0
85.0036 26.0
85.0873 25.0
85.171 32.0
85.2548 33.0
85.3385 18.0
85.4222 26.0
85.5059 21.0
85.5896 22.0
85.6733 16.0
85.757 21.0
85.8407 19.0
85.9244 51.0
86.0081 33.0
86.0918 19.0
86.1755 16.0
86.2592 19.0
86.3429 11.0
86.4266 9.0
86.5103 11.0
86.594 17.0
86.6777 13.0
86.7615 14.0
86.8452 12.0
86.9289 11.0
87.0126 14.0
87.0963 13.0
87.18 11.0
87.2637 11.0
87.3474 11.0
87.4311 18.0
87.5148 15.0
87.5985 11.0
87.6822 12.0
87.7659 19.0
87.8496 17.0
87.9333 16.0
88.017 16.0
88.1007 20.0
88.1844 12.0
88.2682 15.0
88.3519 14.0
88.4356 13.0
88.5193 12.0
88.603 19.0
88.6867 12.0
88.7704 13.0
88.8541 21.0
88.9378 19.0
89.0215 20.0
89.1052 17.0
89.1889 26.0
89.2726 23.0
89.3563 22.0
89.44 22.0
89.5237 18.0
89.6074 25.0
89.6911 16.0
89.7749 30.0
89.8586 26.0
89.9423 27.0
90.026 33.0
90.1097 66.0
90.1934 70.0
90.2771 77.0
90.3608 95.0
90.4445 133.0
90.5282 289.0
90.6119 1528.0
90.6956 7402.0
90.7793 641.0
90.863 444.0
90.9467 4149.0
91.0304 963.0
91.1141 160.0
91.1978 81.0
91.2816 65.0
91.3653 52.0
91.449 55.0
91.5327 44.0
91.6164 40.0
91.7001 24.0
91.7838 25.0
91.8675 23.0
91.9512 19.0
92.0349 23.0
92.1186 17.0
92.2023 30.0
92.286 21.0
92.3697 18.0
92.4534 28.0
92.5371 28.0
92.6208 26.0
92.7045 22.0
92.7883 18.0
92.872 22.0
92.9557 17.0
93.0394 28.0
93.1231 20.0
93.2068 12.0
93.2905 15.0
93.3742 15.0
93.4579 15.0
93.5416 15.0
93.6253 14.0
93.709 16.0
93.7927 10.0
93.8764 18.0
93.9601 18.0
94.0438 12.0
94.1275 18.0
94.2112 10.0
94.295 17.0
94.3787 14.0
94.4624 8.0
94.5461 19.0
94.6298 18.0
94.7135 6.0
94.7972 12.0
94.8809 15.0
94.9646 22.0
95.0483 17.0
95.132 6.0
95.2157 17.0
95.2994 13.0
95.3831 14.0
95.4668 11.0
95.5505 18.0
95.6342 17.0
95.7179 12.0
95.8017 15.0
95.8854 15.0
95.9691 14.0
96.0528 15.0
96.1365 8.0
96.2202 14.0
96.3039 10.0
96.3876 16.0
96.4713 15.0
96.555 21.0
96.6387 15.0
96.7224 16.0
96.8061 12.0
96.8898 7.0
96.9735 8.0
97.0572 27.0
97.1409 12.0
97.2246 14.0
97.3084 13.0
97.3921 13.0
97.4758 11.0
97.5595 12.0
97.6432 5.0
97.7269 14.0
97.8106 10.0
97.8943 17.0
97.978 17.0
98.0617 12.0
98.1454 14.0
98.2291 17.0
98.3128 13.0
98.3965 19.0
98.4802 11.0
98.5639 10.0
98.6476 16.0
98.7313 20.0
98.8151 19.0
98.8988 15.0
98.9825 18.0
99.0662 8.0
99.1499 12.0
99.2336 16.0
99.3173 10.0
99.401 11.0
99.4847 9.0
99.5684 11.0
99.6521 7.0
99.7358 8.0
99.8195 12.0
99.9032 15.0
99.9869 15.0
100.071 11.0
100.154 14.0
100.238 19.0
100.322 13.0
100.405 10.0
100.489 15.0
100.573 10.0
100.657 18.0
100.74 11.0
100.824 16.0
100.908 10.0
100.991 12.0
101.075 17.0
101.159 13.0
101.243 11.0
101.326 11.0
101.41 15.0
101.494 15.0
101.577 15.0
101.661 15.0
101.745 16.0
101.828 19.0
101.912 18.0
101.996 12.0
102.08 14.0
102.163 22.0
102.247 16.0
102.331 11.0
102.414 18.0
102.498 13.0
102.582 14.0
102.666 12.0
102.749 11.0
102.833 12.0
102.917 10.0
103 12.0
103.084 15.0
103.168 8.0
103.251 12.0
103.335 7.0
103.419 16.0
103.503 15.0
103.586 19.0
103.67 10.0
103.754 13.0
103.837 11.0
103.921 6.0
104.005 12.0
104.089 11.0
104.172 7.0
104.256 14.0
104.34 11.0
104.423 16.0
104.507 13.0
104.591 11.0
104.674 19.0
104.758 11.0
104.842 11.0
104.926 13.0
105.009 10.0
105.093 12.0
105.177 12.0
105.26 15.0
105.344 13.0
105.428 17.0
105.511 12.0
105.595 8.0
105.679 14.0
105.763 15.0
105.846 17.0
105.93 17.0
106.014 13.0
106.097 10.0
106.181 12.0
106.265 13.0
106.349 14.0
106.432 12.0
106.516 15.0
106.6 12.0
106.683 13.0
106.767 15.0
106.851 14.0
106.934 12.0
107.018 14.0
107.102 15.0
107.186 10.0
107.269 14.0
107.353 16.0
107.437 16.0
107.52 20.0
107.604 19.0
107.688 12.0
107.772 23.0
107.855 16.0
107.939 17.0
108.023 14.0
108.106 14.0
108.19 8.0
108.274 20.0
108.357 15.0
108.441 8.0
108.525 13.0
108.609 11.0
108.692 14.0
108.776 13.0
108.86 11.0
108.943 9.0
109.027 15.0
109.111 17.0
109.195 8.0
109.278 17.0
109.362 12.0
109.446 12.0
109.529 14.0
109.613 15.0
109.697 10.0
109.78 14.0
109.864 11.0
109.948 15.0
110.032 10.0
110.115 13.0
110.199 10.0
110.283 13.0
110.366 8.0
110.45 11.0
110.534 10.0
110.618 11.0
110.701 19.0
110.785 16.0
110.869 9.0
110.952 15.0
111.036 19.0
111.12 15.0
111.203 11.0
111.287 12.0
111.371 11.0
111.455 14.0
111.538 15.0
111.622 15.0
111.706 18.0
111.789 17.0
111.873 11.0
111.957 15.0
112.041 8.0
112.124 12.0
112.208 17.0
112.292 16.0
112.375 8.0
112.459 10.0
112.543 11.0
112.626 24.0
112.71 16.0
112.794 12.0
112.878 13.0
112.961 11.0
113.045 18.0
113.129 19.0
113.212 14.0
113.296 18.0
113.38 11.0
113.464 15.0
113.547 13.0
113.631 19.0
113.715 16.0
113.798 13.0
113.882 15.0
113.966 8.0
114.049 13.0
114.133 13.0
114.217 7.0
114.301 13.0
114.384 17.0
114.468 11.0
114.552 14.0
114.635 12.0
114.719 14.0
114.803 10.0
114.887 15.0
114.97 15.0
115.054 13.0
115.138 10.0
115.221 19.0
115.305 15.0
115.389 14.0
115.472 13.0
115.556 8.0
115.64 13.0
115.724 13.0
115.807 16.0
115.891 17.0
115.975 19.0
116.058 12.0
116.142 13.0
116.226 18.0
116.31 10.0
116.393 15.0
116.477 17.0
116.561 13.0
116.644 16.0
116.728 21.0
116.812 13.0
116.895 18.0
116.979 18.0
117.063 22.0
117.147 19.0
117.23 19.0
117.314 9.0
117.398 14.0
117.481 18.0
117.565 16.0
117.649 12.0
117.733 17.0
117.816 17.0
117.9 10.0
117.984 14.0
118.067 15.0
118.151 17.0
118.235 15.0
118.318 12.0
118.402 16.0
118.486 14.0
118.57 14.0
118.653 13.0
118.737 18.0
118.821 12.0
118.904 18.0
118.988 17.0
119.072 10.0
119.156 14.0
119.239 14.0
119.323 11.0
119.407 8.0
119.49 12.0
119.574 11.0
119.658 11.0
119.741 18.0
119.825 13.0
119.909 14.0
119.993 19.0
120.076 17.0
120.16 12.0
120.244 12.0
120.327 12.0
120.411 15.0
120.495 17.0
120.578 14.0
120.662 8.0
120.746 17.0
120.83 8.0
120.913 19.0
120.997 19.0
121.081 19.0
121.164 11.0
121.248 9.0
121.332 14.0
121.416 16.0
121.499 12.0
121.583 9.0
121.667 15.0
121.75 11.0
121.834 14.0
121.918 15.0
122.001 17.0
122.085 13.0
122.169 13.0
122.253 14.0
122.336 19.0
122.42 15.0
122.504 19.0
122.587 11.0
122.671 11.0
122.755 12.0
122.839 11.0
122.922 17.0
123.006 20.0
123.09 13.0
123.173 11.0
123.257 13.0
123.341 9.0
123.424 14.0
123.508 13.0
123.592 14.0
123.676 14.0
123.759 15.0
123.843 16.0
123.927 13.0
124.01 17.0
124.094 16.0
124.178 9.0
124.262 15.0
124.345 14.0
124.429 21.0
124.513 16.0
124.596 12.0
124.68 19.0
124.764 16.0
124.847 10.0
124.931 22.0
125.015 21.0
125.099 16.0
125.182 16.0
125.266 12.0
125.35 18.0
125.433 24.0
125.517 22.0
125.601 31.0
125.685 11.0
125.768 20.0
125.852 14.0
125.936 10.0
126.019 11.0
126.103 20.0
126.187 23.0
126.27 16.0
126.354 10.0
126.438 14.0
126.522 19.0
126.605 14.0
126.689 18.0
126.773 21.0
126.856 12.0
126.94 16.0
127.024 20.0
127.108 19.0
127.191 18.0
127.275 11.0
127.359 14.0
127.442 11.0
127.526 12.0
127.61 13.0
127.693 11.0
127.777 16.0
127.861 11.0
127.945 24.0
128.028 6.0
128.112 15.0
128.196 17.0
128.279 11.0
128.363 10.0
128.447 14.0
128.531 12.0
128.614 13.0
128.698 9.0
128.782 13.0
128.865 14.0
128.949 15.0
129.033 15.0
129.116 13.0
129.2 12.0
129.284 23.0
129.368 16.0
129.451 18.0
129.535 14.0
129.619 14.0
129.702 14.0
129.786 17.0
129.87 17.0
129.954 19.0
129.998 17.0