File: data/w6930a/XRD_2ThetaOmega/scan_2th-om_a_Cr2O3_30-40deg_PIXscan_4min_C3.xy
30.0025 61.0
30.0123 57.0
30.0222 52.0
30.032 48.0
30.0419 46.0
30.0517 62.0
30.0615 54.0
30.0714 49.0
30.0812 59.0
30.0911 60.0
30.1009 72.0
30.1108 65.0
30.1206 61.0
30.1305 61.0
30.1403 60.0
30.1502 58.0
30.16 47.0
30.1699 65.0
30.1797 41.0
30.1896 59.0
30.1994 49.0
30.2093 60.0
30.2191 60.0
30.229 52.0
30.2388 50.0
30.2487 47.0
30.2585 56.0
30.2684 67.0
30.2782 64.0
30.288 63.0
30.2979 61.0
30.3077 61.0
30.3176 59.0
30.3274 65.0
30.3373 45.0
30.3471 58.0
30.357 69.0
30.3668 57.0
30.3767 55.0
30.3865 61.0
30.3964 68.0
30.4062 54.0
30.4161 54.0
30.4259 77.0
30.4358 54.0
30.4456 52.0
30.4555 49.0
30.4653 52.0
30.4752 68.0
30.485 74.0
30.4948 55.0
30.5047 56.0
30.5145 59.0
30.5244 55.0
30.5342 52.0
30.5441 67.0
30.5539 73.0
30.5638 52.0
30.5736 60.0
30.5835 48.0
30.5933 63.0
30.6032 56.0
30.613 50.0
30.6229 46.0
30.6327 59.0
30.6426 47.0
30.6524 58.0
30.6623 55.0
30.6721 52.0
30.682 44.0
30.6918 44.0
30.7016 70.0
30.7115 51.0
30.7213 56.0
30.7312 54.0
30.741 63.0
30.7509 57.0
30.7607 50.0
30.7706 54.0
30.7804 71.0
30.7903 56.0
30.8001 78.0
30.81 43.0
30.8198 63.0
30.8297 40.0
30.8395 51.0
30.8494 60.0
30.8592 52.0
30.8691 63.0
30.8789 51.0
30.8888 50.0
30.8986 72.0
30.9085 50.0
30.9183 61.0
30.9281 68.0
30.938 64.0
30.9478 66.0
30.9577 56.0
30.9675 74.0
30.9774 44.0
30.9872 57.0
30.9971 62.0
31.0069 55.0
31.0168 53.0
31.0266 68.0
31.0365 54.0
31.0463 59.0
31.0562 51.0
31.066 63.0
31.0759 49.0
31.0857 49.0
31.0956 59.0
31.1054 67.0
31.1153 57.0
31.1251 67.0
31.1349 44.0
31.1448 42.0
31.1546 59.0
31.1645 67.0
31.1743 49.0
31.1842 68.0
31.194 62.0
31.2039 61.0
31.2137 57.0
31.2236 46.0
31.2334 55.0
31.2433 59.0
31.2531 59.0
31.263 69.0
31.2728 68.0
31.2827 53.0
31.2925 69.0
31.3024 46.0
31.3122 59.0
31.3221 66.0
31.3319 66.0
31.3418 56.0
31.3516 61.0
31.3614 57.0
31.3713 47.0
31.3811 55.0
31.391 59.0
31.4008 51.0
31.4107 84.0
31.4205 64.0
31.4304 53.0
31.4402 55.0
31.4501 69.0
31.4599 53.0
31.4698 57.0
31.4796 67.0
31.4895 52.0
31.4993 50.0
31.5092 66.0
31.519 55.0
31.5289 65.0
31.5387 65.0
31.5486 38.0
31.5584 63.0
31.5682 58.0
31.5781 71.0
31.5879 53.0
31.5978 63.0
31.6076 58.0
31.6175 56.0
31.6273 60.0
31.6372 53.0
31.647 51.0
31.6569 57.0
31.6667 47.0
31.6766 47.0
31.6864 47.0
31.6963 56.0
31.7061 57.0
31.716 53.0
31.7258 58.0
31.7357 52.0
31.7455 61.0
31.7554 58.0
31.7652 53.0
31.7751 60.0
31.7849 62.0
31.7947 67.0
31.8046 57.0
31.8144 53.0
31.8243 54.0
31.8341 60.0
31.844 51.0
31.8538 57.0
31.8637 56.0
31.8735 65.0
31.8834 51.0
31.8932 71.0
31.9031 59.0
31.9129 61.0
31.9228 48.0
31.9326 58.0
31.9425 62.0
31.9523 49.0
31.9622 58.0
31.972 56.0
31.9819 46.0
31.9917 50.0
32.0015 52.0
32.0114 47.0
32.0212 46.0
32.0311 57.0
32.0409 67.0
32.0508 56.0
32.0606 67.0
32.0705 50.0
32.0803 68.0
32.0902 52.0
32.1 41.0
32.1099 65.0
32.1197 52.0
32.1296 61.0
32.1394 60.0
32.1493 57.0
32.1591 66.0
32.169 62.0
32.1788 61.0
32.1887 48.0
32.1985 62.0
32.2083 53.0
32.2182 64.0
32.228 40.0
32.2379 62.0
32.2477 58.0
32.2576 64.0
32.2674 54.0
32.2773 51.0
32.2871 57.0
32.297 56.0
32.3068 58.0
32.3167 65.0
32.3265 54.0
32.3364 66.0
32.3462 52.0
32.3561 62.0
32.3659 47.0
32.3758 43.0
32.3856 59.0
32.3955 60.0
32.4053 65.0
32.4152 60.0
32.425 49.0
32.4348 63.0
32.4447 45.0
32.4545 54.0
32.4644 53.0
32.4742 67.0
32.4841 58.0
32.4939 57.0
32.5038 53.0
32.5136 49.0
32.5235 43.0
32.5333 48.0
32.5432 64.0
32.553 56.0
32.5629 55.0
32.5727 53.0
32.5826 60.0
32.5924 56.0
32.6023 61.0
32.6121 52.0
32.622 66.0
32.6318 51.0
32.6416 50.0
32.6515 62.0
32.6613 52.0
32.6712 58.0
32.681 78.0
32.6909 63.0
32.7007 51.0
32.7106 66.0
32.7204 58.0
32.7303 71.0
32.7401 48.0
32.75 61.0
32.7598 48.0
32.7697 56.0
32.7795 50.0
32.7894 61.0
32.7992 53.0
32.8091 54.0
32.8189 46.0
32.8288 68.0
32.8386 59.0
32.8485 47.0
32.8583 48.0
32.8681 59.0
32.878 72.0
32.8878 62.0
32.8977 59.0
32.9075 64.0
32.9174 65.0
32.9272 56.0
32.9371 67.0
32.9469 64.0
32.9568 47.0
32.9666 56.0
32.9765 50.0
32.9863 55.0
32.9962 55.0
33.006 59.0
33.0159 55.0
33.0257 53.0
33.0356 54.0
33.0454 60.0
33.0553 57.0
33.0651 66.0
33.0749 54.0
33.0848 56.0
33.0946 58.0
33.1045 43.0
33.1143 54.0
33.1242 48.0
33.134 58.0
33.1439 52.0
33.1537 47.0
33.1636 52.0
33.1734 61.0
33.1833 57.0
33.1931 51.0
33.203 56.0
33.2128 65.0
33.2227 48.0
33.2325 58.0
33.2424 55.0
33.2522 61.0
33.2621 56.0
33.2719 61.0
33.2818 52.0
33.2916 64.0
33.3014 57.0
33.3113 55.0
33.3211 43.0
33.331 64.0
33.3408 50.0
33.3507 51.0
33.3605 71.0
33.3704 74.0
33.3802 64.0
33.3901 69.0
33.3999 52.0
33.4098 90.0
33.4196 66.0
33.4295 68.0
33.4393 65.0
33.4492 61.0
33.459 86.0
33.4689 74.0
33.4787 87.0
33.4886 65.0
33.4984 78.0
33.5082 75.0
33.5181 77.0
33.5279 66.0
33.5378 67.0
33.5476 93.0
33.5575 84.0
33.5673 73.0
33.5772 64.0
33.587 68.0
33.5969 71.0
33.6067 59.0
33.6166 62.0
33.6264 63.0
33.6363 52.0
33.6461 63.0
33.656 61.0
33.6658 43.0
33.6757 82.0
33.6855 71.0
33.6954 62.0
33.7052 61.0
33.715 78.0
33.7249 53.0
33.7347 58.0
33.7446 73.0
33.7544 78.0
33.7643 73.0
33.7741 64.0
33.784 59.0
33.7938 68.0
33.8037 50.0
33.8135 70.0
33.8234 70.0
33.8332 71.0
33.8431 62.0
33.8529 53.0
33.8628 62.0
33.8726 83.0
33.8825 70.0
33.8923 68.0
33.9022 105.0
33.912 125.0
33.9219 176.0
33.9317 353.0
33.9415 616.0
33.9514 714.0
33.9612 742.0
33.9711 558.0
33.9809 335.0
33.9908 184.0
34.0006 147.0
34.0105 110.0
34.0203 86.0
34.0302 95.0
34.04 86.0
34.0499 85.0
34.0597 88.0
34.0696 90.0
34.0794 77.0
34.0893 64.0
34.0991 63.0
34.109 70.0
34.1188 60.0
34.1287 62.0
34.1385 60.0
34.1483 69.0
34.1582 74.0
34.168 74.0
34.1779 63.0
34.1877 74.0
34.1976 75.0
34.2074 66.0
34.2173 65.0
34.2271 61.0
34.237 71.0
34.2468 61.0
34.2567 52.0
34.2665 65.0
34.2764 60.0
34.2862 68.0
34.2961 67.0
34.3059 56.0
34.3158 64.0
34.3256 58.0
34.3355 51.0
34.3453 69.0
34.3552 68.0
34.365 47.0
34.3748 58.0
34.3847 83.0
34.3945 58.0
34.4044 57.0
34.4142 70.0
34.4241 69.0
34.4339 66.0
34.4438 58.0
34.4536 64.0
34.4635 68.0
34.4733 65.0
34.4832 60.0
34.493 65.0
34.5029 60.0
34.5127 57.0
34.5226 75.0
34.5324 68.0
34.5423 57.0
34.5521 60.0
34.562 63.0
34.5718 60.0
34.5816 63.0
34.5915 68.0
34.6013 49.0
34.6112 50.0
34.621 70.0
34.6309 45.0
34.6407 56.0
34.6506 71.0
34.6604 60.0
34.6703 58.0
34.6801 62.0
34.69 60.0
34.6998 65.0
34.7097 51.0
34.7195 61.0
34.7294 65.0
34.7392 72.0
34.7491 64.0
34.7589 62.0
34.7688 72.0
34.7786 58.0
34.7884 85.0
34.7983 64.0
34.8081 60.0
34.818 72.0
34.8278 73.0
34.8377 72.0
34.8475 70.0
34.8574 70.0
34.8672 54.0
34.8771 69.0
34.8869 68.0
34.8968 74.0
34.9066 52.0
34.9165 48.0
34.9263 77.0
34.9362 69.0
34.946 64.0
34.9559 64.0
34.9657 57.0
34.9756 60.0
34.9854 56.0
34.9953 62.0
35.0051 68.0
35.0149 64.0
35.0248 68.0
35.0346 67.0
35.0445 65.0
35.0543 72.0
35.0642 72.0
35.074 57.0
35.0839 55.0
35.0937 67.0
35.1036 77.0
35.1134 57.0
35.1233 61.0
35.1331 66.0
35.143 74.0
35.1528 71.0
35.1627 71.0
35.1725 61.0
35.1824 71.0
35.1922 64.0
35.2021 49.0
35.2119 55.0
35.2217 76.0
35.2316 63.0
35.2414 66.0
35.2513 83.0
35.2611 56.0
35.271 64.0
35.2808 76.0
35.2907 64.0
35.3005 58.0
35.3104 64.0
35.3202 67.0
35.3301 67.0
35.3399 52.0
35.3498 61.0
35.3596 53.0
35.3695 71.0
35.3793 50.0
35.3892 67.0
35.399 62.0
35.4089 83.0
35.4187 68.0
35.4286 70.0
35.4384 73.0
35.4482 63.0
35.4581 61.0
35.4679 68.0
35.4778 68.0
35.4876 70.0
35.4975 66.0
35.5073 67.0
35.5172 71.0
35.527 68.0
35.5369 67.0
35.5467 57.0
35.5566 70.0
35.5664 58.0
35.5763 68.0
35.5861 62.0
35.596 72.0
35.6058 69.0
35.6157 70.0
35.6255 71.0
35.6354 62.0
35.6452 64.0
35.655 61.0
35.6649 53.0
35.6747 66.0
35.6846 72.0
35.6944 64.0
35.7043 62.0
35.7141 64.0
35.724 57.0
35.7338 68.0
35.7437 68.0
35.7535 61.0
35.7634 59.0
35.7732 72.0
35.7831 61.0
35.7929 61.0
35.8028 71.0
35.8126 60.0
35.8225 61.0
35.8323 75.0
35.8422 76.0
35.852 65.0
35.8619 63.0
35.8717 82.0
35.8815 81.0
35.8914 51.0
35.9012 69.0
35.9111 65.0
35.9209 78.0
35.9308 79.0
35.9406 94.0
35.9505 97.0
35.9603 84.0
35.9702 77.0
35.98 71.0
35.9899 74.0
35.9997 85.0
36.0096 85.0
36.0194 92.0
36.0293 104.0
36.0391 82.0
36.049 114.0
36.0588 118.0
36.0687 122.0
36.0785 125.0
36.0883 126.0
36.0982 117.0
36.108 106.0
36.1179 103.0
36.1277 104.0
36.1376 116.0
36.1474 94.0
36.1573 95.0
36.1671 111.0
36.177 100.0
36.1868 91.0
36.1967 100.0
36.2065 101.0
36.2164 92.0
36.2262 99.0
36.2361 93.0
36.2459 96.0
36.2558 94.0
36.2656 99.0
36.2755 78.0
36.2853 92.0
36.2951 94.0
36.305 88.0
36.3148 91.0
36.3247 89.0
36.3345 107.0
36.3444 94.0
36.3542 81.0
36.3641 103.0
36.3739 95.0
36.3838 79.0
36.3936 97.0
36.4035 86.0
36.4133 82.0
36.4232 92.0
36.433 80.0
36.4429 92.0
36.4527 92.0
36.4626 89.0
36.4724 118.0
36.4823 97.0
36.4921 84.0
36.502 88.0
36.5118 90.0
36.5216 105.0
36.5315 120.0
36.5413 118.0
36.5512 83.0
36.561 91.0
36.5709 106.0
36.5807 109.0
36.5906 116.0
36.6004 104.0
36.6103 128.0
36.6201 100.0
36.63 103.0
36.6398 125.0
36.6497 116.0
36.6595 119.0
36.6694 124.0
36.6792 107.0
36.6891 122.0
36.6989 130.0
36.7088 123.0
36.7186 117.0
36.7284 114.0
36.7383 121.0
36.7481 126.0
36.758 129.0
36.7678 112.0
36.7777 136.0
36.7875 134.0
36.7974 143.0
36.8072 160.0
36.8171 134.0
36.8269 146.0
36.8368 149.0
36.8466 135.0
36.8565 141.0
36.8663 165.0
36.8762 150.0
36.886 148.0
36.8959 144.0
36.9057 156.0
36.9156 153.0
36.9254 159.0
36.9353 189.0
36.9451 167.0
36.9549 165.0
36.9648 179.0
36.9746 176.0
36.9845 184.0
36.9943 197.0
37.0042 171.0
37.014 191.0
37.0239 185.0
37.0337 184.0
37.0436 165.0
37.0534 197.0
37.0633 219.0
37.0731 269.0
37.083 207.0
37.0928 185.0
37.1027 259.0
37.1125 285.0
37.1224 277.0
37.1322 265.0
37.1421 255.0
37.1519 273.0
37.1617 297.0
37.1716 289.0
37.1814 262.0
37.1913 263.0
37.2011 293.0
37.211 311.0
37.2208 313.0
37.2307 308.0
37.2405 323.0
37.2504 331.0
37.2602 346.0
37.2701 359.0
37.2799 363.0
37.2898 354.0
37.2996 359.0
37.3095 373.0
37.3193 433.0
37.3292 419.0
37.339 429.0
37.3489 470.0
37.3587 402.0
37.3686 443.0
37.3784 478.0
37.3882 516.0
37.3981 539.0
37.4079 523.0
37.4178 553.0
37.4276 626.0
37.4375 578.0
37.4473 702.0
37.4572 691.0
37.467 721.0
37.4769 816.0
37.4867 921.0
37.4966 1011.0
37.5064 1274.0
37.5163 1628.0
37.5261 1902.0
37.536 2143.0
37.5458 2458.0
37.5557 2369.0
37.5655 2300.0
37.5754 2134.0
37.5852 2233.0
37.595 2301.0
37.6049 2534.0
37.6147 2766.0
37.6246 3357.0
37.6344 4092.0
37.6443 5200.0
37.6541 7091.0
37.664 10545.0
37.6738 17144.0
37.6837 35607.0
37.6935 99991.0
37.7034 201060.0
37.7132 226164.0
37.7231 180144.0
37.7329 83096.0
37.7428 35029.0
37.7526 18699.0
37.7625 14088.0
37.7723 15371.0
37.7822 25202.0
37.792 59368.0
37.8018 104459.0
37.8117 113733.0
37.8215 87324.0
37.8314 42007.0
37.8412 17965.0
37.8511 9292.0
37.8609 5810.0
37.8708 4349.0
37.8806 3307.0
37.8905 2775.0
37.9003 2299.0
37.9102 2030.0
37.92 1770.0
37.9299 1545.0
37.9397 1448.0
37.9496 1305.0
37.9594 1117.0
37.9693 1109.0
37.9791 1031.0
37.989 906.0
37.9988 811.0
38.0087 763.0
38.0185 719.0
38.0283 699.0
38.0382 645.0
38.048 633.0
38.0579 616.0
38.0677 619.0
38.0776 575.0
38.0874 555.0
38.0973 553.0
38.1071 465.0
38.117 493.0
38.1268 464.0
38.1367 482.0
38.1465 402.0
38.1564 399.0
38.1662 366.0
38.1761 404.0
38.1859 364.0
38.1958 358.0
38.2056 376.0
38.2155 329.0
38.2253 294.0
38.2351 298.0
38.245 325.0
38.2548 296.0
38.2647 291.0
38.2745 260.0
38.2844 264.0
38.2942 257.0
38.3041 214.0
38.3139 197.0
38.3238 191.0
38.3336 197.0
38.3435 203.0
38.3533 185.0
38.3632 191.0
38.373 171.0
38.3829 175.0
38.3927 162.0
38.4026 150.0
38.4124 142.0
38.4223 147.0
38.4321 156.0
38.442 153.0
38.4518 146.0
38.4616 150.0
38.4715 148.0
38.4813 142.0
38.4912 129.0
38.501 133.0
38.5109 127.0
38.5207 148.0
38.5306 132.0
38.5404 110.0
38.5503 111.0
38.5601 117.0
38.57 131.0
38.5798 119.0
38.5897 127.0
38.5995 114.0
38.6094 100.0
38.6192 118.0
38.6291 95.0
38.6389 109.0
38.6488 99.0
38.6586 107.0
38.6684 116.0
38.6783 109.0
38.6881 92.0
38.698 100.0
38.7078 112.0
38.7177 105.0
38.7275 107.0
38.7374 121.0
38.7472 99.0
38.7571 99.0
38.7669 75.0
38.7768 93.0
38.7866 109.0
38.7965 105.0
38.8063 78.0
38.8162 76.0
38.826 87.0
38.8359 97.0
38.8457 88.0
38.8556 95.0
38.8654 91.0
38.8753 88.0
38.8851 78.0
38.8949 81.0
38.9048 96.0
38.9146 78.0
38.9245 89.0
38.9343 91.0
38.9442 79.0
38.954 76.0
38.9639 81.0
38.9737 75.0
38.9836 76.0
38.9934 77.0
39.0033 69.0
39.0131 78.0
39.023 72.0
39.0328 77.0
39.0427 69.0
39.0525 67.0
39.0624 83.0
39.0722 72.0
39.0821 80.0
39.0919 65.0
39.1017 70.0
39.1116 86.0
39.1214 64.0
39.1313 79.0
39.1411 66.0
39.151 84.0
39.1608 78.0
39.1707 71.0
39.1805 85.0
39.1904 83.0
39.2002 77.0
39.2101 84.0
39.2199 74.0
39.2298 63.0
39.2396 48.0
39.2495 70.0
39.2593 75.0
39.2692 76.0
39.279 78.0
39.2889 85.0
39.2987 68.0
39.3085 80.0
39.3184 74.0
39.3282 67.0
39.3381 90.0
39.3479 66.0
39.3578 68.0
39.3676 74.0
39.3775 88.0
39.3873 82.0
39.3972 64.0
39.407 88.0
39.4169 69.0
39.4267 74.0
39.4366 91.0
39.4464 78.0
39.4563 81.0
39.4661 98.0
39.476 65.0
39.4858 68.0
39.4957 73.0
39.5055 79.0
39.5154 86.0
39.5252 74.0
39.535 80.0
39.5449 80.0
39.5547 78.0
39.5646 97.0
39.5744 80.0
39.5843 69.0
39.5941 84.0
39.604 96.0
39.6138 84.0
39.6237 93.0
39.6335 75.0
39.6434 92.0
39.6532 89.0
39.6631 78.0
39.6729 92.0
39.6828 75.0
39.6926 82.0
39.7025 78.0
39.7123 72.0
39.7222 71.0
39.732 76.0
39.7418 71.0
39.7517 82.0
39.7615 80.0
39.7714 81.0
39.7812 65.0
39.7911 64.0
39.8009 72.0
39.8108 69.0
39.8206 68.0
39.8305 82.0
39.8403 81.0
39.8502 75.0
39.86 81.0
39.8699 87.0
39.8797 78.0
39.8896 78.0
39.8994 44.0
39.9093 73.0
39.9191 76.0
39.929 69.0
39.9388 68.0
39.9487 73.0
39.9585 70.0
39.9683 72.0
39.9782 64.0
39.988 68.0
39.9979 72.0