File: data/W6775c/XRD_Omega/W6775c_Cr2O3_scan_omega_2deg_step_0.002deg0_6.xy
18.67650 570.0
18.67850 529.0
18.68050 514.0
18.68250 560.0
18.68450 580.0
18.68650 500.0
18.68850 532.0
18.69050 513.0
18.69250 569.0
18.69450 550.0
18.69650 517.0
18.69850 539.0
18.70050 498.0
18.70250 583.0
18.70450 513.0
18.70650 561.0
18.70850 573.0
18.71050 583.0
18.71250 533.0
18.71450 524.0
18.71650 558.0
18.71850 516.0
18.72050 503.0
18.72250 548.0
18.72450 569.0
18.72650 534.0
18.72850 517.0
18.73050 570.0
18.73250 551.0
18.73450 541.0
18.73650 573.0
18.73850 551.0
18.74050 545.0
18.74250 544.0
18.74450 561.0
18.74650 542.0
18.74850 583.0
18.75050 556.0
18.75250 531.0
18.75450 532.0
18.75650 558.0
18.75850 551.0
18.76050 506.0
18.76250 556.0
18.76450 556.0
18.76650 548.0
18.76850 540.0
18.77050 553.0
18.77250 518.0
18.77450 509.0
18.77650 537.0
18.77850 564.0
18.78050 558.0
18.78250 562.0
18.78450 547.0
18.78650 564.0
18.78850 543.0
18.79050 550.0
18.79250 570.0
18.79450 513.0
18.79650 560.0
18.79850 553.0
18.80050 552.0
18.80250 563.0
18.80450 579.0
18.80650 534.0
18.80850 567.0
18.81050 569.0
18.81250 554.0
18.81450 544.0
18.81650 563.0
18.81850 574.0
18.82050 572.0
18.82250 555.0
18.82450 594.0
18.82650 589.0
18.82850 570.0
18.83050 574.0
18.83250 573.0
18.83450 554.0
18.83650 562.0
18.83850 569.0
18.84050 620.0
18.84250 534.0
18.84450 571.0
18.84650 573.0
18.84850 548.0
18.85050 603.0
18.85250 572.0
18.85450 572.0
18.85650 569.0
18.85850 567.0
18.86050 561.0
18.86250 569.0
18.86450 607.0
18.86650 544.0
18.86850 572.0
18.87050 575.0
18.87250 582.0
18.87450 522.0
18.87650 573.0
18.87850 550.0
18.88050 595.0
18.88250 584.0
18.88450 579.0
18.88650 564.0
18.88850 595.0
18.89050 583.0
18.89250 555.0
18.89450 533.0
18.89650 557.0
18.89850 546.0
18.90050 559.0
18.90250 525.0
18.90450 601.0
18.90650 554.0
18.90850 592.0
18.91050 563.0
18.91250 543.0
18.91450 528.0
18.91650 580.0
18.91850 564.0
18.92050 637.0
18.92250 582.0
18.92450 554.0
18.92650 560.0
18.92850 582.0
18.93050 565.0
18.93250 638.0
18.93450 589.0
18.93650 571.0
18.93850 598.0
18.94050 604.0
18.94250 578.0
18.94450 608.0
18.94650 617.0
18.94850 598.0
18.95050 605.0
18.95250 580.0
18.95450 563.0
18.95650 561.0
18.95850 551.0
18.96050 613.0
18.96250 563.0
18.96450 612.0
18.96650 613.0
18.96850 635.0
18.97050 585.0
18.97250 598.0
18.97450 602.0
18.97650 545.0
18.97850 568.0
18.98050 590.0
18.98250 577.0
18.98450 550.0
18.98650 605.0
18.98850 584.0
18.99050 552.0
18.99250 583.0
18.99450 634.0
18.99650 576.0
18.99850 600.0
19.00050 568.0
19.00250 597.0
19.00450 631.0
19.00650 639.0
19.00850 608.0
19.01050 622.0
19.01250 640.0
19.01450 617.0
19.01650 618.0
19.01850 643.0
19.02050 626.0
19.02250 600.0
19.02450 570.0
19.02650 619.0
19.02850 554.0
19.03050 645.0
19.03250 609.0
19.03450 631.0
19.03650 609.0
19.03850 673.0
19.04050 654.0
19.04250 662.0
19.04450 647.0
19.04650 660.0
19.04850 589.0
19.05050 618.0
19.05250 633.0
19.05450 649.0
19.05650 627.0
19.05850 698.0
19.06050 648.0
19.06250 659.0
19.06450 652.0
19.06650 656.0
19.06850 669.0
19.07050 666.0
19.07250 676.0
19.07450 683.0
19.07650 676.0
19.07850 662.0
19.08050 721.0
19.08250 646.0
19.08450 681.0
19.08650 711.0
19.08850 679.0
19.09050 723.0
19.09250 682.0
19.09450 747.0
19.09650 749.0
19.09850 723.0
19.10050 660.0
19.10250 702.0
19.10450 667.0
19.10650 696.0
19.10850 710.0
19.11050 723.0
19.11250 692.0
19.11450 724.0
19.11650 725.0
19.11850 712.0
19.12050 718.0
19.12250 703.0
19.12450 714.0
19.12650 752.0
19.12850 771.0
19.13050 763.0
19.13250 757.0
19.13450 765.0
19.13650 695.0
19.13850 762.0
19.14050 736.0
19.14250 759.0
19.14450 740.0
19.14650 745.0
19.14850 741.0
19.15050 693.0
19.15250 796.0
19.15450 742.0
19.15650 761.0
19.15850 802.0
19.16050 759.0
19.16250 785.0
19.16450 801.0
19.16650 750.0
19.16850 774.0
19.17050 791.0
19.17250 785.0
19.17450 812.0
19.17650 734.0
19.17850 788.0
19.18050 797.0
19.18250 792.0
19.18450 804.0
19.18650 806.0
19.18850 808.0
19.19050 825.0
19.19250 801.0
19.19450 799.0
19.19650 779.0
19.19850 845.0
19.20050 827.0
19.20250 878.0
19.20450 811.0
19.20650 839.0
19.20850 864.0
19.21050 799.0
19.21250 877.0
19.21450 858.0
19.21650 880.0
19.21850 870.0
19.22050 879.0
19.22250 841.0
19.22450 826.0
19.22650 843.0
19.22850 899.0
19.23050 846.0
19.23250 818.0
19.23450 934.0
19.23650 884.0
19.23850 847.0
19.24050 837.0
19.24250 933.0
19.24450 918.0
19.24650 926.0
19.24850 952.0
19.25050 921.0
19.25250 904.0
19.25450 909.0
19.25650 938.0
19.25850 949.0
19.26050 928.0
19.26250 959.0
19.26450 912.0
19.26650 979.0
19.26850 929.0
19.27050 947.0
19.27250 979.0
19.27450 933.0
19.27650 964.0
19.27850 978.0
19.28050 982.0
19.28250 1012.0
19.28450 945.0
19.28650 992.0
19.28850 995.0
19.29050 1009.0
19.29250 1044.0
19.29450 1006.0
19.29650 1036.0
19.29850 996.0
19.30050 989.0
19.30250 979.0
19.30450 1073.0
19.30650 1018.0
19.30850 1048.0
19.31050 1081.0
19.31250 1082.0
19.31450 1064.0
19.31650 1059.0
19.31850 1092.0
19.32050 1108.0
19.32250 1067.0
19.32450 1066.0
19.32650 1084.0
19.32850 1130.0
19.33050 1097.0
19.33250 1164.0
19.33450 1083.0
19.33650 1108.0
19.33850 1118.0
19.34050 1138.0
19.34250 1132.0
19.34450 1121.0
19.34650 1169.0
19.34850 1173.0
19.35050 1184.0
19.35250 1183.0
19.35450 1231.0
19.35650 1163.0
19.35850 1238.0
19.36050 1253.0
19.36250 1194.0
19.36450 1226.0
19.36650 1297.0
19.36850 1238.0
19.37050 1230.0
19.37250 1331.0
19.37450 1244.0
19.37650 1303.0
19.37850 1247.0
19.38050 1335.0
19.38250 1253.0
19.38450 1277.0
19.38650 1331.0
19.38850 1354.0
19.39050 1371.0
19.39250 1318.0
19.39450 1389.0
19.39650 1424.0
19.39850 1435.0
19.40050 1411.0
19.40250 1459.0
19.40450 1466.0
19.40650 1450.0
19.40850 1421.0
19.41050 1430.0
19.41250 1417.0
19.41450 1419.0
19.41650 1524.0
19.41850 1510.0
19.42050 1557.0
19.42250 1551.0
19.42450 1562.0
19.42650 1511.0
19.42850 1580.0
19.43050 1618.0
19.43250 1645.0
19.43450 1678.0
19.43650 1695.0
19.43850 1599.0
19.44050 1630.0
19.44250 1664.0
19.44450 1753.0
19.44650 1755.0
19.44850 1742.0
19.45050 1742.0
19.45250 1748.0
19.45450 1785.0
19.45650 1809.0
19.45850 1823.0
19.46050 1969.0
19.46250 1950.0
19.46450 1962.0
19.46650 1958.0
19.46850 2071.0
19.47050 2045.0
19.47250 2132.0
19.47450 2097.0
19.47650 2125.0
19.47850 2114.0
19.48050 2124.0
19.48250 2148.0
19.48450 2199.0
19.48650 2246.0
19.48850 2327.0
19.49050 2329.0
19.49250 2401.0
19.49450 2343.0
19.49650 2410.0
19.49850 2583.0
19.50050 2591.0
19.50250 2645.0
19.50450 2595.0
19.50650 2621.0
19.50850 2647.0
19.51050 2701.0
19.51250 2712.0
19.51450 2720.0
19.51650 2872.0
19.51850 2923.0
19.52050 2901.0
19.52250 2871.0
19.52450 3198.0
19.52650 3141.0
19.52850 3259.0
19.53050 3379.0
19.53250 3432.0
19.53450 3546.0
19.53650 3564.0
19.53850 3667.0
19.54050 3691.0
19.54250 3836.0
19.54450 3852.0
19.54650 3954.0
19.54850 3983.0
19.55050 4184.0
19.55250 4318.0
19.55450 4316.0
19.55650 4484.0
19.55850 4650.0
19.56050 4722.0
19.56250 4913.0
19.56450 5111.0
19.56650 5242.0
19.56850 5257.0
19.57050 5369.0
19.57250 5528.0
19.57450 5753.0
19.57650 5932.0
19.57850 6107.0
19.58050 6234.0
19.58250 6339.0
19.58450 6586.0
19.58650 6954.0
19.58850 7081.0
19.59050 7278.0
19.59250 7500.0
19.59450 7762.0
19.59650 8161.0
19.59850 8654.0
19.60050 8960.0
19.60250 9313.0
19.60450 9560.0
19.60650 10013.0
19.60850 10654.0
19.61050 11217.0
19.61250 11792.0
19.61450 12428.0
19.61650 12959.0
19.61850 13582.0
19.62050 14712.0
19.62250 15437.0
19.62450 16361.0
19.62650 17685.0
19.62850 18512.0
19.63050 19831.0
19.63250 21362.0
19.63450 22504.0
19.63650 23803.0
19.63850 24983.0
19.64050 26485.0
19.64250 27783.0
19.64450 28885.0
19.64650 29657.0
19.64850 30756.0
19.65050 31790.0
19.65250 32060.0
19.65450 32431.0
19.65650 32124.0
19.65850 32690.0
19.66050 32060.0
19.66250 31751.0
19.66450 31355.0
19.66650 30709.0
19.66850 30151.0
19.67050 29385.0
19.67250 28521.0
19.67450 27648.0
19.67650 27026.0
19.67850 26333.0
19.68050 25907.0
19.68250 25751.0
19.68450 25002.0
19.68650 25084.0
19.68850 24175.0
19.69050 24123.0
19.69250 24243.0
19.69450 24028.0
19.69650 23770.0
19.69850 23725.0
19.70050 23276.0
19.70250 23525.0
19.70450 23409.0
19.70650 22651.0
19.70850 22075.0
19.71050 21505.0
19.71250 21291.0
19.71450 20704.0
19.71650 20016.0
19.71850 18843.0
19.72050 18239.0
19.72250 17278.0
19.72450 16885.0
19.72650 15830.0
19.72850 14917.0
19.73050 14154.0
19.73250 13589.0
19.73450 12848.0
19.73650 12343.0
19.73850 11403.0
19.74050 11131.0
19.74250 10598.0
19.74450 10111.0
19.74650 9715.0
19.74850 9285.0
19.75050 8643.0
19.75250 8519.0
19.75450 8263.0
19.75650 8054.0
19.75850 7693.0
19.76050 7413.0
19.76250 7119.0
19.76450 6984.0
19.76650 6642.0
19.76850 6590.0
19.77050 6190.0
19.77250 6071.0
19.77450 6056.0
19.77650 5596.0
19.77850 5515.0
19.78050 5299.0
19.78250 5380.0
19.78450 5112.0
19.78650 4875.0
19.78850 4936.0
19.79050 4701.0
19.79250 4575.0
19.79450 4516.0
19.79650 4359.0
19.79850 4203.0
19.80050 4055.0
19.80250 4044.0
19.80450 4032.0
19.80650 3836.0
19.80850 3713.0
19.81050 3749.0
19.81250 3699.0
19.81450 3626.0
19.81650 3488.0
19.81850 3429.0
19.82050 3332.0
19.82250 3285.0
19.82450 3205.0
19.82650 3054.0
19.82850 3054.0
19.83050 2975.0
19.83250 2958.0
19.83450 2760.0
19.83650 2736.0
19.83850 2733.0
19.84050 2645.0
19.84250 2596.0
19.84450 2498.0
19.84650 2550.0
19.84850 2535.0
19.85050 2463.0
19.85250 2423.0
19.85450 2420.0
19.85650 2406.0
19.85850 2341.0
19.86050 2270.0
19.86250 2273.0
19.86450 2191.0
19.86650 2224.0
19.86850 2147.0
19.87050 2049.0
19.87250 2030.0
19.87450 1991.0
19.87650 1936.0
19.87850 1999.0
19.88050 1990.0
19.88250 1892.0
19.88450 1912.0
19.88650 1811.0
19.88850 1866.0
19.89050 1857.0
19.89250 1833.0
19.89450 1807.0
19.89650 1750.0
19.89850 1747.0
19.90050 1670.0
19.90250 1674.0
19.90450 1677.0
19.90650 1642.0
19.90850 1682.0
19.91050 1718.0
19.91250 1623.0
19.91450 1618.0
19.91650 1579.0
19.91850 1589.0
19.92050 1513.0
19.92250 1555.0
19.92450 1478.0
19.92650 1483.0
19.92850 1494.0
19.93050 1497.0
19.93250 1427.0
19.93450 1423.0
19.93650 1422.0
19.93850 1438.0
19.94050 1419.0
19.94250 1401.0
19.94450 1335.0
19.94650 1319.0
19.94850 1329.0
19.95050 1326.0
19.95250 1374.0
19.95450 1339.0
19.95650 1311.0
19.95850 1258.0
19.96050 1321.0
19.96250 1264.0
19.96450 1220.0
19.96650 1227.0
19.96850 1210.0
19.97050 1262.0
19.97250 1179.0
19.97450 1204.0
19.97650 1219.0
19.97850 1250.0
19.98050 1233.0
19.98250 1229.0
19.98450 1189.0
19.98650 1138.0
19.98850 1186.0
19.99050 1142.0
19.99250 1142.0
19.99450 1141.0
19.99650 1105.0
19.99850 1098.0
20.00050 1091.0
20.00250 1150.0
20.00450 1045.0
20.00650 1126.0
20.00850 1069.0
20.01050 1077.0
20.01250 1019.0
20.01450 1068.0
20.01650 1068.0
20.01850 1061.0
20.02050 1042.0
20.02250 1073.0
20.02450 1013.0
20.02650 1002.0
20.02850 1024.0
20.03050 1012.0
20.03250 994.0
20.03450 1046.0
20.03650 1024.0
20.03850 971.0
20.04050 988.0
20.04250 938.0
20.04450 966.0
20.04650 929.0
20.04850 934.0
20.05050 979.0
20.05250 961.0
20.05450 960.0
20.05650 959.0
20.05850 966.0
20.06050 958.0
20.06250 906.0
20.06450 865.0
20.06650 895.0
20.06850 908.0
20.07050 922.0
20.07250 920.0
20.07450 955.0
20.07650 870.0
20.07850 840.0
20.08050 902.0
20.08250 852.0
20.08450 859.0
20.08650 860.0
20.08850 863.0
20.09050 851.0
20.09250 918.0
20.09450 832.0
20.09650 818.0
20.09850 835.0
20.10050 819.0
20.10250 841.0
20.10450 856.0
20.10650 837.0
20.10850 849.0
20.11050 874.0
20.11250 837.0
20.11450 846.0
20.11650 836.0
20.11850 828.0
20.12050 795.0
20.12250 851.0
20.12450 830.0
20.12650 890.0
20.12850 797.0
20.13050 789.0
20.13250 780.0
20.13450 831.0
20.13650 812.0
20.13850 808.0
20.14050 768.0
20.14250 846.0
20.14450 826.0
20.14650 820.0
20.14850 804.0
20.15050 734.0
20.15250 798.0
20.15450 816.0
20.15650 786.0
20.15850 761.0
20.16050 745.0
20.16250 775.0
20.16450 782.0
20.16650 722.0
20.16850 778.0
20.17050 787.0
20.17250 753.0
20.17450 793.0
20.17650 739.0
20.17850 758.0
20.18050 750.0
20.18250 743.0
20.18450 809.0
20.18650 745.0
20.18850 680.0
20.19050 743.0
20.19250 765.0
20.19450 767.0
20.19650 745.0
20.19850 733.0
20.20050 755.0
20.20250 788.0
20.20450 738.0
20.20650 809.0
20.20850 726.0
20.21050 690.0
20.21250 711.0
20.21450 660.0
20.21650 758.0
20.21850 809.0
20.22050 722.0
20.22250 683.0
20.22450 749.0
20.22650 732.0
20.22850 747.0
20.23050 731.0
20.23250 742.0
20.23450 746.0
20.23650 760.0
20.23850 760.0
20.24050 731.0
20.24250 735.0
20.24450 744.0
20.24650 692.0
20.24850 699.0
20.25050 671.0
20.25250 724.0
20.25450 702.0
20.25650 699.0
20.25850 713.0
20.26050 738.0
20.26250 726.0
20.26450 719.0
20.26650 762.0
20.26850 745.0
20.27050 703.0
20.27250 776.0
20.27450 733.0
20.27650 706.0
20.27850 703.0
20.28050 693.0
20.28250 726.0
20.28450 731.0
20.28650 687.0
20.28850 686.0
20.29050 692.0
20.29250 732.0
20.29450 701.0
20.29650 785.0
20.29850 702.0
20.30050 726.0
20.30250 726.0
20.30450 774.0
20.30650 679.0
20.30850 711.0
20.31050 695.0
20.31250 676.0
20.31450 694.0
20.31650 684.0
20.31850 695.0
20.32050 683.0
20.32250 674.0
20.32450 668.0
20.32650 678.0
20.32850 660.0
20.33050 676.0
20.33250 646.0
20.33450 603.0
20.33650 638.0
20.33850 621.0
20.34050 622.0
20.34250 587.0
20.34450 562.0
20.34650 618.0
20.34850 589.0
20.35050 605.0
20.35250 574.0
20.35450 591.0
20.35650 558.0
20.35850 594.0
20.36050 561.0
20.36250 555.0
20.36450 539.0
20.36650 574.0
20.36850 607.0
20.37050 545.0
20.37250 528.0
20.37450 574.0
20.37650 602.0
20.37850 562.0
20.38050 591.0
20.38250 552.0
20.38450 564.0
20.38650 568.0
20.38850 584.0
20.39050 558.0
20.39250 613.0
20.39450 564.0
20.39650 565.0
20.39850 516.0
20.40050 538.0
20.40250 561.0
20.40450 536.0
20.40650 530.0
20.40850 560.0
20.41050 577.0
20.41250 516.0
20.41450 544.0
20.41650 565.0
20.41850 542.0
20.42050 537.0
20.42250 531.0
20.42450 543.0
20.42650 529.0
20.42850 498.0
20.43050 535.0
20.43250 532.0
20.43450 540.0
20.43650 525.0
20.43850 515.0
20.44050 548.0
20.44250 538.0
20.44450 539.0
20.44650 524.0
20.44850 547.0
20.45050 526.0
20.45250 489.0
20.45450 537.0
20.45650 534.0
20.45850 549.0
20.46050 570.0
20.46250 553.0
20.46450 513.0
20.46650 576.0
20.46850 500.0
20.47050 521.0
20.47250 535.0
20.47450 548.0
20.47650 554.0
20.47850 554.0
20.48050 533.0
20.48250 573.0
20.48450 539.0
20.48650 503.0
20.48850 496.0
20.49050 529.0
20.49250 507.0
20.49450 516.0
20.49650 493.0
20.49850 541.0
20.50050 544.0
20.50250 482.0
20.50450 538.0
20.50650 543.0
20.50850 533.0
20.51050 507.0
20.51250 526.0
20.51450 542.0
20.51650 547.0
20.51850 517.0
20.52050 520.0
20.52250 503.0
20.52450 488.0
20.52650 523.0
20.52850 499.0
20.53050 530.0
20.53250 535.0
20.53450 511.0
20.53650 531.0
20.53850 509.0
20.54050 548.0
20.54250 493.0
20.54450 511.0
20.54650 530.0
20.54850 524.0
20.55050 534.0
20.55250 514.0
20.55450 510.0
20.55650 550.0
20.55850 506.0
20.56050 522.0
20.56250 487.0
20.56450 467.0
20.56650 507.0
20.56850 558.0
20.57050 527.0
20.57250 470.0
20.57450 497.0
20.57650 464.0
20.57850 526.0
20.58050 515.0
20.58250 515.0
20.58450 550.0
20.58650 520.0
20.58850 511.0
20.59050 561.0
20.59250 550.0
20.59450 529.0
20.59650 530.0
20.59850 525.0
20.60050 496.0
20.60250 506.0
20.60450 505.0
20.60650 504.0
20.60850 531.0
20.61050 521.0
20.61250 476.0
20.61450 505.0
20.61650 507.0
20.61850 553.0
20.62050 516.0
20.62250 458.0
20.62450 500.0
20.62650 504.0
20.62850 529.0
20.63050 466.0
20.63250 537.0
20.63450 520.0
20.63650 470.0
20.63850 504.0
20.64050 483.0
20.64250 534.0
20.64450 489.0
20.64650 529.0
20.64850 525.0
20.65050 516.0
20.65250 527.0
20.65450 476.0
20.65650 503.0
20.65850 492.0
20.66050 485.0