File: data/W6933c/XRD_Omega/film_c_scan_omega_4deg_step_0.005deg0.xy
17.64240 52.0
17.64740 51.0
17.65240 58.0
17.65740 65.0
17.66240 44.0
17.66740 52.0
17.67240 52.0
17.67740 50.0
17.68240 68.0
17.68740 58.0
17.69240 59.0
17.69740 49.0
17.70240 62.0
17.70740 67.0
17.71240 64.0
17.71740 65.0
17.72240 61.0
17.72740 50.0
17.73240 76.0
17.73740 61.0
17.74240 51.0
17.74740 58.0
17.75240 51.0
17.75740 55.0
17.76240 47.0
17.76740 57.0
17.77240 77.0
17.77740 69.0
17.78240 63.0
17.78740 58.0
17.79240 57.0
17.79740 67.0
17.80240 50.0
17.80740 57.0
17.81240 51.0
17.81740 38.0
17.82240 56.0
17.82740 60.0
17.83240 62.0
17.83740 51.0
17.84240 70.0
17.84740 55.0
17.85240 46.0
17.85740 55.0
17.86240 48.0
17.86740 54.0
17.87240 65.0
17.87740 61.0
17.88240 62.0
17.88740 56.0
17.89240 53.0
17.89740 55.0
17.90240 63.0
17.90740 53.0
17.91240 59.0
17.91740 55.0
17.92240 52.0
17.92740 58.0
17.93240 57.0
17.93740 56.0
17.94240 59.0
17.94740 46.0
17.95240 63.0
17.95740 55.0
17.96240 50.0
17.96740 59.0
17.97240 62.0
17.97740 59.0
17.98240 60.0
17.98740 48.0
17.99240 74.0
17.99740 64.0
18.00240 66.0
18.00740 52.0
18.01240 55.0
18.01740 66.0
18.02240 77.0
18.02740 51.0
18.03240 64.0
18.03740 60.0
18.04240 63.0
18.04740 55.0
18.05240 50.0
18.05740 56.0
18.06240 51.0
18.06740 56.0
18.07240 61.0
18.07740 49.0
18.08240 57.0
18.08740 52.0
18.09240 54.0
18.09740 66.0
18.10240 49.0
18.10740 52.0
18.11240 63.0
18.11740 73.0
18.12240 49.0
18.12740 65.0
18.13240 52.0
18.13740 58.0
18.14240 59.0
18.14740 67.0
18.15240 62.0
18.15740 61.0
18.16240 59.0
18.16740 50.0
18.17240 68.0
18.17740 59.0
18.18240 57.0
18.18740 59.0
18.19240 58.0
18.19740 51.0
18.20240 54.0
18.20740 42.0
18.21240 54.0
18.21740 57.0
18.22240 54.0
18.22740 53.0
18.23240 57.0
18.23740 53.0
18.24240 59.0
18.24740 50.0
18.25240 60.0
18.25740 51.0
18.26240 59.0
18.26740 54.0
18.27240 59.0
18.27740 63.0
18.28240 72.0
18.28740 65.0
18.29240 47.0
18.29740 65.0
18.30240 57.0
18.30740 66.0
18.31240 61.0
18.31740 62.0
18.32240 55.0
18.32740 71.0
18.33240 58.0
18.33740 61.0
18.34240 61.0
18.34740 48.0
18.35240 48.0
18.35740 61.0
18.36240 42.0
18.36740 55.0
18.37240 54.0
18.37740 53.0
18.38240 61.0
18.38740 53.0
18.39240 47.0
18.39740 56.0
18.40240 62.0
18.40740 44.0
18.41240 52.0
18.41740 53.0
18.42240 51.0
18.42740 54.0
18.43240 60.0
18.43740 58.0
18.44240 64.0
18.44740 59.0
18.45240 56.0
18.45740 65.0
18.46240 46.0
18.46740 64.0
18.47240 44.0
18.47740 62.0
18.48240 52.0
18.48740 53.0
18.49240 56.0
18.49740 70.0
18.50240 60.0
18.50740 71.0
18.51240 52.0
18.51740 66.0
18.52240 59.0
18.52740 52.0
18.53240 74.0
18.53740 64.0
18.54240 72.0
18.54740 71.0
18.55240 57.0
18.55740 62.0
18.56240 60.0
18.56740 64.0
18.57240 52.0
18.57740 59.0
18.58240 61.0
18.58740 70.0
18.59240 61.0
18.59740 73.0
18.60240 77.0
18.60740 50.0
18.61240 45.0
18.61740 55.0
18.62240 49.0
18.62740 51.0
18.63240 63.0
18.63740 55.0
18.64240 69.0
18.64740 68.0
18.65240 68.0
18.65740 67.0
18.66240 89.0
18.66740 45.0
18.67240 63.0
18.67740 41.0
18.68240 57.0
18.68740 60.0
18.69240 57.0
18.69740 56.0
18.70240 48.0
18.70740 64.0
18.71240 65.0
18.71740 67.0
18.72240 61.0
18.72740 70.0
18.73240 67.0
18.73740 70.0
18.74240 64.0
18.74740 58.0
18.75240 70.0
18.75740 60.0
18.76240 51.0
18.76740 63.0
18.77240 76.0
18.77740 81.0
18.78240 50.0
18.78740 67.0
18.79240 71.0
18.79740 69.0
18.80240 66.0
18.80740 69.0
18.81240 61.0
18.81740 75.0
18.82240 73.0
18.82740 67.0
18.83240 71.0
18.83740 64.0
18.84240 63.0
18.84740 69.0
18.85240 77.0
18.85740 90.0
18.86240 72.0
18.86740 69.0
18.87240 68.0
18.87740 69.0
18.88240 71.0
18.88740 63.0
18.89240 78.0
18.89740 67.0
18.90240 81.0
18.90740 76.0
18.91240 73.0
18.91740 80.0
18.92240 86.0
18.92740 69.0
18.93240 88.0
18.93740 80.0
18.94240 64.0
18.94740 87.0
18.95240 63.0
18.95740 85.0
18.96240 81.0
18.96740 84.0
18.97240 68.0
18.97740 102.0
18.98240 97.0
18.98740 86.0
18.99240 80.0
18.99740 84.0
19.00240 82.0
19.00740 86.0
19.01240 78.0
19.01740 81.0
19.02240 99.0
19.02740 63.0
19.03240 87.0
19.03740 94.0
19.04240 83.0
19.04740 94.0
19.05240 104.0
19.05740 95.0
19.06240 106.0
19.06740 98.0
19.07240 102.0
19.07740 85.0
19.08240 110.0
19.08740 96.0
19.09240 104.0
19.09740 93.0
19.10240 100.0
19.10740 100.0
19.11240 121.0
19.11740 91.0
19.12240 93.0
19.12740 117.0
19.13240 134.0
19.13740 113.0
19.14240 122.0
19.14740 119.0
19.15240 128.0
19.15740 104.0
19.16240 125.0
19.16740 130.0
19.17240 130.0
19.17740 129.0
19.18240 131.0
19.18740 137.0
19.19240 128.0
19.19740 129.0
19.20240 142.0
19.20740 132.0
19.21240 146.0
19.21740 133.0
19.22240 142.0
19.22740 171.0
19.23240 132.0
19.23740 154.0
19.24240 161.0
19.24740 176.0
19.25240 152.0
19.25740 169.0
19.26240 150.0
19.26740 172.0
19.27240 192.0
19.27740 165.0
19.28240 191.0
19.28740 194.0
19.29240 211.0
19.29740 196.0
19.30240 208.0
19.30740 189.0
19.31240 232.0
19.31740 247.0
19.32240 248.0
19.32740 232.0
19.33240 276.0
19.33740 266.0
19.34240 296.0
19.34740 303.0
19.35240 288.0
19.35740 305.0
19.36240 286.0
19.36740 305.0
19.37240 348.0
19.37740 337.0
19.38240 336.0
19.38740 391.0
19.39240 360.0
19.39740 426.0
19.40240 394.0
19.40740 434.0
19.41240 450.0
19.41740 475.0
19.42240 508.0
19.42740 529.0
19.43240 536.0
19.43740 590.0
19.44240 588.0
19.44740 645.0
19.45240 617.0
19.45740 768.0
19.46240 812.0
19.46740 851.0
19.47240 936.0
19.47740 1005.0
19.48240 1100.0
19.48740 1396.0
19.49240 1541.0
19.49740 1882.0
19.50240 2227.0
19.50740 2462.0
19.51240 2757.0
19.51740 3126.0
19.52240 3419.0
19.52740 3727.0
19.53240 4005.0
19.53740 4397.0
19.54240 4847.0
19.54740 5242.0
19.55240 5939.0
19.55740 6428.0
19.56240 6968.0
19.56740 7612.0
19.57240 7863.0
19.57740 8383.0
19.58240 8787.0
19.58740 9040.0
19.59240 9454.0
19.59740 10040.0
19.60240 10467.0
19.60740 10774.0
19.61240 11333.0
19.61740 11241.0
19.62240 11392.0
19.62740 11380.0
19.63240 11186.0
19.63740 10541.0
19.64240 10685.0
19.64740 10229.0
19.65240 9830.0
19.65740 9629.0
19.66240 9175.0
19.66740 8620.0
19.67240 8065.0
19.67740 7575.0
19.68240 6995.0
19.68740 6547.0
19.69240 6090.0
19.69740 5715.0
19.70240 5188.0
19.70740 4702.0
19.71240 4258.0
19.71740 3807.0
19.72240 3445.0
19.72740 3200.0
19.73240 2781.0
19.73740 2485.0
19.74240 2279.0
19.74740 2040.0
19.75240 1834.0
19.75740 1604.0
19.76240 1449.0
19.76740 1306.0
19.77240 1187.0
19.77740 1032.0
19.78240 900.0
19.78740 847.0
19.79240 790.0
19.79740 705.0
19.80240 587.0
19.80740 622.0
19.81240 590.0
19.81740 548.0
19.82240 529.0
19.82740 500.0
19.83240 513.0
19.83740 468.0
19.84240 430.0
19.84740 376.0
19.85240 362.0
19.85740 351.0
19.86240 371.0
19.86740 312.0
19.87240 319.0
19.87740 365.0
19.88240 319.0
19.88740 293.0
19.89240 286.0
19.89740 269.0
19.90240 276.0
19.90740 246.0
19.91240 268.0
19.91740 236.0
19.92240 266.0
19.92740 244.0
19.93240 214.0
19.93740 213.0
19.94240 197.0
19.94740 199.0
19.95240 179.0
19.95740 166.0
19.96240 212.0
19.96740 182.0
19.97240 188.0
19.97740 189.0
19.98240 195.0
19.98740 171.0
19.99240 161.0
19.99740 152.0
20.00240 148.0
20.00740 156.0
20.01240 165.0
20.01740 151.0
20.02240 185.0
20.02740 151.0
20.03240 137.0
20.03740 143.0
20.04240 151.0
20.04740 138.0
20.05240 138.0
20.05740 141.0
20.06240 138.0
20.06740 135.0
20.07240 133.0
20.07740 129.0
20.08240 117.0
20.08740 140.0
20.09240 115.0
20.09740 117.0
20.10240 109.0
20.10740 109.0
20.11240 115.0
20.11740 108.0
20.12240 100.0
20.12740 120.0
20.13240 118.0
20.13740 113.0
20.14240 108.0
20.14740 77.0
20.15240 83.0
20.15740 94.0
20.16240 93.0
20.16740 98.0
20.17240 79.0
20.17740 100.0
20.18240 88.0
20.18740 99.0
20.19240 109.0
20.19740 92.0
20.20240 82.0
20.20740 84.0
20.21240 87.0
20.21740 97.0
20.22240 77.0
20.22740 81.0
20.23240 78.0
20.23740 87.0
20.24240 80.0
20.24740 76.0
20.25240 74.0
20.25740 81.0
20.26240 87.0
20.26740 89.0
20.27240 92.0
20.27740 79.0
20.28240 86.0
20.28740 86.0
20.29240 80.0
20.29740 78.0
20.30240 73.0
20.30740 64.0
20.31240 57.0
20.31740 75.0
20.32240 68.0
20.32740 79.0
20.33240 68.0
20.33740 82.0
20.34240 66.0
20.34740 76.0
20.35240 59.0
20.35740 65.0
20.36240 58.0
20.36740 73.0
20.37240 57.0
20.37740 84.0
20.38240 64.0
20.38740 69.0
20.39240 63.0
20.39740 51.0
20.40240 68.0
20.40740 69.0
20.41240 60.0
20.41740 58.0
20.42240 71.0
20.42740 66.0
20.43240 70.0
20.43740 64.0
20.44240 71.0
20.44740 70.0
20.45240 53.0
20.45740 64.0
20.46240 72.0
20.46740 58.0
20.47240 68.0
20.47740 65.0
20.48240 76.0
20.48740 59.0
20.49240 61.0
20.49740 92.0
20.50240 52.0
20.50740 80.0
20.51240 63.0
20.51740 60.0
20.52240 87.0
20.52740 58.0
20.53240 59.0
20.53740 68.0
20.54240 65.0
20.54740 65.0
20.55240 72.0
20.55740 69.0
20.56240 73.0
20.56740 67.0
20.57240 60.0
20.57740 66.0
20.58240 60.0
20.58740 73.0
20.59240 55.0
20.59740 61.0
20.60240 56.0
20.60740 65.0
20.61240 56.0
20.61740 74.0
20.62240 58.0
20.62740 53.0
20.63240 60.0
20.63740 66.0
20.64240 54.0
20.64740 58.0
20.65240 67.0
20.65740 73.0
20.66240 58.0
20.66740 61.0
20.67240 51.0
20.67740 65.0
20.68240 61.0
20.68740 51.0
20.69240 57.0
20.69740 52.0
20.70240 51.0
20.70740 53.0
20.71240 54.0
20.71740 62.0
20.72240 56.0
20.72740 54.0
20.73240 57.0
20.73740 63.0
20.74240 51.0
20.74740 59.0
20.75240 60.0
20.75740 65.0
20.76240 72.0
20.76740 45.0
20.77240 56.0
20.77740 58.0
20.78240 53.0
20.78740 73.0
20.79240 63.0
20.79740 64.0
20.80240 60.0
20.80740 59.0
20.81240 80.0
20.81740 55.0
20.82240 51.0
20.82740 52.0
20.83240 62.0
20.83740 70.0
20.84240 42.0
20.84740 53.0
20.85240 56.0
20.85740 51.0
20.86240 58.0
20.86740 50.0
20.87240 59.0
20.87740 59.0
20.88240 55.0
20.88740 53.0
20.89240 46.0
20.89740 68.0
20.90240 65.0
20.90740 49.0
20.91240 50.0
20.91740 49.0
20.92240 55.0
20.92740 51.0
20.93240 48.0
20.93740 60.0
20.94240 61.0
20.94740 60.0
20.95240 60.0
20.95740 64.0
20.96240 63.0
20.96740 52.0
20.97240 50.0
20.97740 50.0
20.98240 56.0
20.98740 66.0
20.99240 67.0
20.99740 58.0
21.00240 44.0
21.00740 55.0
21.01240 71.0
21.01740 58.0
21.02240 44.0
21.02740 48.0
21.03240 49.0
21.03740 53.0
21.04240 60.0
21.04740 56.0
21.05240 67.0
21.05740 55.0
21.06240 64.0
21.06740 54.0
21.07240 54.0
21.07740 55.0
21.08240 52.0
21.08740 46.0
21.09240 60.0
21.09740 59.0
21.10240 56.0
21.10740 51.0
21.11240 54.0
21.11740 52.0
21.12240 57.0
21.12740 43.0
21.13240 52.0
21.13740 55.0
21.14240 59.0
21.14740 34.0
21.15240 54.0
21.15740 52.0
21.16240 59.0
21.16740 43.0
21.17240 55.0
21.17740 56.0
21.18240 50.0
21.18740 48.0
21.19240 33.0
21.19740 44.0
21.20240 62.0
21.20740 53.0
21.21240 59.0
21.21740 60.0
21.22240 48.0
21.22740 67.0
21.23240 56.0
21.23740 62.0
21.24240 49.0
21.24740 48.0
21.25240 55.0
21.25740 45.0
21.26240 49.0
21.26740 51.0
21.27240 61.0
21.27740 57.0
21.28240 57.0
21.28740 62.0
21.29240 62.0
21.29740 55.0
21.30240 63.0
21.30740 58.0
21.31240 47.0
21.31740 46.0
21.32240 55.0
21.32740 61.0
21.33240 56.0
21.33740 39.0
21.34240 40.0
21.34740 66.0
21.35240 50.0
21.35740 49.0
21.36240 51.0
21.36740 48.0
21.37240 47.0
21.37740 56.0
21.38240 47.0
21.38740 52.0
21.39240 49.0
21.39740 54.0
21.40240 58.0
21.40740 38.0
21.41240 54.0
21.41740 62.0
21.42240 46.0
21.42740 50.0
21.43240 43.0
21.43740 45.0
21.44240 67.0
21.44740 71.0
21.45240 49.0
21.45740 51.0
21.46240 51.0
21.46740 57.0
21.47240 54.0
21.47740 53.0
21.48240 58.0
21.48740 51.0
21.49240 56.0
21.49740 61.0
21.50240 54.0
21.50740 61.0
21.51240 63.0
21.51740 52.0
21.52240 70.0
21.52740 48.0
21.53240 52.0
21.53740 46.0
21.54240 53.0
21.54740 45.0
21.55240 61.0
21.55740 61.0
21.56240 39.0
21.56740 50.0
21.57240 49.0
21.57740 52.0
21.58240 46.0
21.58740 57.0
21.59240 37.0
21.59740 50.0
21.60240 57.0