File: data/W6785c/XRD_Omega/W6785c_Cr2O3_scan_omega_2deg_step_0.002deg0_14.xy
18.50810 538.0
18.51010 611.0
18.51210 558.0
18.51410 561.0
18.51610 549.0
18.51810 551.0
18.52010 592.0
18.52210 550.0
18.52410 537.0
18.52610 551.0
18.52810 576.0
18.53010 570.0
18.53210 560.0
18.53410 577.0
18.53610 591.0
18.53810 571.0
18.54010 577.0
18.54210 581.0
18.54410 545.0
18.54610 560.0
18.54810 562.0
18.55010 596.0
18.55210 563.0
18.55410 535.0
18.55610 567.0
18.55810 547.0
18.56010 536.0
18.56210 604.0
18.56410 588.0
18.56610 609.0
18.56810 617.0
18.57010 583.0
18.57210 603.0
18.57410 583.0
18.57610 601.0
18.57810 596.0
18.58010 566.0
18.58210 621.0
18.58410 613.0
18.58610 614.0
18.58810 588.0
18.59010 591.0
18.59210 574.0
18.59410 571.0
18.59610 591.0
18.59810 612.0
18.60010 630.0
18.60210 592.0
18.60410 581.0
18.60610 565.0
18.60810 583.0
18.61010 591.0
18.61210 619.0
18.61410 612.0
18.61610 615.0
18.61810 598.0
18.62010 599.0
18.62210 575.0
18.62410 582.0
18.62610 547.0
18.62810 625.0
18.63010 598.0
18.63210 573.0
18.63410 592.0
18.63610 585.0
18.63810 542.0
18.64010 612.0
18.64210 594.0
18.64410 558.0
18.64610 559.0
18.64810 606.0
18.65010 596.0
18.65210 615.0
18.65410 601.0
18.65610 590.0
18.65810 571.0
18.66010 684.0
18.66210 635.0
18.66410 559.0
18.66610 637.0
18.66810 611.0
18.67010 609.0
18.67210 633.0
18.67410 566.0
18.67610 612.0
18.67810 665.0
18.68010 604.0
18.68210 529.0
18.68410 623.0
18.68610 628.0
18.68810 607.0
18.69010 608.0
18.69210 573.0
18.69410 619.0
18.69610 689.0
18.69810 597.0
18.70010 654.0
18.70210 630.0
18.70410 634.0
18.70610 625.0
18.70810 644.0
18.71010 633.0
18.71210 610.0
18.71410 619.0
18.71610 633.0
18.71810 655.0
18.72010 656.0
18.72210 625.0
18.72410 646.0
18.72610 568.0
18.72810 632.0
18.73010 639.0
18.73210 606.0
18.73410 632.0
18.73610 657.0
18.73810 631.0
18.74010 616.0
18.74210 662.0
18.74410 640.0
18.74610 617.0
18.74810 644.0
18.75010 644.0
18.75210 647.0
18.75410 613.0
18.75610 642.0
18.75810 679.0
18.76010 634.0
18.76210 643.0
18.76410 658.0
18.76610 656.0
18.76810 681.0
18.77010 691.0
18.77210 680.0
18.77410 684.0
18.77610 687.0
18.77810 632.0
18.78010 690.0
18.78210 686.0
18.78410 662.0
18.78610 697.0
18.78810 657.0
18.79010 647.0
18.79210 676.0
18.79410 708.0
18.79610 683.0
18.79810 686.0
18.80010 693.0
18.80210 702.0
18.80410 666.0
18.80610 662.0
18.80810 655.0
18.81010 718.0
18.81210 668.0
18.81410 672.0
18.81610 673.0
18.81810 676.0
18.82010 678.0
18.82210 685.0
18.82410 693.0
18.82610 678.0
18.82810 677.0
18.83010 719.0
18.83210 741.0
18.83410 726.0
18.83610 683.0
18.83810 720.0
18.84010 679.0
18.84210 677.0
18.84410 706.0
18.84610 752.0
18.84810 686.0
18.85010 725.0
18.85210 689.0
18.85410 775.0
18.85610 740.0
18.85810 684.0
18.86010 729.0
18.86210 700.0
18.86410 721.0
18.86610 773.0
18.86810 773.0
18.87010 708.0
18.87210 755.0
18.87410 736.0
18.87610 738.0
18.87810 748.0
18.88010 820.0
18.88210 785.0
18.88410 795.0
18.88610 814.0
18.88810 772.0
18.89010 793.0
18.89210 835.0
18.89410 803.0
18.89610 844.0
18.89810 784.0
18.90010 852.0
18.90210 822.0
18.90410 858.0
18.90610 839.0
18.90810 802.0
18.91010 844.0
18.91210 876.0
18.91410 851.0
18.91610 843.0
18.91810 856.0
18.92010 865.0
18.92210 903.0
18.92410 874.0
18.92610 881.0
18.92810 915.0
18.93010 919.0
18.93210 872.0
18.93410 951.0
18.93610 883.0
18.93810 890.0
18.94010 908.0
18.94210 919.0
18.94410 938.0
18.94610 906.0
18.94810 891.0
18.95010 918.0
18.95210 939.0
18.95410 979.0
18.95610 906.0
18.95810 1004.0
18.96010 946.0
18.96210 982.0
18.96410 966.0
18.96610 957.0
18.96810 1026.0
18.97010 935.0
18.97210 964.0
18.97410 928.0
18.97610 969.0
18.97810 988.0
18.98010 997.0
18.98210 960.0
18.98410 991.0
18.98610 987.0
18.98810 959.0
18.99010 1021.0
18.99210 1076.0
18.99410 998.0
18.99610 1060.0
18.99810 1018.0
19.00010 1003.0
19.00210 1085.0
19.00410 1019.0
19.00610 1067.0
19.00810 1070.0
19.01010 1053.0
19.01210 1071.0
19.01410 1048.0
19.01610 1079.0
19.01810 1122.0
19.02010 1054.0
19.02210 1090.0
19.02410 1108.0
19.02610 1131.0
19.02810 1142.0
19.03010 1121.0
19.03210 1047.0
19.03410 1217.0
19.03610 1132.0
19.03810 1167.0
19.04010 1140.0
19.04210 1138.0
19.04410 1136.0
19.04610 1136.0
19.04810 1097.0
19.05010 1198.0
19.05210 1223.0
19.05410 1199.0
19.05610 1147.0
19.05810 1201.0
19.06010 1208.0
19.06210 1153.0
19.06410 1248.0
19.06610 1220.0
19.06810 1219.0
19.07010 1227.0
19.07210 1172.0
19.07410 1258.0
19.07610 1281.0
19.07810 1321.0
19.08010 1305.0
19.08210 1227.0
19.08410 1203.0
19.08610 1246.0
19.08810 1222.0
19.09010 1264.0
19.09210 1374.0
19.09410 1331.0
19.09610 1320.0
19.09810 1278.0
19.10010 1298.0
19.10210 1368.0
19.10410 1297.0
19.10610 1317.0
19.10810 1420.0
19.11010 1384.0
19.11210 1347.0
19.11410 1366.0
19.11610 1469.0
19.11810 1384.0
19.12010 1419.0
19.12210 1440.0
19.12410 1471.0
19.12610 1490.0
19.12810 1513.0
19.13010 1463.0
19.13210 1523.0
19.13410 1499.0
19.13610 1510.0
19.13810 1466.0
19.14010 1536.0
19.14210 1524.0
19.14410 1510.0
19.14610 1571.0
19.14810 1582.0
19.15010 1600.0
19.15210 1638.0
19.15410 1677.0
19.15610 1656.0
19.15810 1627.0
19.16010 1610.0
19.16210 1679.0
19.16410 1661.0
19.16610 1661.0
19.16810 1651.0
19.17010 1698.0
19.17210 1729.0
19.17410 1764.0
19.17610 1685.0
19.17810 1783.0
19.18010 1747.0
19.18210 1752.0
19.18410 1757.0
19.18610 1840.0
19.18810 1814.0
19.19010 1786.0
19.19210 1814.0
19.19410 1815.0
19.19610 1883.0
19.19810 1869.0
19.20010 1914.0
19.20210 1929.0
19.20410 1985.0
19.20610 2036.0
19.20810 1927.0
19.21010 1982.0
19.21210 1988.0
19.21410 2042.0
19.21610 2040.0
19.21810 2105.0
19.22010 2059.0
19.22210 2170.0
19.22410 2205.0
19.22610 2195.0
19.22810 2145.0
19.23010 2203.0
19.23210 2208.0
19.23410 2274.0
19.23610 2246.0
19.23810 2330.0
19.24010 2301.0
19.24210 2359.0
19.24410 2272.0
19.24610 2392.0
19.24810 2412.0
19.25010 2500.0
19.25210 2477.0
19.25410 2495.0
19.25610 2607.0
19.25810 2412.0
19.26010 2575.0
19.26210 2534.0
19.26410 2501.0
19.26610 2554.0
19.26810 2642.0
19.27010 2596.0
19.27210 2703.0
19.27410 2651.0
19.27610 2865.0
19.27810 2804.0
19.28010 2719.0
19.28210 2928.0
19.28410 2853.0
19.28610 2853.0
19.28810 2859.0
19.29010 2970.0
19.29210 3025.0
19.29410 3036.0
19.29610 3109.0
19.29810 3189.0
19.30010 3207.0
19.30210 3260.0
19.30410 3285.0
19.30610 3363.0
19.30810 3362.0
19.31010 3479.0
19.31210 3329.0
19.31410 3432.0
19.31610 3530.0
19.31810 3516.0
19.32010 3447.0
19.32210 3686.0
19.32410 3680.0
19.32610 3666.0
19.32810 3798.0
19.33010 3878.0
19.33210 3788.0
19.33410 3926.0
19.33610 4006.0
19.33810 4053.0
19.34010 4047.0
19.34210 4087.0
19.34410 4282.0
19.34610 4239.0
19.34810 4359.0
19.35010 4372.0
19.35210 4499.0
19.35410 4601.0
19.35610 4689.0
19.35810 4613.0
19.36010 4739.0
19.36210 4732.0
19.36410 4845.0
19.36610 5003.0
19.36810 5118.0
19.37010 5201.0
19.37210 5225.0
19.37410 5501.0
19.37610 5468.0
19.37810 5552.0
19.38010 5642.0
19.38210 5801.0
19.38410 5939.0
19.38610 6134.0
19.38810 6209.0
19.39010 6326.0
19.39210 6440.0
19.39410 6622.0
19.39610 6733.0
19.39810 6733.0
19.40010 6974.0
19.40210 7062.0
19.40410 7242.0
19.40610 7438.0
19.40810 7611.0
19.41010 7751.0
19.41210 7982.0
19.41410 8103.0
19.41610 8284.0
19.41810 8788.0
19.42010 9001.0
19.42210 9191.0
19.42410 9404.0
19.42610 9744.0
19.42810 9896.0
19.43010 10159.0
19.43210 10351.0
19.43410 10593.0
19.43610 11169.0
19.43810 11411.0
19.44010 11604.0
19.44210 12002.0
19.44410 12246.0
19.44610 12385.0
19.44810 12735.0
19.45010 12863.0
19.45210 13449.0
19.45410 13629.0
19.45610 13892.0
19.45810 14307.0
19.46010 14353.0
19.46210 14892.0
19.46410 15056.0
19.46610 15394.0
19.46810 15632.0
19.47010 15789.0
19.47210 16089.0
19.47410 16335.0
19.47610 16627.0
19.47810 16351.0
19.48010 16697.0
19.48210 16968.0
19.48410 17038.0
19.48610 16869.0
19.48810 17000.0
19.49010 17437.0
19.49210 17139.0
19.49410 17119.0
19.49610 17228.0
19.49810 17120.0
19.50010 16999.0
19.50210 16950.0
19.50410 16740.0
19.50610 17079.0
19.50810 16796.0
19.51010 16516.0
19.51210 16787.0
19.51410 16595.0
19.51610 16715.0
19.51810 16333.0
19.52010 16319.0
19.52210 16311.0
19.52410 16090.0
19.52610 16023.0
19.52810 15693.0
19.53010 15520.0
19.53210 15499.0
19.53410 15229.0
19.53610 15199.0
19.53810 14899.0
19.54010 14958.0
19.54210 14949.0
19.54410 14527.0
19.54610 14245.0
19.54810 14150.0
19.55010 13558.0
19.55210 13482.0
19.55410 13225.0
19.55610 13072.0
19.55810 12856.0
19.56010 12797.0
19.56210 12507.0
19.56410 12015.0
19.56610 11944.0
19.56810 11729.0
19.57010 11703.0
19.57210 11169.0
19.57410 11152.0
19.57610 10895.0
19.57810 10842.0
19.58010 10593.0
19.58210 10500.0
19.58410 10215.0
19.58610 10243.0
19.58810 9942.0
19.59010 9789.0
19.59210 9501.0
19.59410 9413.0
19.59610 9328.0
19.59810 9096.0
19.60010 8797.0
19.60210 8625.0
19.60410 8600.0
19.60610 8250.0
19.60810 8461.0
19.61010 8030.0
19.61210 7922.0
19.61410 7824.0
19.61610 7691.0
19.61810 7409.0
19.62010 7296.0
19.62210 7353.0
19.62410 7334.0
19.62610 6910.0
19.62810 6852.0
19.63010 6899.0
19.63210 6533.0
19.63410 6471.0
19.63610 6255.0
19.63810 6302.0
19.64010 6052.0
19.64210 6112.0
19.64410 5913.0
19.64610 5964.0
19.64810 5724.0
19.65010 5700.0
19.65210 5623.0
19.65410 5478.0
19.65610 5447.0
19.65810 5285.0
19.66010 5164.0
19.66210 5208.0
19.66410 5060.0
19.66610 5113.0
19.66810 5100.0
19.67010 4852.0
19.67210 4756.0
19.67410 4615.0
19.67610 4608.0
19.67810 4504.0
19.68010 4530.0
19.68210 4320.0
19.68410 4320.0
19.68610 4196.0
19.68810 4151.0
19.69010 4161.0
19.69210 4015.0
19.69410 3982.0
19.69610 4018.0
19.69810 3809.0
19.70010 3785.0
19.70210 3828.0
19.70410 3728.0
19.70610 3665.0
19.70810 3610.0
19.71010 3618.0
19.71210 3534.0
19.71410 3577.0
19.71610 3377.0
19.71810 3364.0
19.72010 3299.0
19.72210 3332.0
19.72410 3289.0
19.72610 3105.0
19.72810 3193.0
19.73010 3025.0
19.73210 3070.0
19.73410 3025.0
19.73610 2958.0
19.73810 2951.0
19.74010 2852.0
19.74210 2836.0
19.74410 2735.0
19.74610 2763.0
19.74810 2762.0
19.75010 2781.0
19.75210 2644.0
19.75410 2611.0
19.75610 2538.0
19.75810 2493.0
19.76010 2438.0
19.76210 2473.0
19.76410 2523.0
19.76610 2486.0
19.76810 2450.0
19.77010 2378.0
19.77210 2351.0
19.77410 2337.0
19.77610 2296.0
19.77810 2265.0
19.78010 2339.0
19.78210 2225.0
19.78410 2230.0
19.78610 2204.0
19.78810 2138.0
19.79010 2127.0
19.79210 2105.0
19.79410 2115.0
19.79610 2065.0
19.79810 2104.0
19.80010 1946.0
19.80210 2011.0
19.80410 2029.0
19.80610 1971.0
19.80810 1922.0
19.81010 1824.0
19.81210 1891.0
19.81410 1853.0
19.81610 1881.0
19.81810 1941.0
19.82010 1926.0
19.82210 1895.0
19.82410 1741.0
19.82610 1778.0
19.82810 1832.0
19.83010 1779.0
19.83210 1751.0
19.83410 1681.0
19.83610 1628.0
19.83810 1716.0
19.84010 1634.0
19.84210 1650.0
19.84410 1590.0
19.84610 1622.0
19.84810 1608.0
19.85010 1620.0
19.85210 1534.0
19.85410 1491.0
19.85610 1560.0
19.85810 1488.0
19.86010 1435.0
19.86210 1561.0
19.86410 1541.0
19.86610 1546.0
19.86810 1467.0
19.87010 1475.0
19.87210 1518.0
19.87410 1479.0
19.87610 1340.0
19.87810 1470.0
19.88010 1400.0
19.88210 1457.0
19.88410 1386.0
19.88610 1339.0
19.88810 1345.0
19.89010 1346.0
19.89210 1333.0
19.89410 1309.0
19.89610 1353.0
19.89810 1252.0
19.90010 1315.0
19.90210 1300.0
19.90410 1271.0
19.90610 1265.0
19.90810 1243.0
19.91010 1267.0
19.91210 1190.0
19.91410 1227.0
19.91610 1200.0
19.91810 1245.0
19.92010 1147.0
19.92210 1236.0
19.92410 1179.0
19.92610 1197.0
19.92810 1105.0
19.93010 1149.0
19.93210 1163.0
19.93410 1116.0
19.93610 1074.0
19.93810 1137.0
19.94010 1109.0
19.94210 1153.0
19.94410 1100.0
19.94610 1095.0
19.94810 1035.0
19.95010 1089.0
19.95210 1128.0
19.95410 1078.0
19.95610 1077.0
19.95810 1053.0
19.96010 989.0
19.96210 1083.0
19.96410 1033.0
19.96610 1059.0
19.96810 1002.0
19.97010 1083.0
19.97210 1054.0
19.97410 976.0
19.97610 1037.0
19.97810 1044.0
19.98010 1023.0
19.98210 1024.0
19.98410 988.0
19.98610 944.0
19.98810 975.0
19.99010 958.0
19.99210 972.0
19.99410 1001.0
19.99610 956.0
19.99810 1018.0
20.00010 969.0
20.00210 917.0
20.00410 921.0
20.00610 903.0
20.00810 943.0
20.01010 952.0
20.01210 926.0
20.01410 905.0
20.01610 909.0
20.01810 886.0
20.02010 1006.0
20.02210 918.0
20.02410 951.0
20.02610 896.0
20.02810 860.0
20.03010 865.0
20.03210 900.0
20.03410 935.0
20.03610 839.0
20.03810 846.0
20.04010 889.0
20.04210 817.0
20.04410 882.0
20.04610 851.0
20.04810 866.0
20.05010 875.0
20.05210 838.0
20.05410 810.0
20.05610 901.0
20.05810 801.0
20.06010 898.0
20.06210 868.0
20.06410 817.0
20.06610 801.0
20.06810 847.0
20.07010 870.0
20.07210 829.0
20.07410 832.0
20.07610 792.0
20.07810 856.0
20.08010 802.0
20.08210 831.0
20.08410 792.0
20.08610 795.0
20.08810 845.0
20.09010 771.0
20.09210 813.0
20.09410 720.0
20.09610 793.0
20.09810 789.0
20.10010 807.0
20.10210 785.0
20.10410 738.0
20.10610 823.0
20.10810 752.0
20.11010 766.0
20.11210 815.0
20.11410 795.0
20.11610 764.0
20.11810 800.0
20.12010 773.0
20.12210 764.0
20.12410 710.0
20.12610 748.0
20.12810 812.0
20.13010 727.0
20.13210 750.0
20.13410 767.0
20.13610 705.0
20.13810 726.0
20.14010 711.0
20.14210 766.0
20.14410 752.0
20.14610 719.0
20.14810 679.0
20.15010 703.0
20.15210 686.0
20.15410 686.0
20.15610 723.0
20.15810 655.0
20.16010 669.0
20.16210 695.0
20.16410 662.0
20.16610 624.0
20.16810 676.0
20.17010 700.0
20.17210 669.0
20.17410 679.0
20.17610 664.0
20.17810 639.0
20.18010 664.0
20.18210 644.0
20.18410 609.0
20.18610 660.0
20.18810 629.0
20.19010 683.0
20.19210 678.0
20.19410 627.0
20.19610 635.0
20.19810 620.0
20.20010 646.0
20.20210 697.0
20.20410 624.0
20.20610 632.0
20.20810 630.0
20.21010 666.0
20.21210 676.0
20.21410 633.0
20.21610 611.0
20.21810 611.0
20.22010 641.0
20.22210 610.0
20.22410 632.0
20.22610 638.0
20.22810 618.0
20.23010 641.0
20.23210 567.0
20.23410 591.0
20.23610 624.0
20.23810 610.0
20.24010 616.0
20.24210 636.0
20.24410 602.0
20.24610 600.0
20.24810 620.0
20.25010 652.0
20.25210 614.0
20.25410 642.0
20.25610 613.0
20.25810 584.0
20.26010 642.0
20.26210 633.0
20.26410 567.0
20.26610 560.0
20.26810 576.0
20.27010 629.0
20.27210 607.0
20.27410 629.0
20.27610 624.0
20.27810 585.0
20.28010 590.0
20.28210 597.0
20.28410 642.0
20.28610 613.0
20.28810 572.0
20.29010 617.0
20.29210 614.0
20.29410 573.0
20.29610 595.0
20.29810 577.0
20.30010 591.0
20.30210 583.0
20.30410 583.0
20.30610 576.0
20.30810 534.0
20.31010 570.0
20.31210 560.0
20.31410 567.0
20.31610 616.0
20.31810 572.0
20.32010 561.0
20.32210 600.0
20.32410 609.0
20.32610 575.0
20.32810 545.0
20.33010 556.0
20.33210 555.0
20.33410 552.0
20.33610 599.0
20.33810 523.0
20.34010 576.0
20.34210 556.0
20.34410 527.0
20.34610 564.0
20.34810 583.0
20.35010 577.0
20.35210 620.0
20.35410 543.0
20.35610 516.0
20.35810 525.0
20.36010 558.0
20.36210 516.0
20.36410 538.0
20.36610 587.0
20.36810 583.0
20.37010 581.0
20.37210 540.0
20.37410 571.0
20.37610 516.0
20.37810 572.0
20.38010 581.0
20.38210 563.0
20.38410 530.0
20.38610 548.0
20.38810 599.0
20.39010 546.0
20.39210 561.0
20.39410 536.0
20.39610 551.0
20.39810 570.0
20.40010 501.0
20.40210 518.0
20.40410 525.0
20.40610 586.0
20.40810 560.0
20.41010 577.0
20.41210 579.0
20.41410 558.0
20.41610 517.0
20.41810 545.0
20.42010 585.0
20.42210 544.0
20.42410 532.0
20.42610 549.0
20.42810 484.0
20.43010 551.0
20.43210 500.0
20.43410 549.0
20.43610 538.0
20.43810 516.0
20.44010 552.0
20.44210 588.0
20.44410 532.0
20.44610 544.0
20.44810 551.0
20.45010 556.0
20.45210 510.0
20.45410 539.0
20.45610 507.0
20.45810 508.0
20.46010 536.0
20.46210 538.0
20.46410 486.0
20.46610 534.0
20.46810 511.0
20.47010 511.0
20.47210 511.0
20.47410 531.0
20.47610 488.0
20.47810 486.0
20.48010 536.0
20.48210 528.0
20.48410 542.0
20.48610 534.0
20.48810 526.0
20.49010 515.0
20.49210 526.0