File: data/W6778r/XRD_2ThetaOmega/W6778r_absolute_2th-om_10-130deg_PIXscan_17min_7.xy
10.0035 19.0
10.0872 34.0
10.1709 29.0
10.2546 34.0
10.3383 28.0
10.422 27.0
10.5057 28.0
10.5894 29.0
10.6731 21.0
10.7568 25.0
10.8405 20.0
10.9242 22.0
11.0079 21.0
11.0916 24.0
11.1753 27.0
11.259 29.0
11.3428 22.0
11.4265 30.0
11.5102 21.0
11.5939 47.0
11.6776 24.0
11.7613 20.0
11.845 26.0
11.9287 30.0
12.0124 37.0
12.0961 27.0
12.1798 21.0
12.2635 18.0
12.3472 29.0
12.4309 29.0
12.5146 23.0
12.5983 26.0
12.682 26.0
12.7657 22.0
12.8495 33.0
12.9332 27.0
13.0169 16.0
13.1006 21.0
13.1843 23.0
13.268 27.0
13.3517 23.0
13.4354 23.0
13.5191 22.0
13.6028 18.0
13.6865 27.0
13.7702 27.0
13.8539 20.0
13.9376 16.0
14.0213 16.0
14.105 23.0
14.1887 15.0
14.2724 20.0
14.3562 27.0
14.4399 23.0
14.5236 23.0
14.6073 23.0
14.691 20.0
14.7747 18.0
14.8584 25.0
14.9421 22.0
15.0258 21.0
15.1095 20.0
15.1932 22.0
15.2769 22.0
15.3606 28.0
15.4443 23.0
15.528 22.0
15.6117 23.0
15.6954 23.0
15.7791 18.0
15.8629 19.0
15.9466 17.0
16.0303 20.0
16.114 24.0
16.1977 18.0
16.2814 22.0
16.3651 26.0
16.4488 21.0
16.5325 20.0
16.6162 27.0
16.6999 24.0
16.7836 17.0
16.8673 32.0
16.951 17.0
17.0347 23.0
17.1184 30.0
17.2021 20.0
17.2858 27.0
17.3696 13.0
17.4533 17.0
17.537 16.0
17.6207 20.0
17.7044 19.0
17.7881 15.0
17.8718 16.0
17.9555 24.0
18.0392 22.0
18.1229 23.0
18.2066 23.0
18.2903 20.0
18.374 19.0
18.4577 14.0
18.5414 16.0
18.6251 26.0
18.7088 23.0
18.7925 19.0
18.8763 22.0
18.96 17.0
19.0437 26.0
19.1274 22.0
19.2111 16.0
19.2948 21.0
19.3785 25.0
19.4622 17.0
19.5459 23.0
19.6296 30.0
19.7133 18.0
19.797 21.0
19.8807 16.0
19.9644 17.0
20.0481 15.0
20.1318 18.0
20.2155 25.0
20.2992 23.0
20.383 20.0
20.4667 18.0
20.5504 12.0
20.6341 25.0
20.7178 20.0
20.8015 21.0
20.8852 23.0
20.9689 12.0
21.0526 27.0
21.1363 24.0
21.22 23.0
21.3037 26.0
21.3874 14.0
21.4711 21.0
21.5548 18.0
21.6385 15.0
21.7222 11.0
21.8059 17.0
21.8897 32.0
21.9734 27.0
22.0571 19.0
22.1408 15.0
22.2245 17.0
22.3082 20.0
22.3919 13.0
22.4756 19.0
22.5593 20.0
22.643 19.0
22.7267 17.0
22.8104 16.0
22.8941 13.0
22.9778 29.0
23.0615 56.0
23.1452 24.0
23.2289 40.0
23.3126 45.0
23.3964 40.0
23.4801 47.0
23.5638 39.0
23.6475 43.0
23.7312 43.0
23.8149 65.0
23.8986 88.0
23.9823 114.0
24.066 190.0
24.1497 426.0
24.2334 2280.0
24.3171 4189.0
24.4008 2057.0
24.4845 1107.0
24.5682 490.0
24.6519 349.0
24.7356 206.0
24.8193 113.0
24.9031 128.0
24.9868 106.0
25.0705 118.0
25.1542 124.0
25.2379 153.0
25.3216 204.0
25.4053 833.0
25.489 13222.0
25.5727 24118.0
25.6564 988.0
25.7401 357.0
25.8238 290.0
25.9075 162.0
25.9912 116.0
26.0749 75.0
26.1586 60.0
26.2423 50.0
26.326 40.0
26.4098 48.0
26.4935 23.0
26.5772 28.0
26.6609 38.0
26.7446 23.0
26.8283 35.0
26.912 17.0
26.9957 19.0
27.0794 17.0
27.1631 17.0
27.2468 20.0
27.3305 10.0
27.4142 19.0
27.4979 26.0
27.5816 20.0
27.6653 19.0
27.749 19.0
27.8327 19.0
27.9165 20.0
28.0002 20.0
28.0839 14.0
28.1676 24.0
28.2513 18.0
28.335 11.0
28.4187 15.0
28.5024 7.0
28.5861 22.0
28.6698 13.0
28.7535 19.0
28.8372 9.0
28.9209 20.0
29.0046 22.0
29.0883 16.0
29.172 18.0
29.2557 16.0
29.3394 12.0
29.4232 14.0
29.5069 15.0
29.5906 15.0
29.6743 11.0
29.758 12.0
29.8417 12.0
29.9254 16.0
30.0091 15.0
30.0928 8.0
30.1765 13.0
30.2602 13.0
30.3439 13.0
30.4276 12.0
30.5113 13.0
30.595 17.0
30.6787 13.0
30.7624 12.0
30.8461 18.0
30.9298 13.0
31.0136 10.0
31.0973 17.0
31.181 14.0
31.2647 14.0
31.3484 16.0
31.4321 9.0
31.5158 12.0
31.5995 20.0
31.6832 6.0
31.7669 15.0
31.8506 15.0
31.9343 10.0
32.018 9.0
32.1017 11.0
32.1854 16.0
32.2691 15.0
32.3528 11.0
32.4365 13.0
32.5203 12.0
32.604 18.0
32.6877 13.0
32.7714 13.0
32.8551 27.0
32.9388 8.0
33.0225 11.0
33.1062 14.0
33.1899 11.0
33.2736 11.0
33.3573 14.0
33.441 13.0
33.5247 21.0
33.6084 19.0
33.6921 19.0
33.7758 18.0
33.8595 19.0
33.9432 12.0
34.027 13.0
34.1107 14.0
34.1944 16.0
34.2781 6.0
34.3618 6.0
34.4455 18.0
34.5292 12.0
34.6129 11.0
34.6966 14.0
34.7803 16.0
34.864 21.0
34.9477 12.0
35.0314 12.0
35.1151 22.0
35.1988 5.0
35.2825 15.0
35.3662 12.0
35.4499 11.0
35.5337 16.0
35.6174 16.0
35.7011 16.0
35.7848 11.0
35.8685 13.0
35.9522 13.0
36.0359 11.0
36.1196 13.0
36.2033 15.0
36.287 19.0
36.3707 9.0
36.4544 13.0
36.5381 9.0
36.6218 13.0
36.7055 16.0
36.7892 15.0
36.8729 9.0
36.9566 18.0
37.0404 14.0
37.1241 11.0
37.2078 20.0
37.2915 7.0
37.3752 12.0
37.4589 15.0
37.5426 16.0
37.6263 8.0
37.71 12.0
37.7937 14.0
37.8774 14.0
37.9611 17.0
38.0448 15.0
38.1285 12.0
38.2122 12.0
38.2959 17.0
38.3796 18.0
38.4633 13.0
38.5471 13.0
38.6308 11.0
38.7145 10.0
38.7982 13.0
38.8819 15.0
38.9656 14.0
39.0493 15.0
39.133 15.0
39.2167 9.0
39.3004 16.0
39.3841 11.0
39.4678 14.0
39.5515 14.0
39.6352 16.0
39.7189 17.0
39.8026 15.0
39.8863 19.0
39.97 10.0
40.0538 11.0
40.1375 11.0
40.2212 19.0
40.3049 22.0
40.3886 25.0
40.4723 10.0
40.556 19.0
40.6397 12.0
40.7234 12.0
40.8071 15.0
40.8908 13.0
40.9745 10.0
41.0582 13.0
41.1419 9.0
41.2256 13.0
41.3093 17.0
41.393 13.0
41.4767 11.0
41.5605 7.0
41.6442 17.0
41.7279 14.0
41.8116 12.0
41.8953 9.0
41.979 12.0
42.0627 11.0
42.1464 15.0
42.2301 12.0
42.3138 10.0
42.3975 16.0
42.4812 10.0
42.5649 18.0
42.6486 13.0
42.7323 24.0
42.816 14.0
42.8997 15.0
42.9834 10.0
43.0672 19.0
43.1509 22.0
43.2346 11.0
43.3183 15.0
43.402 8.0
43.4857 12.0
43.5694 13.0
43.6531 17.0
43.7368 18.0
43.8205 12.0
43.9042 7.0
43.9879 14.0
44.0716 19.0
44.1553 28.0
44.239 26.0
44.3227 35.0
44.4064 35.0
44.4901 40.0
44.5739 31.0
44.6576 25.0
44.7413 19.0
44.825 22.0
44.9087 15.0
44.9924 10.0
45.0761 17.0
45.1598 17.0
45.2435 17.0
45.3272 20.0
45.4109 9.0
45.4946 18.0
45.5783 25.0
45.662 12.0
45.7457 14.0
45.8294 23.0
45.9131 14.0
45.9968 17.0
46.0806 18.0
46.1643 15.0
46.248 10.0
46.3317 16.0
46.4154 11.0
46.4991 23.0
46.5828 18.0
46.6665 24.0
46.7502 12.0
46.8339 17.0
46.9176 23.0
47.0013 7.0
47.085 93.0
47.1687 56.0
47.2524 28.0
47.3361 22.0
47.4198 14.0
47.5035 23.0
47.5873 18.0
47.671 21.0
47.7547 24.0
47.8384 22.0
47.9221 21.0
48.0058 23.0
48.0895 18.0
48.1732 16.0
48.2569 22.0
48.3406 15.0
48.4243 13.0
48.508 22.0
48.5917 14.0
48.6754 24.0
48.7591 19.0
48.8428 20.0
48.9265 19.0
49.0102 23.0
49.094 17.0
49.1777 42.0
49.2614 49.0
49.3451 55.0
49.4288 70.0
49.5125 98.0
49.5962 108.0
49.6799 286.0
49.7636 714.0
49.8473 1075.0
49.931 1186.0
50.0147 955.0
50.0984 688.0
50.1821 684.0
50.2658 241.0
50.3495 141.0
50.4332 98.0
50.5169 96.0
50.6007 79.0
50.6844 55.0
50.7681 48.0
50.8518 30.0
50.9355 35.0
51.0192 44.0
51.1029 30.0
51.1866 37.0
51.2703 35.0
51.354 43.0
51.4377 48.0
51.5214 44.0
51.6051 58.0
51.6888 59.0
51.7725 58.0
51.8562 83.0
51.9399 77.0
52.0236 88.0
52.1074 140.0
52.1911 215.0
52.2748 501.0
52.3585 651.0
52.4422 3512.0
52.5259 31138.0
52.6096 10486.0
52.6933 3530.0
52.777 587.0
52.8607 325.0
52.9444 190.0
53.0281 127.0
53.1118 114.0
53.1955 103.0
53.2792 78.0
53.3629 78.0
53.4466 71.0
53.5303 58.0
53.6141 42.0
53.6978 40.0
53.7815 39.0
53.8652 40.0
53.9489 34.0
54.0326 29.0
54.1163 23.0
54.2 22.0
54.2837 16.0
54.3674 15.0
54.4511 13.0
54.5348 26.0
54.6185 20.0
54.7022 19.0
54.7859 19.0
54.8696 20.0
54.9533 20.0
55.037 21.0
55.1208 16.0
55.2045 15.0
55.2882 19.0
55.3719 20.0
55.4556 15.0
55.5393 16.0
55.623 14.0
55.7067 21.0
55.7904 17.0
55.8741 10.0
55.9578 14.0
56.0415 10.0
56.1252 15.0
56.2089 15.0
56.2926 19.0
56.3763 18.0
56.46 19.0
56.5437 25.0
56.6275 18.0
56.7112 17.0
56.7949 15.0
56.8786 17.0
56.9623 10.0
57.046 23.0
57.1297 17.0
57.2134 10.0
57.2971 15.0
57.3808 16.0
57.4645 14.0
57.5482 15.0
57.6319 24.0
57.7156 18.0
57.7993 12.0
57.883 12.0
57.9667 13.0
58.0504 14.0
58.1342 15.0
58.2179 14.0
58.3016 17.0
58.3853 16.0
58.469 12.0
58.5527 17.0
58.6364 13.0
58.7201 7.0
58.8038 8.0
58.8875 12.0
58.9712 12.0
59.0549 25.0
59.1386 16.0
59.2223 22.0
59.306 11.0
59.3897 16.0
59.4734 20.0
59.5571 16.0
59.6409 12.0
59.7246 15.0
59.8083 12.0
59.892 26.0
59.9757 8.0
60.0594 12.0
60.1431 18.0
60.2268 16.0
60.3105 20.0
60.3942 17.0
60.4779 11.0
60.5616 14.0
60.6453 20.0
60.729 14.0
60.8127 18.0
60.8964 14.0
60.9801 14.0
61.0638 13.0
61.1476 12.0
61.2313 14.0
61.315 11.0
61.3987 14.0
61.4824 15.0
61.5661 15.0
61.6498 16.0
61.7335 16.0
61.8172 21.0
61.9009 9.0
61.9846 15.0
62.0683 9.0
62.152 5.0
62.2357 17.0
62.3194 9.0
62.4031 13.0
62.4868 12.0
62.5705 15.0
62.6543 10.0
62.738 11.0
62.8217 11.0
62.9054 12.0
62.9891 11.0
63.0728 14.0
63.1565 13.0
63.2402 16.0
63.3239 17.0
63.4076 17.0
63.4913 11.0
63.575 20.0
63.6587 20.0
63.7424 7.0
63.8261 11.0
63.9098 18.0
63.9935 10.0
64.0772 12.0
64.161 14.0
64.2447 14.0
64.3284 19.0
64.4121 11.0
64.4958 14.0
64.5795 12.0
64.6632 12.0
64.7469 16.0
64.8306 12.0
64.9143 14.0
64.998 8.0
65.0817 19.0
65.1654 19.0
65.2491 27.0
65.3328 11.0
65.4165 15.0
65.5002 15.0
65.5839 11.0
65.6677 15.0
65.7514 15.0
65.8351 17.0
65.9188 25.0
66.0025 15.0
66.0862 13.0
66.1699 18.0
66.2536 7.0
66.3373 17.0
66.421 16.0
66.5047 9.0
66.5884 21.0
66.6721 16.0
66.7558 23.0
66.8395 14.0
66.9232 13.0
67.0069 20.0
67.0906 20.0
67.1744 14.0
67.2581 7.0
67.3418 19.0
67.4255 15.0
67.5092 17.0
67.5929 9.0
67.6766 15.0
67.7603 19.0
67.844 13.0
67.9277 21.0
68.0114 11.0
68.0951 11.0
68.1788 15.0
68.2625 18.0
68.3462 15.0
68.4299 12.0
68.5136 15.0
68.5973 10.0
68.6811 13.0
68.7648 12.0
68.8485 15.0
68.9322 18.0
69.0159 18.0
69.0996 9.0
69.1833 17.0
69.267 19.0
69.3507 14.0
69.4344 18.0
69.5181 15.0
69.6018 12.0
69.6855 10.0
69.7692 13.0
69.8529 20.0
69.9366 13.0
70.0203 15.0
70.104 21.0
70.1878 13.0
70.2715 15.0
70.3552 20.0
70.4389 14.0
70.5226 11.0
70.6063 8.0
70.69 9.0
70.7737 11.0
70.8574 13.0
70.9411 11.0
71.0248 16.0
71.1085 13.0
71.1922 9.0
71.2759 18.0
71.3596 14.0
71.4433 13.0
71.527 9.0
71.6107 9.0
71.6945 14.0
71.7782 10.0
71.8619 13.0
71.9456 13.0
72.0293 11.0
72.113 17.0
72.1967 16.0
72.2804 7.0
72.3641 11.0
72.4478 15.0
72.5315 22.0
72.6152 13.0
72.6989 14.0
72.7826 10.0
72.8663 18.0
72.95 15.0
73.0337 19.0
73.1174 11.0
73.2012 17.0
73.2849 19.0
73.3686 8.0
73.4523 16.0
73.536 17.0
73.6197 15.0
73.7034 15.0
73.7871 19.0
73.8708 5.0
73.9545 13.0
74.0382 17.0
74.1219 14.0
74.2056 18.0
74.2893 15.0
74.373 19.0
74.4567 21.0
74.5404 10.0
74.6241 11.0
74.7079 17.0
74.7916 14.0
74.8753 12.0
74.959 10.0
75.0427 19.0
75.1264 11.0
75.2101 15.0
75.2938 17.0
75.3775 12.0
75.4612 11.0
75.5449 16.0
75.6286 16.0
75.7123 17.0
75.796 18.0
75.8797 16.0
75.9634 15.0
76.0471 19.0
76.1308 13.0
76.2146 13.0
76.2983 10.0
76.382 8.0
76.4657 12.0
76.5494 12.0
76.6331 10.0
76.7168 16.0
76.8005 15.0
76.8842 13.0
76.9679 15.0
77.0516 24.0
77.1353 12.0
77.219 15.0
77.3027 17.0
77.3864 14.0
77.4701 15.0
77.5538 20.0
77.6375 17.0
77.7213 15.0
77.805 12.0
77.8887 10.0
77.9724 9.0
78.0561 19.0
78.1398 22.0
78.2235 26.0
78.3072 33.0
78.3909 45.0
78.4746 55.0
78.5583 47.0
78.642 59.0
78.7257 57.0
78.8094 50.0
78.8931 38.0
78.9768 51.0
79.0605 38.0
79.1442 20.0
79.228 18.0
79.3117 15.0
79.3954 17.0
79.4791 26.0
79.5628 16.0
79.6465 11.0
79.7302 23.0
79.8139 16.0
79.8976 13.0
79.9813 20.0
80.065 20.0
80.1487 12.0
80.2324 22.0
80.3161 11.0
80.3998 16.0
80.4835 11.0
80.5672 20.0
80.6509 17.0
80.7347 19.0
80.8184 15.0
80.9021 15.0
80.9858 22.0
81.0695 11.0
81.1532 23.0
81.2369 15.0
81.3206 22.0
81.4043 17.0
81.488 13.0
81.5717 17.0
81.6554 14.0
81.7391 20.0
81.8228 21.0
81.9065 13.0
81.9902 19.0
82.0739 23.0
82.1576 25.0
82.2414 20.0
82.3251 23.0
82.4088 25.0
82.4925 20.0
82.5762 23.0
82.6599 25.0
82.7436 31.0
82.8273 27.0
82.911 43.0
82.9947 54.0
83.0784 103.0
83.1621 2002.0
83.2458 287.0
83.3295 99.0
83.4132 970.0
83.4969 156.0
83.5806 46.0
83.6643 29.0
83.7481 33.0
83.8318 20.0
83.9155 12.0
83.9992 29.0
84.0829 11.0
84.1666 22.0
84.2503 12.0
84.334 9.0
84.4177 19.0
84.5014 18.0
84.5851 23.0
84.6688 24.0
84.7525 20.0
84.8362 15.0
84.9199 14.0
85.0036 15.0
85.0873 19.0
85.171 15.0
85.2548 18.0
85.3385 9.0
85.4222 23.0
85.5059 9.0
85.5896 14.0
85.6733 13.0
85.757 6.0
85.8407 19.0
85.9244 19.0
86.0081 14.0
86.0918 9.0
86.1755 5.0
86.2592 17.0
86.3429 13.0
86.4266 14.0
86.5103 11.0
86.594 17.0
86.6777 10.0
86.7615 14.0
86.8452 16.0
86.9289 12.0
87.0126 12.0
87.0963 17.0
87.18 12.0
87.2637 7.0
87.3474 11.0
87.4311 9.0
87.5148 15.0
87.5985 20.0
87.6822 13.0
87.7659 8.0
87.8496 10.0
87.9333 13.0
88.017 8.0
88.1007 15.0
88.1844 4.0
88.2682 12.0
88.3519 13.0
88.4356 12.0
88.5193 18.0
88.603 8.0
88.6867 14.0
88.7704 12.0
88.8541 16.0
88.9378 14.0
89.0215 17.0
89.1052 11.0
89.1889 14.0
89.2726 14.0
89.3563 17.0
89.44 12.0
89.5237 23.0
89.6074 18.0
89.6911 17.0
89.7749 13.0
89.8586 21.0
89.9423 8.0
90.026 9.0
90.1097 16.0
90.1934 14.0
90.2771 18.0
90.3608 13.0
90.4445 15.0
90.5282 8.0
90.6119 12.0
90.6956 7.0
90.7793 12.0
90.863 15.0
90.9467 10.0
91.0304 16.0
91.1141 12.0
91.1978 15.0
91.2816 16.0
91.3653 16.0
91.449 14.0
91.5327 11.0
91.6164 13.0
91.7001 19.0
91.7838 25.0
91.8675 12.0
91.9512 9.0
92.0349 12.0
92.1186 12.0
92.2023 16.0
92.286 19.0
92.3697 13.0
92.4534 17.0
92.5371 12.0
92.6208 10.0
92.7045 19.0
92.7883 13.0
92.872 16.0
92.9557 15.0
93.0394 12.0
93.1231 10.0
93.2068 9.0
93.2905 11.0
93.3742 15.0
93.4579 14.0
93.5416 16.0
93.6253 7.0
93.709 10.0
93.7927 13.0
93.8764 9.0
93.9601 11.0
94.0438 15.0
94.1275 17.0
94.2112 14.0
94.295 17.0
94.3787 16.0
94.4624 15.0
94.5461 15.0
94.6298 11.0
94.7135 11.0
94.7972 15.0
94.8809 16.0
94.9646 13.0
95.0483 23.0
95.132 16.0
95.2157 11.0
95.2994 17.0
95.3831 11.0
95.4668 12.0
95.5505 11.0
95.6342 11.0
95.7179 11.0
95.8017 19.0
95.8854 15.0
95.9691 11.0
96.0528 13.0
96.1365 11.0
96.2202 12.0
96.3039 13.0
96.3876 14.0
96.4713 22.0
96.555 10.0
96.6387 19.0
96.7224 17.0
96.8061 16.0
96.8898 20.0
96.9735 16.0
97.0572 14.0
97.1409 12.0
97.2246 8.0
97.3084 10.0
97.3921 20.0
97.4758 16.0
97.5595 10.0
97.6432 8.0
97.7269 13.0
97.8106 14.0
97.8943 15.0
97.978 15.0
98.0617 16.0
98.1454 10.0
98.2291 15.0
98.3128 9.0
98.3965 22.0
98.4802 19.0
98.5639 15.0
98.6476 11.0
98.7313 21.0
98.8151 17.0
98.8988 14.0
98.9825 12.0
99.0662 13.0
99.1499 14.0
99.2336 13.0
99.3173 13.0
99.401 24.0
99.4847 20.0
99.5684 13.0
99.6521 14.0
99.7358 14.0
99.8195 10.0
99.9032 18.0
99.9869 15.0
100.071 9.0
100.154 16.0
100.238 15.0
100.322 11.0
100.405 16.0
100.489 14.0
100.573 14.0
100.657 10.0
100.74 13.0
100.824 11.0
100.908 13.0
100.991 14.0
101.075 14.0
101.159 7.0
101.243 8.0
101.326 12.0
101.41 7.0
101.494 5.0
101.577 16.0
101.661 15.0
101.745 17.0
101.828 14.0
101.912 8.0
101.996 15.0
102.08 17.0
102.163 12.0
102.247 11.0
102.331 13.0
102.414 19.0
102.498 16.0
102.582 15.0
102.666 11.0
102.749 21.0
102.833 16.0
102.917 14.0
103 10.0
103.084 12.0
103.168 19.0
103.251 18.0
103.335 13.0
103.419 9.0
103.503 10.0
103.586 8.0
103.67 17.0
103.754 11.0
103.837 8.0
103.921 14.0
104.005 12.0
104.089 15.0
104.172 18.0
104.256 18.0
104.34 15.0
104.423 23.0
104.507 18.0
104.591 17.0
104.674 11.0
104.758 16.0
104.842 16.0
104.926 18.0
105.009 15.0
105.093 18.0
105.177 15.0
105.26 15.0
105.344 9.0
105.428 13.0
105.511 10.0
105.595 17.0
105.679 24.0
105.763 11.0
105.846 17.0
105.93 14.0
106.014 13.0
106.097 21.0
106.181 20.0
106.265 38.0
106.349 21.0
106.432 9.0
106.516 17.0
106.6 21.0
106.683 15.0
106.767 15.0
106.851 17.0
106.934 18.0
107.018 15.0
107.102 15.0
107.186 14.0
107.269 20.0
107.353 9.0
107.437 14.0
107.52 14.0
107.604 7.0
107.688 14.0
107.772 12.0
107.855 17.0
107.939 8.0
108.023 11.0
108.106 19.0
108.19 15.0
108.274 13.0
108.357 11.0
108.441 15.0
108.525 12.0
108.609 16.0
108.692 12.0
108.776 14.0
108.86 17.0
108.943 15.0
109.027 13.0
109.111 16.0
109.195 12.0
109.278 13.0
109.362 12.0
109.446 14.0
109.529 18.0
109.613 19.0
109.697 15.0
109.78 15.0
109.864 12.0
109.948 12.0
110.032 8.0
110.115 12.0
110.199 9.0
110.283 10.0
110.366 20.0
110.45 14.0
110.534 16.0
110.618 11.0
110.701 15.0
110.785 13.0
110.869 15.0
110.952 12.0
111.036 13.0
111.12 12.0
111.203 24.0
111.287 9.0
111.371 10.0
111.455 19.0
111.538 15.0
111.622 17.0
111.706 11.0
111.789 19.0
111.873 14.0
111.957 17.0
112.041 16.0
112.124 11.0
112.208 18.0
112.292 22.0
112.375 13.0
112.459 12.0
112.543 16.0
112.626 20.0
112.71 17.0
112.794 13.0
112.878 13.0
112.961 14.0
113.045 21.0
113.129 13.0
113.212 8.0
113.296 17.0
113.38 20.0
113.464 7.0
113.547 12.0
113.631 23.0
113.715 17.0
113.798 13.0
113.882 14.0
113.966 14.0
114.049 14.0
114.133 16.0
114.217 20.0
114.301 15.0
114.384 14.0
114.468 7.0
114.552 16.0
114.635 17.0
114.719 25.0
114.803 18.0
114.887 13.0
114.97 24.0
115.054 13.0
115.138 22.0
115.221 13.0
115.305 18.0
115.389 22.0
115.472 15.0
115.556 20.0
115.64 19.0
115.724 17.0
115.807 21.0
115.891 26.0
115.975 34.0
116.058 49.0
116.142 45.0
116.226 24.0
116.31 20.0
116.393 19.0
116.477 15.0
116.561 13.0
116.644 13.0
116.728 16.0
116.812 20.0
116.895 22.0
116.979 25.0
117.063 15.0
117.147 19.0
117.23 22.0
117.314 14.0
117.398 23.0
117.481 25.0
117.565 24.0
117.649 19.0
117.733 15.0
117.816 14.0
117.9 10.0
117.984 10.0
118.067 21.0
118.151 15.0
118.235 12.0
118.318 20.0
118.402 21.0
118.486 18.0
118.57 20.0
118.653 14.0
118.737 17.0
118.821 11.0
118.904 22.0
118.988 20.0
119.072 19.0
119.156 19.0
119.239 20.0
119.323 14.0
119.407 20.0
119.49 14.0
119.574 13.0
119.658 11.0
119.741 16.0
119.825 24.0
119.909 16.0
119.993 22.0
120.076 25.0
120.16 18.0
120.244 16.0
120.327 13.0
120.411 13.0
120.495 11.0
120.578 10.0
120.662 17.0
120.746 17.0
120.83 14.0
120.913 21.0
120.997 21.0
121.081 17.0
121.164 22.0
121.248 22.0
121.332 24.0
121.416 15.0
121.499 19.0
121.583 13.0
121.667 21.0
121.75 28.0
121.834 11.0
121.918 19.0
122.001 21.0
122.085 20.0
122.169 42.0
122.253 20.0
122.336 20.0
122.42 24.0
122.504 20.0
122.587 29.0
122.671 24.0
122.755 15.0
122.839 26.0
122.922 10.0
123.006 24.0
123.09 25.0
123.173 38.0
123.257 33.0
123.341 33.0
123.424 31.0
123.508 35.0
123.592 59.0
123.676 65.0
123.759 60.0
123.843 54.0
123.927 54.0
124.01 52.0
124.094 61.0
124.178 96.0
124.262 154.0
124.345 262.0
124.429 537.0
124.513 2191.0
124.596 8533.0
124.68 1932.0
124.764 567.0
124.847 326.0
124.931 310.0
125.015 634.0
125.099 3219.0
125.182 2454.0
125.266 567.0
125.35 193.0
125.433 122.0
125.517 85.0
125.601 73.0
125.685 53.0
125.768 41.0
125.852 38.0
125.936 50.0
126.019 45.0
126.103 39.0
126.187 35.0
126.27 34.0
126.354 40.0
126.438 28.0
126.522 30.0
126.605 35.0
126.689 34.0
126.773 23.0
126.856 22.0
126.94 29.0
127.024 23.0
127.108 23.0
127.191 23.0
127.275 34.0
127.359 29.0
127.442 31.0
127.526 28.0
127.61 34.0
127.693 12.0
127.777 25.0
127.861 24.0
127.945 20.0
128.028 14.0
128.112 22.0
128.196 21.0
128.279 17.0
128.363 24.0
128.447 21.0
128.531 18.0
128.614 19.0
128.698 20.0
128.782 20.0
128.865 26.0
128.949 18.0
129.033 27.0
129.116 17.0
129.2 20.0
129.284 16.0
129.368 21.0
129.451 13.0
129.535 15.0
129.619 18.0
129.702 14.0
129.786 20.0
129.87 16.0
129.954 26.0
129.998 19.0