File: data/W6933r/XRD_Omega/film_r_scan_omega_4deg_step_0.005deg0.xy
22.87830 68.0
22.88330 83.0
22.88830 77.0
22.89330 79.0
22.89830 76.0
22.90330 52.0
22.90830 77.0
22.91330 76.0
22.91830 69.0
22.92330 94.0
22.92830 64.0
22.93330 83.0
22.93830 60.0
22.94330 73.0
22.94830 80.0
22.95330 71.0
22.95830 87.0
22.96330 71.0
22.96830 106.0
22.97330 79.0
22.97830 74.0
22.98330 72.0
22.98830 75.0
22.99330 82.0
22.99830 69.0
23.00330 78.0
23.00830 73.0
23.01330 82.0
23.01830 68.0
23.02330 94.0
23.02830 75.0
23.03330 83.0
23.03830 87.0
23.04330 81.0
23.04830 74.0
23.05330 73.0
23.05830 77.0
23.06330 95.0
23.06830 84.0
23.07330 77.0
23.07830 85.0
23.08330 88.0
23.08830 68.0
23.09330 82.0
23.09830 71.0
23.10330 78.0
23.10830 65.0
23.11330 87.0
23.11830 90.0
23.12330 94.0
23.12830 91.0
23.13330 84.0
23.13830 85.0
23.14330 84.0
23.14830 88.0
23.15330 101.0
23.15830 81.0
23.16330 70.0
23.16830 94.0
23.17330 84.0
23.17830 110.0
23.18330 96.0
23.18830 79.0
23.19330 82.0
23.19830 79.0
23.20330 107.0
23.20830 104.0
23.21330 100.0
23.21830 84.0
23.22330 93.0
23.22830 93.0
23.23330 77.0
23.23830 74.0
23.24330 88.0
23.24830 94.0
23.25330 104.0
23.25830 95.0
23.26330 97.0
23.26830 98.0
23.27330 103.0
23.27830 74.0
23.28330 100.0
23.28830 78.0
23.29330 101.0
23.29830 97.0
23.30330 74.0
23.30830 107.0
23.31330 85.0
23.31830 98.0
23.32330 107.0
23.32830 109.0
23.33330 96.0
23.33830 111.0
23.34330 104.0
23.34830 101.0
23.35330 111.0
23.35830 105.0
23.36330 94.0
23.36830 87.0
23.37330 102.0
23.37830 109.0
23.38330 111.0
23.38830 103.0
23.39330 110.0
23.39830 113.0
23.40330 100.0
23.40830 106.0
23.41330 118.0
23.41830 118.0
23.42330 106.0
23.42830 77.0
23.43330 87.0
23.43830 109.0
23.44330 112.0
23.44830 110.0
23.45330 106.0
23.45830 95.0
23.46330 107.0
23.46830 142.0
23.47330 124.0
23.47830 122.0
23.48330 119.0
23.48830 126.0
23.49330 119.0
23.49830 106.0
23.50330 115.0
23.50830 131.0
23.51330 128.0
23.51830 110.0
23.52330 133.0
23.52830 135.0
23.53330 126.0
23.53830 145.0
23.54330 113.0
23.54830 141.0
23.55330 142.0
23.55830 130.0
23.56330 131.0
23.56830 135.0
23.57330 132.0
23.57830 108.0
23.58330 143.0
23.58830 133.0
23.59330 118.0
23.59830 136.0
23.60330 136.0
23.60830 133.0
23.61330 130.0
23.61830 177.0
23.62330 125.0
23.62830 145.0
23.63330 140.0
23.63830 148.0
23.64330 159.0
23.64830 146.0
23.65330 154.0
23.65830 135.0
23.66330 145.0
23.66830 148.0
23.67330 132.0
23.67830 163.0
23.68330 154.0
23.68830 163.0
23.69330 148.0
23.69830 175.0
23.70330 169.0
23.70830 190.0
23.71330 174.0
23.71830 172.0
23.72330 174.0
23.72830 167.0
23.73330 163.0
23.73830 175.0
23.74330 175.0
23.74830 168.0
23.75330 167.0
23.75830 170.0
23.76330 185.0
23.76830 194.0
23.77330 156.0
23.77830 177.0
23.78330 168.0
23.78830 193.0
23.79330 205.0
23.79830 199.0
23.80330 197.0
23.80830 209.0
23.81330 203.0
23.81830 186.0
23.82330 182.0
23.82830 225.0
23.83330 214.0
23.83830 210.0
23.84330 220.0
23.84830 199.0
23.85330 221.0
23.85830 210.0
23.86330 258.0
23.86830 248.0
23.87330 213.0
23.87830 232.0
23.88330 275.0
23.88830 208.0
23.89330 230.0
23.89830 252.0
23.90330 250.0
23.90830 276.0
23.91330 245.0
23.91830 262.0
23.92330 284.0
23.92830 285.0
23.93330 264.0
23.93830 263.0
23.94330 267.0
23.94830 276.0
23.95330 280.0
23.95830 283.0
23.96330 255.0
23.96830 275.0
23.97330 274.0
23.97830 343.0
23.98330 318.0
23.98830 294.0
23.99330 305.0
23.99830 320.0
24.00330 313.0
24.00830 311.0
24.01330 370.0
24.01830 342.0
24.02330 327.0
24.02830 364.0
24.03330 326.0
24.03830 339.0
24.04330 387.0
24.04830 366.0
24.05330 385.0
24.05830 385.0
24.06330 376.0
24.06830 383.0
24.07330 398.0
24.07830 431.0
24.08330 415.0
24.08830 399.0
24.09330 444.0
24.09830 384.0
24.10330 442.0
24.10830 450.0
24.11330 438.0
24.11830 478.0
24.12330 467.0
24.12830 478.0
24.13330 464.0
24.13830 488.0
24.14330 500.0
24.14830 514.0
24.15330 489.0
24.15830 518.0
24.16330 510.0
24.16830 543.0
24.17330 567.0
24.17830 543.0
24.18330 593.0
24.18830 603.0
24.19330 597.0
24.19830 588.0
24.20330 593.0
24.20830 568.0
24.21330 576.0
24.21830 612.0
24.22330 661.0
24.22830 678.0
24.23330 670.0
24.23830 684.0
24.24330 707.0
24.24830 742.0
24.25330 711.0
24.25830 771.0
24.26330 774.0
24.26830 755.0
24.27330 782.0
24.27830 821.0
24.28330 770.0
24.28830 832.0
24.29330 823.0
24.29830 854.0
24.30330 869.0
24.30830 856.0
24.31330 868.0
24.31830 962.0
24.32330 906.0
24.32830 943.0
24.33330 966.0
24.33830 964.0
24.34330 1023.0
24.34830 1067.0
24.35330 1027.0
24.35830 1051.0
24.36330 1099.0
24.36830 1089.0
24.37330 1150.0
24.37830 1155.0
24.38330 1179.0
24.38830 1111.0
24.39330 1180.0
24.39830 1231.0
24.40330 1276.0
24.40830 1264.0
24.41330 1317.0
24.41830 1341.0
24.42330 1340.0
24.42830 1335.0
24.43330 1361.0
24.43830 1398.0
24.44330 1389.0
24.44830 1470.0
24.45330 1452.0
24.45830 1528.0
24.46330 1567.0
24.46830 1566.0
24.47330 1578.0
24.47830 1583.0
24.48330 1606.0
24.48830 1717.0
24.49330 1729.0
24.49830 1736.0
24.50330 1808.0
24.50830 1775.0
24.51330 1861.0
24.51830 1746.0
24.52330 1891.0
24.52830 1930.0
24.53330 1996.0
24.53830 2002.0
24.54330 2111.0
24.54830 2007.0
24.55330 2111.0
24.55830 2054.0
24.56330 2136.0
24.56830 2196.0
24.57330 2251.0
24.57830 2218.0
24.58330 2314.0
24.58830 2300.0
24.59330 2336.0
24.59830 2383.0
24.60330 2393.0
24.60830 2430.0
24.61330 2535.0
24.61830 2519.0
24.62330 2587.0
24.62830 2519.0
24.63330 2646.0
24.63830 2655.0
24.64330 2648.0
24.64830 2710.0
24.65330 2833.0
24.65830 2782.0
24.66330 2761.0
24.66830 2770.0
24.67330 2949.0
24.67830 2919.0
24.68330 2894.0
24.68830 2976.0
24.69330 2922.0
24.69830 3033.0
24.70330 3043.0
24.70830 3136.0
24.71330 3090.0
24.71830 3231.0
24.72330 3078.0
24.72830 3177.0
24.73330 3197.0
24.73830 3279.0
24.74330 3286.0
24.74830 3176.0
24.75330 3394.0
24.75830 3396.0
24.76330 3387.0
24.76830 3514.0
24.77330 3379.0
24.77830 3499.0
24.78330 3466.0
24.78830 3479.0
24.79330 3644.0
24.79830 3612.0
24.80330 3641.0
24.80830 3519.0
24.81330 3539.0
24.81830 3581.0
24.82330 3637.0
24.82830 3632.0
24.83330 3543.0
24.83830 3553.0
24.84330 3478.0
24.84830 3446.0
24.85330 3675.0
24.85830 3578.0
24.86330 3605.0
24.86830 3687.0
24.87330 3676.0
24.87830 3754.0
24.88330 3704.0
24.88830 3652.0
24.89330 3718.0
24.89830 3720.0
24.90330 3620.0
24.90830 3615.0
24.91330 3654.0
24.91830 3476.0
24.92330 3662.0
24.92830 3539.0
24.93330 3607.0
24.93830 3450.0
24.94330 3456.0
24.94830 3454.0
24.95330 3424.0
24.95830 3302.0
24.96330 3310.0
24.96830 3309.0
24.97330 3247.0
24.97830 3243.0
24.98330 3223.0
24.98830 3219.0
24.99330 3222.0
24.99830 3223.0
25.00330 3244.0
25.00830 3178.0
25.01330 3123.0
25.01830 3016.0
25.02330 2943.0
25.02830 2815.0
25.03330 2999.0
25.03830 2872.0
25.04330 2927.0
25.04830 2871.0
25.05330 2790.0
25.05830 2777.0
25.06330 2638.0
25.06830 2678.0
25.07330 2606.0
25.07830 2557.0
25.08330 2540.0
25.08830 2641.0
25.09330 2509.0
25.09830 2591.0
25.10330 2371.0
25.10830 2361.0
25.11330 2397.0
25.11830 2376.0
25.12330 2367.0
25.12830 2303.0
25.13330 2227.0
25.13830 2288.0
25.14330 2199.0
25.14830 2273.0
25.15330 2104.0
25.15830 2117.0
25.16330 2072.0
25.16830 2039.0
25.17330 1970.0
25.17830 1883.0
25.18330 1950.0
25.18830 1831.0
25.19330 1853.0
25.19830 1858.0
25.20330 1872.0
25.20830 1743.0
25.21330 1802.0
25.21830 1689.0
25.22330 1712.0
25.22830 1602.0
25.23330 1599.0
25.23830 1614.0
25.24330 1558.0
25.24830 1563.0
25.25330 1573.0
25.25830 1428.0
25.26330 1447.0
25.26830 1457.0
25.27330 1437.0
25.27830 1360.0
25.28330 1400.0
25.28830 1319.0
25.29330 1275.0
25.29830 1249.0
25.30330 1279.0
25.30830 1233.0
25.31330 1231.0
25.31830 1181.0
25.32330 1194.0
25.32830 1176.0
25.33330 1106.0
25.33830 1153.0
25.34330 1056.0
25.34830 1067.0
25.35330 1028.0
25.35830 1070.0
25.36330 1035.0
25.36830 1024.0
25.37330 979.0
25.37830 965.0
25.38330 922.0
25.38830 1002.0
25.39330 925.0
25.39830 905.0
25.40330 883.0
25.40830 852.0
25.41330 799.0
25.41830 835.0
25.42330 809.0
25.42830 760.0
25.43330 786.0
25.43830 728.0
25.44330 792.0
25.44830 728.0
25.45330 746.0
25.45830 692.0
25.46330 684.0
25.46830 676.0
25.47330 721.0
25.47830 672.0
25.48330 654.0
25.48830 621.0
25.49330 644.0
25.49830 706.0
25.50330 558.0
25.50830 607.0
25.51330 587.0
25.51830 568.0
25.52330 552.0
25.52830 542.0
25.53330 569.0
25.53830 525.0
25.54330 533.0
25.54830 523.0
25.55330 527.0
25.55830 522.0
25.56330 512.0
25.56830 497.0
25.57330 453.0
25.57830 468.0
25.58330 482.0
25.58830 450.0
25.59330 461.0
25.59830 426.0
25.60330 438.0
25.60830 436.0
25.61330 427.0
25.61830 404.0
25.62330 431.0
25.62830 371.0
25.63330 416.0
25.63830 386.0
25.64330 347.0
25.64830 353.0
25.65330 381.0
25.65830 351.0
25.66330 339.0
25.66830 350.0
25.67330 377.0
25.67830 351.0
25.68330 325.0
25.68830 319.0
25.69330 317.0
25.69830 331.0
25.70330 341.0
25.70830 311.0
25.71330 324.0
25.71830 280.0
25.72330 297.0
25.72830 315.0
25.73330 281.0
25.73830 279.0
25.74330 311.0
25.74830 281.0
25.75330 289.0
25.75830 295.0
25.76330 270.0
25.76830 262.0
25.77330 291.0
25.77830 256.0
25.78330 253.0
25.78830 248.0
25.79330 257.0
25.79830 235.0
25.80330 275.0
25.80830 258.0
25.81330 209.0
25.81830 237.0
25.82330 240.0
25.82830 254.0
25.83330 240.0
25.83830 221.0
25.84330 244.0
25.84830 222.0
25.85330 221.0
25.85830 200.0
25.86330 226.0
25.86830 217.0
25.87330 249.0
25.87830 210.0
25.88330 210.0
25.88830 226.0
25.89330 195.0
25.89830 209.0
25.90330 197.0
25.90830 178.0
25.91330 188.0
25.91830 185.0
25.92330 190.0
25.92830 178.0
25.93330 183.0
25.93830 170.0
25.94330 178.0
25.94830 182.0
25.95330 167.0
25.95830 154.0
25.96330 164.0
25.96830 160.0
25.97330 179.0
25.97830 148.0
25.98330 167.0
25.98830 152.0
25.99330 166.0
25.99830 149.0
26.00330 161.0
26.00830 140.0
26.01330 151.0
26.01830 152.0
26.02330 176.0
26.02830 146.0
26.03330 169.0
26.03830 176.0
26.04330 143.0
26.04830 147.0
26.05330 145.0
26.05830 162.0
26.06330 136.0
26.06830 159.0
26.07330 124.0
26.07830 128.0
26.08330 131.0
26.08830 123.0
26.09330 130.0
26.09830 134.0
26.10330 148.0
26.10830 118.0
26.11330 106.0
26.11830 117.0
26.12330 131.0
26.12830 101.0
26.13330 117.0
26.13830 126.0
26.14330 119.0
26.14830 112.0
26.15330 134.0
26.15830 119.0
26.16330 117.0
26.16830 130.0
26.17330 115.0
26.17830 126.0
26.18330 111.0
26.18830 119.0
26.19330 117.0
26.19830 114.0
26.20330 127.0
26.20830 121.0
26.21330 118.0
26.21830 115.0
26.22330 103.0
26.22830 108.0
26.23330 90.0
26.23830 103.0
26.24330 113.0
26.24830 99.0
26.25330 87.0
26.25830 106.0
26.26330 106.0
26.26830 116.0
26.27330 130.0
26.27830 107.0
26.28330 98.0
26.28830 95.0
26.29330 94.0
26.29830 108.0
26.30330 109.0
26.30830 99.0
26.31330 84.0
26.31830 94.0
26.32330 92.0
26.32830 87.0
26.33330 116.0
26.33830 95.0
26.34330 105.0
26.34830 97.0
26.35330 91.0
26.35830 85.0
26.36330 92.0
26.36830 112.0
26.37330 83.0
26.37830 86.0
26.38330 82.0
26.38830 103.0
26.39330 89.0
26.39830 99.0
26.40330 78.0
26.40830 85.0
26.41330 96.0
26.41830 92.0
26.42330 93.0
26.42830 96.0
26.43330 96.0
26.43830 84.0
26.44330 89.0
26.44830 89.0
26.45330 73.0
26.45830 82.0
26.46330 90.0
26.46830 104.0
26.47330 78.0
26.47830 79.0
26.48330 94.0
26.48830 86.0
26.49330 73.0
26.49830 92.0
26.50330 81.0
26.50830 76.0
26.51330 84.0
26.51830 93.0
26.52330 85.0
26.52830 104.0
26.53330 83.0
26.53830 76.0
26.54330 84.0
26.54830 81.0
26.55330 71.0
26.55830 67.0
26.56330 74.0
26.56830 89.0
26.57330 78.0
26.57830 80.0
26.58330 87.0
26.58830 88.0
26.59330 92.0
26.59830 79.0
26.60330 71.0
26.60830 74.0
26.61330 80.0
26.61830 72.0
26.62330 68.0
26.62830 96.0
26.63330 86.0
26.63830 75.0
26.64330 99.0
26.64830 63.0
26.65330 70.0
26.65830 73.0
26.66330 61.0
26.66830 60.0
26.67330 62.0
26.67830 75.0
26.68330 62.0
26.68830 63.0
26.69330 82.0
26.69830 75.0
26.70330 70.0
26.70830 86.0
26.71330 85.0
26.71830 74.0
26.72330 73.0
26.72830 70.0
26.73330 74.0
26.73830 78.0
26.74330 85.0
26.74830 74.0
26.75330 66.0
26.75830 79.0
26.76330 69.0
26.76830 61.0
26.77330 65.0
26.77830 62.0
26.78330 86.0
26.78830 65.0
26.79330 59.0
26.79830 75.0
26.80330 73.0
26.80830 70.0
26.81330 73.0
26.81830 79.0
26.82330 49.0
26.82830 78.0
26.83330 54.0
26.83830 70.0