File: data/W6853c/XRD_Omega/W6853c_Cr2O3_scan_omega_2deg_step_0.002deg0_19.xy
18.84930 838.0
18.85130 851.0
18.85330 816.0
18.85530 821.0
18.85730 851.0
18.85930 841.0
18.86130 775.0
18.86330 868.0
18.86530 872.0
18.86730 864.0
18.86930 899.0
18.87130 837.0
18.87330 906.0
18.87530 846.0
18.87730 895.0
18.87930 850.0
18.88130 854.0
18.88330 897.0
18.88530 899.0
18.88730 932.0
18.88930 883.0
18.89130 888.0
18.89330 854.0
18.89530 942.0
18.89730 843.0
18.89930 875.0
18.90130 920.0
18.90330 877.0
18.90530 967.0
18.90730 917.0
18.90930 883.0
18.91130 861.0
18.91330 916.0
18.91530 921.0
18.91730 907.0
18.91930 937.0
18.92130 962.0
18.92330 972.0
18.92530 939.0
18.92730 918.0
18.92930 978.0
18.93130 963.0
18.93330 901.0
18.93530 953.0
18.93730 951.0
18.93930 965.0
18.94130 996.0
18.94330 929.0
18.94530 947.0
18.94730 973.0
18.94930 948.0
18.95130 967.0
18.95330 979.0
18.95530 990.0
18.95730 989.0
18.95930 1025.0
18.96130 1005.0
18.96330 968.0
18.96530 977.0
18.96730 1041.0
18.96930 1056.0
18.97130 1021.0
18.97330 971.0
18.97530 949.0
18.97730 1024.0
18.97930 1013.0
18.98130 1035.0
18.98330 1005.0
18.98530 1064.0
18.98730 1012.0
18.98930 1008.0
18.99130 1052.0
18.99330 974.0
18.99530 1031.0
18.99730 972.0
18.99930 1040.0
19.00130 1035.0
19.00330 1043.0
19.00530 999.0
19.00730 1022.0
19.00930 1073.0
19.01130 1101.0
19.01330 1093.0
19.01530 1150.0
19.01730 1060.0
19.01930 1060.0
19.02130 1058.0
19.02330 1136.0
19.02530 1135.0
19.02730 1073.0
19.02930 1137.0
19.03130 1119.0
19.03330 1140.0
19.03530 1101.0
19.03730 1083.0
19.03930 1123.0
19.04130 1211.0
19.04330 1125.0
19.04530 1245.0
19.04730 1170.0
19.04930 1158.0
19.05130 1126.0
19.05330 1177.0
19.05530 1184.0
19.05730 1126.0
19.05930 1284.0
19.06130 1279.0
19.06330 1173.0
19.06530 1202.0
19.06730 1170.0
19.06930 1180.0
19.07130 1168.0
19.07330 1258.0
19.07530 1197.0
19.07730 1195.0
19.07930 1252.0
19.08130 1233.0
19.08330 1164.0
19.08530 1231.0
19.08730 1255.0
19.08930 1168.0
19.09130 1304.0
19.09330 1259.0
19.09530 1289.0
19.09730 1274.0
19.09930 1261.0
19.10130 1267.0
19.10330 1247.0
19.10530 1315.0
19.10730 1299.0
19.10930 1304.0
19.11130 1329.0
19.11330 1357.0
19.11530 1347.0
19.11730 1371.0
19.11930 1341.0
19.12130 1379.0
19.12330 1398.0
19.12530 1310.0
19.12730 1366.0
19.12930 1391.0
19.13130 1383.0
19.13330 1422.0
19.13530 1390.0
19.13730 1393.0
19.13930 1404.0
19.14130 1406.0
19.14330 1405.0
19.14530 1482.0
19.14730 1499.0
19.14930 1475.0
19.15130 1339.0
19.15330 1492.0
19.15530 1441.0
19.15730 1459.0
19.15930 1404.0
19.16130 1476.0
19.16330 1459.0
19.16530 1452.0
19.16730 1479.0
19.16930 1453.0
19.17130 1454.0
19.17330 1478.0
19.17530 1593.0
19.17730 1517.0
19.17930 1546.0
19.18130 1580.0
19.18330 1596.0
19.18530 1602.0
19.18730 1611.0
19.18930 1580.0
19.19130 1568.0
19.19330 1638.0
19.19530 1527.0
19.19730 1526.0
19.19930 1604.0
19.20130 1663.0
19.20330 1663.0
19.20530 1607.0
19.20730 1656.0
19.20930 1636.0
19.21130 1751.0
19.21330 1660.0
19.21530 1643.0
19.21730 1792.0
19.21930 1758.0
19.22130 1788.0
19.22330 1729.0
19.22530 1752.0
19.22730 1734.0
19.22930 1761.0
19.23130 1775.0
19.23330 1785.0
19.23530 1747.0
19.23730 1800.0
19.23930 1765.0
19.24130 1842.0
19.24330 1813.0
19.24530 1842.0
19.24730 1898.0
19.24930 1735.0
19.25130 1863.0
19.25330 1842.0
19.25530 1901.0
19.25730 1932.0
19.25930 1909.0
19.26130 1935.0
19.26330 1930.0
19.26530 1986.0
19.26730 2001.0
19.26930 1987.0
19.27130 2006.0
19.27330 2066.0
19.27530 2015.0
19.27730 1980.0
19.27930 2030.0
19.28130 1993.0
19.28330 2072.0
19.28530 2042.0
19.28730 2122.0
19.28930 2106.0
19.29130 2013.0
19.29330 2154.0
19.29530 2153.0
19.29730 2204.0
19.29930 2094.0
19.30130 2051.0
19.30330 2190.0
19.30530 2207.0
19.30730 2180.0
19.30930 2168.0
19.31130 2234.0
19.31330 2176.0
19.31530 2263.0
19.31730 2315.0
19.31930 2323.0
19.32130 2273.0
19.32330 2343.0
19.32530 2342.0
19.32730 2403.0
19.32930 2430.0
19.33130 2377.0
19.33330 2419.0
19.33530 2506.0
19.33730 2471.0
19.33930 2504.0
19.34130 2497.0
19.34330 2531.0
19.34530 2528.0
19.34730 2602.0
19.34930 2562.0
19.35130 2578.0
19.35330 2628.0
19.35530 2605.0
19.35730 2665.0
19.35930 2675.0
19.36130 2669.0
19.36330 2682.0
19.36530 2697.0
19.36730 2669.0
19.36930 2757.0
19.37130 2757.0
19.37330 2720.0
19.37530 2773.0
19.37730 2828.0
19.37930 2747.0
19.38130 2747.0
19.38330 2767.0
19.38530 2831.0
19.38730 2806.0
19.38930 2862.0
19.39130 2844.0
19.39330 2972.0
19.39530 2941.0
19.39730 3052.0
19.39930 2982.0
19.40130 2904.0
19.40330 3029.0
19.40530 3075.0
19.40730 3012.0
19.40930 3131.0
19.41130 3081.0
19.41330 3108.0
19.41530 3053.0
19.41730 3113.0
19.41930 3159.0
19.42130 3161.0
19.42330 3254.0
19.42530 3243.0
19.42730 3214.0
19.42930 3203.0
19.43130 3282.0
19.43330 3374.0
19.43530 3370.0
19.43730 3280.0
19.43930 3263.0
19.44130 3348.0
19.44330 3400.0
19.44530 3401.0
19.44730 3375.0
19.44930 3412.0
19.45130 3511.0
19.45330 3546.0
19.45530 3579.0
19.45730 3488.0
19.45930 3634.0
19.46130 3599.0
19.46330 3573.0
19.46530 3646.0
19.46730 3686.0
19.46930 3619.0
19.47130 3796.0
19.47330 3851.0
19.47530 3851.0
19.47730 3873.0
19.47930 3870.0
19.48130 3857.0
19.48330 3919.0
19.48530 3947.0
19.48730 3872.0
19.48930 3984.0
19.49130 4056.0
19.49330 4025.0
19.49530 3970.0
19.49730 3983.0
19.49930 4029.0
19.50130 4120.0
19.50330 4050.0
19.50530 4212.0
19.50730 4200.0
19.50930 4163.0
19.51130 4260.0
19.51330 4311.0
19.51530 4311.0
19.51730 4326.0
19.51930 4281.0
19.52130 4385.0
19.52330 4322.0
19.52530 4378.0
19.52730 4374.0
19.52930 4355.0
19.53130 4516.0
19.53330 4482.0
19.53530 4548.0
19.53730 4523.0
19.53930 4641.0
19.54130 4562.0
19.54330 4649.0
19.54530 4586.0
19.54730 4657.0
19.54930 4714.0
19.55130 4744.0
19.55330 4699.0
19.55530 4860.0
19.55730 4932.0
19.55930 4933.0
19.56130 5070.0
19.56330 5002.0
19.56530 4959.0
19.56730 5029.0
19.56930 5044.0
19.57130 4998.0
19.57330 5106.0
19.57530 5010.0
19.57730 4935.0
19.57930 5173.0
19.58130 5082.0
19.58330 5163.0
19.58530 5079.0
19.58730 5285.0
19.58930 5313.0
19.59130 5409.0
19.59330 5326.0
19.59530 5562.0
19.59730 5353.0
19.59930 5563.0
19.60130 5465.0
19.60330 5562.0
19.60530 5607.0
19.60730 5627.0
19.60930 5457.0
19.61130 5694.0
19.61330 5623.0
19.61530 5687.0
19.61730 5783.0
19.61930 5733.0
19.62130 5787.0
19.62330 5793.0
19.62530 5907.0
19.62730 5855.0
19.62930 5924.0
19.63130 5971.0
19.63330 5898.0
19.63530 6131.0
19.63730 6234.0
19.63930 6078.0
19.64130 6120.0
19.64330 6123.0
19.64530 6179.0
19.64730 6189.0
19.64930 6247.0
19.65130 6193.0
19.65330 6146.0
19.65530 6296.0
19.65730 6314.0
19.65930 6475.0
19.66130 6466.0
19.66330 6374.0
19.66530 6492.0
19.66730 6338.0
19.66930 6531.0
19.67130 6563.0
19.67330 6520.0
19.67530 6438.0
19.67730 6553.0
19.67930 6699.0
19.68130 6637.0
19.68330 6864.0
19.68530 6869.0
19.68730 6858.0
19.68930 6788.0
19.69130 6844.0
19.69330 6856.0
19.69530 6733.0
19.69730 7038.0
19.69930 7043.0
19.70130 7078.0
19.70330 7200.0
19.70530 7121.0
19.70730 6987.0
19.70930 7143.0
19.71130 7248.0
19.71330 7164.0
19.71530 7213.0
19.71730 7254.0
19.71930 7313.0
19.72130 7360.0
19.72330 7204.0
19.72530 7221.0
19.72730 7272.0
19.72930 7477.0
19.73130 7297.0
19.73330 7540.0
19.73530 7521.0
19.73730 7459.0
19.73930 7508.0
19.74130 7386.0
19.74330 7437.0
19.74530 7562.0
19.74730 7486.0
19.74930 7628.0
19.75130 7655.0
19.75330 7680.0
19.75530 7562.0
19.75730 7601.0
19.75930 7576.0
19.76130 7741.0
19.76330 7716.0
19.76530 7854.0
19.76730 7664.0
19.76930 7834.0
19.77130 7935.0
19.77330 7756.0
19.77530 7886.0
19.77730 7861.0
19.77930 7889.0
19.78130 7691.0
19.78330 7829.0
19.78530 7735.0
19.78730 7935.0
19.78930 7950.0
19.79130 7904.0
19.79330 7891.0
19.79530 8047.0
19.79730 8125.0
19.79930 7993.0
19.80130 8055.0
19.80330 7937.0
19.80530 8022.0
19.80730 8144.0
19.80930 7962.0
19.81130 8004.0
19.81330 7992.0
19.81530 7943.0
19.81730 7953.0
19.81930 8138.0
19.82130 8116.0
19.82330 8096.0
19.82530 8086.0
19.82730 8060.0
19.82930 7997.0
19.83130 7965.0
19.83330 8003.0
19.83530 7981.0
19.83730 8260.0
19.83930 7933.0
19.84130 8119.0
19.84330 8164.0
19.84530 8169.0
19.84730 8039.0
19.84930 8022.0
19.85130 8044.0
19.85330 7943.0
19.85530 8005.0
19.85730 7981.0
19.85930 7866.0
19.86130 7877.0
19.86330 7901.0
19.86530 8010.0
19.86730 7824.0
19.86930 8030.0
19.87130 7937.0
19.87330 7799.0
19.87530 7743.0
19.87730 7961.0
19.87930 7723.0
19.88130 7907.0
19.88330 7888.0
19.88530 7641.0
19.88730 8010.0
19.88930 7927.0
19.89130 8050.0
19.89330 7771.0
19.89530 7723.0
19.89730 7774.0
19.89930 7783.0
19.90130 7809.0
19.90330 7659.0
19.90530 7839.0
19.90730 7661.0
19.90930 7798.0
19.91130 7638.0
19.91330 7595.0
19.91530 7631.0
19.91730 7597.0
19.91930 7420.0
19.92130 7612.0
19.92330 7456.0
19.92530 7534.0
19.92730 7373.0
19.92930 7449.0
19.93130 7330.0
19.93330 7473.0
19.93530 7349.0
19.93730 7452.0
19.93930 7271.0
19.94130 7275.0
19.94330 7332.0
19.94530 7214.0
19.94730 7331.0
19.94930 7300.0
19.95130 7126.0
19.95330 7191.0
19.95530 7188.0
19.95730 7147.0
19.95930 7167.0
19.96130 7109.0
19.96330 7008.0
19.96530 7136.0
19.96730 7081.0
19.96930 7161.0
19.97130 6946.0
19.97330 7056.0
19.97530 6926.0
19.97730 6929.0
19.97930 6900.0
19.98130 6862.0
19.98330 6753.0
19.98530 6948.0
19.98730 6726.0
19.98930 6787.0
19.99130 6482.0
19.99330 6622.0
19.99530 6594.0
19.99730 6548.0
19.99930 6690.0
20.00130 6477.0
20.00330 6468.0
20.00530 6570.0
20.00730 6425.0
20.00930 6230.0
20.01130 6389.0
20.01330 6316.0
20.01530 6351.0
20.01730 6150.0
20.01930 6191.0
20.02130 6202.0
20.02330 6143.0
20.02530 6164.0
20.02730 6141.0
20.02930 6231.0
20.03130 6127.0
20.03330 6141.0
20.03530 6142.0
20.03730 5956.0
20.03930 6042.0
20.04130 6120.0
20.04330 5998.0
20.04530 5899.0
20.04730 5992.0
20.04930 5844.0
20.05130 5694.0
20.05330 5643.0
20.05530 5811.0
20.05730 5631.0
20.05930 5563.0
20.06130 5730.0
20.06330 5641.0
20.06530 5472.0
20.06730 5566.0
20.06930 5525.0
20.07130 5472.0
20.07330 5455.0
20.07530 5415.0
20.07730 5445.0
20.07930 5278.0
20.08130 5269.0
20.08330 5232.0
20.08530 5206.0
20.08730 5210.0
20.08930 5116.0
20.09130 5152.0
20.09330 5225.0
20.09530 5068.0
20.09730 5165.0
20.09930 5050.0
20.10130 4941.0
20.10330 4992.0
20.10530 4978.0
20.10730 4745.0
20.10930 4861.0
20.11130 4840.0
20.11330 4728.0
20.11530 4949.0
20.11730 4792.0
20.11930 4944.0
20.12130 4889.0
20.12330 4727.0
20.12530 4762.0
20.12730 4750.0
20.12930 4596.0
20.13130 4546.0
20.13330 4705.0
20.13530 4462.0
20.13730 4572.0
20.13930 4630.0
20.14130 4451.0
20.14330 4347.0
20.14530 4320.0
20.14730 4404.0
20.14930 4363.0
20.15130 4247.0
20.15330 4303.0
20.15530 4126.0
20.15730 4191.0
20.15930 4203.0
20.16130 4175.0
20.16330 4096.0
20.16530 4129.0
20.16730 4042.0
20.16930 4132.0
20.17130 4069.0
20.17330 4085.0
20.17530 3930.0
20.17730 3963.0
20.17930 3864.0
20.18130 3849.0
20.18330 3970.0
20.18530 3975.0
20.18730 3843.0
20.18930 3763.0
20.19130 3775.0
20.19330 3776.0
20.19530 3683.0
20.19730 3813.0
20.19930 3708.0
20.20130 3758.0
20.20330 3680.0
20.20530 3607.0
20.20730 3535.0
20.20930 3692.0
20.21130 3550.0
20.21330 3578.0
20.21530 3550.0
20.21730 3460.0
20.21930 3587.0
20.22130 3535.0
20.22330 3483.0
20.22530 3440.0
20.22730 3408.0
20.22930 3452.0
20.23130 3402.0
20.23330 3271.0
20.23530 3397.0
20.23730 3220.0
20.23930 3260.0
20.24130 3234.0
20.24330 3280.0
20.24530 3189.0
20.24730 3165.0
20.24930 3246.0
20.25130 3203.0
20.25330 3088.0
20.25530 3137.0
20.25730 3039.0
20.25930 3092.0
20.26130 3090.0
20.26330 2980.0
20.26530 2974.0
20.26730 3032.0
20.26930 3081.0
20.27130 2885.0
20.27330 2952.0
20.27530 2922.0
20.27730 2956.0
20.27930 2882.0
20.28130 2844.0
20.28330 2830.0
20.28530 2917.0
20.28730 2786.0
20.28930 2783.0
20.29130 2713.0
20.29330 2710.0
20.29530 2831.0
20.29730 2805.0
20.29930 2785.0
20.30130 2771.0
20.30330 2649.0
20.30530 2735.0
20.30730 2611.0
20.30930 2637.0
20.31130 2636.0
20.31330 2641.0
20.31530 2570.0
20.31730 2631.0
20.31930 2612.0
20.32130 2503.0
20.32330 2566.0
20.32530 2483.0
20.32730 2492.0
20.32930 2511.0
20.33130 2482.0
20.33330 2420.0
20.33530 2480.0
20.33730 2495.0
20.33930 2411.0
20.34130 2421.0
20.34330 2403.0
20.34530 2326.0
20.34730 2354.0
20.34930 2308.0
20.35130 2313.0
20.35330 2332.0
20.35530 2328.0
20.35730 2335.0
20.35930 2341.0
20.36130 2250.0
20.36330 2291.0
20.36530 2180.0
20.36730 2322.0
20.36930 2293.0
20.37130 2232.0
20.37330 2167.0
20.37530 2180.0
20.37730 2132.0
20.37930 2211.0
20.38130 2193.0
20.38330 2206.0
20.38530 2123.0
20.38730 2139.0
20.38930 2143.0
20.39130 2094.0
20.39330 2146.0
20.39530 2094.0
20.39730 2077.0
20.39930 2052.0
20.40130 2102.0
20.40330 1970.0
20.40530 2033.0
20.40730 1944.0
20.40930 1938.0
20.41130 1909.0
20.41330 1923.0
20.41530 1914.0
20.41730 1993.0
20.41930 1854.0
20.42130 1978.0
20.42330 1990.0
20.42530 2044.0
20.42730 1896.0
20.42930 1973.0
20.43130 1899.0
20.43330 1983.0
20.43530 1878.0
20.43730 1871.0
20.43930 1823.0
20.44130 1933.0
20.44330 1817.0
20.44530 1923.0
20.44730 1849.0
20.44930 1837.0
20.45130 1827.0
20.45330 1762.0
20.45530 1725.0
20.45730 1776.0
20.45930 1678.0
20.46130 1573.0
20.46330 1598.0
20.46530 1621.0
20.46730 1620.0
20.46930 1586.0
20.47130 1574.0
20.47330 1492.0
20.47530 1468.0
20.47730 1562.0
20.47930 1505.0
20.48130 1573.0
20.48330 1498.0
20.48530 1441.0
20.48730 1499.0
20.48930 1508.0
20.49130 1440.0
20.49330 1460.0
20.49530 1394.0
20.49730 1387.0
20.49930 1392.0
20.50130 1422.0
20.50330 1394.0
20.50530 1444.0
20.50730 1386.0
20.50930 1345.0
20.51130 1405.0
20.51330 1331.0
20.51530 1260.0
20.51730 1342.0
20.51930 1316.0
20.52130 1344.0
20.52330 1307.0
20.52530 1309.0
20.52730 1319.0
20.52930 1305.0
20.53130 1305.0
20.53330 1230.0
20.53530 1242.0
20.53730 1257.0
20.53930 1245.0
20.54130 1210.0
20.54330 1235.0
20.54530 1324.0
20.54730 1174.0
20.54930 1276.0
20.55130 1195.0
20.55330 1156.0
20.55530 1195.0
20.55730 1233.0
20.55930 1233.0
20.56130 1162.0
20.56330 1187.0
20.56530 1170.0
20.56730 1130.0
20.56930 1264.0
20.57130 1216.0
20.57330 1174.0
20.57530 1175.0
20.57730 1195.0
20.57930 1123.0
20.58130 1193.0
20.58330 1182.0
20.58530 1147.0
20.58730 1163.0
20.58930 1152.0
20.59130 1035.0
20.59330 1140.0
20.59530 1126.0
20.59730 1057.0
20.59930 1066.0
20.60130 1084.0
20.60330 1102.0
20.60530 1060.0
20.60730 1053.0
20.60930 1069.0
20.61130 1052.0
20.61330 1062.0
20.61530 1132.0
20.61730 1069.0
20.61930 1097.0
20.62130 1054.0
20.62330 983.0
20.62530 1070.0
20.62730 1072.0
20.62930 1014.0
20.63130 1062.0
20.63330 1032.0
20.63530 998.0
20.63730 1020.0
20.63930 934.0
20.64130 966.0
20.64330 1004.0
20.64530 1052.0
20.64730 1016.0
20.64930 981.0
20.65130 1011.0
20.65330 947.0
20.65530 1051.0
20.65730 1015.0
20.65930 990.0
20.66130 964.0
20.66330 977.0
20.66530 989.0
20.66730 910.0
20.66930 1026.0
20.67130 979.0
20.67330 970.0
20.67530 930.0
20.67730 997.0
20.67930 963.0
20.68130 931.0
20.68330 978.0
20.68530 963.0
20.68730 965.0
20.68930 907.0
20.69130 973.0
20.69330 893.0
20.69530 920.0
20.69730 902.0
20.69930 887.0
20.70130 895.0
20.70330 867.0
20.70530 903.0
20.70730 955.0
20.70930 955.0
20.71130 874.0
20.71330 888.0
20.71530 876.0
20.71730 867.0
20.71930 835.0
20.72130 880.0
20.72330 846.0
20.72530 889.0
20.72730 873.0
20.72930 867.0
20.73130 819.0
20.73330 861.0
20.73530 876.0
20.73730 836.0
20.73930 868.0
20.74130 861.0
20.74330 889.0
20.74530 868.0
20.74730 870.0
20.74930 866.0
20.75130 859.0
20.75330 880.0
20.75530 813.0
20.75730 854.0
20.75930 825.0
20.76130 877.0
20.76330 824.0
20.76530 832.0
20.76730 795.0
20.76930 884.0
20.77130 823.0
20.77330 819.0
20.77530 807.0
20.77730 816.0
20.77930 851.0
20.78130 804.0
20.78330 801.0
20.78530 802.0
20.78730 825.0
20.78930 808.0
20.79130 796.0
20.79330 767.0
20.79530 761.0
20.79730 822.0
20.79930 823.0
20.80130 785.0
20.80330 787.0
20.80530 787.0
20.80730 739.0
20.80930 834.0
20.81130 781.0
20.81330 747.0
20.81530 824.0
20.81730 773.0
20.81930 750.0
20.82130 849.0
20.82330 791.0
20.82530 797.0
20.82730 781.0
20.82930 782.0
20.83130 826.0
20.83330 805.0