File: data/W6907r/XRD_2ThetaOmega/scan_2th-om_r2_Cr2O3_45-55deg_PIXscan_5min_C8.xy
45.0025 102.0
45.0123 113.0
45.0222 118.0
45.032 116.0
45.0419 115.0
45.0517 115.0
45.0615 125.0
45.0714 93.0
45.0812 119.0
45.0911 135.0
45.1009 111.0
45.1108 117.0
45.1206 132.0
45.1305 116.0
45.1403 142.0
45.1502 125.0
45.16 130.0
45.1699 114.0
45.1797 115.0
45.1896 119.0
45.1994 116.0
45.2093 116.0
45.2191 106.0
45.229 98.0
45.2388 125.0
45.2487 128.0
45.2585 104.0
45.2684 108.0
45.2782 106.0
45.288 101.0
45.2979 89.0
45.3077 108.0
45.3176 112.0
45.3274 112.0
45.3373 107.0
45.3471 119.0
45.357 100.0
45.3668 109.0
45.3767 100.0
45.3865 112.0
45.3964 114.0
45.4062 128.0
45.4161 112.0
45.4259 107.0
45.4358 119.0
45.4456 110.0
45.4555 110.0
45.4653 102.0
45.4752 85.0
45.485 114.0
45.4948 114.0
45.5047 102.0
45.5145 112.0
45.5244 90.0
45.5342 107.0
45.5441 93.0
45.5539 112.0
45.5638 117.0
45.5736 136.0
45.5835 129.0
45.5933 115.0
45.6032 94.0
45.613 115.0
45.6229 95.0
45.6327 97.0
45.6426 112.0
45.6524 100.0
45.6623 117.0
45.6721 110.0
45.682 90.0
45.6918 122.0
45.7016 114.0
45.7115 98.0
45.7213 97.0
45.7312 111.0
45.741 99.0
45.7509 115.0
45.7607 123.0
45.7706 121.0
45.7804 91.0
45.7903 100.0
45.8001 112.0
45.81 115.0
45.8198 96.0
45.8297 108.0
45.8395 100.0
45.8494 98.0
45.8592 118.0
45.8691 96.0
45.8789 112.0
45.8888 110.0
45.8986 114.0
45.9085 108.0
45.9183 105.0
45.9281 118.0
45.938 94.0
45.9478 110.0
45.9577 102.0
45.9675 97.0
45.9774 100.0
45.9872 113.0
45.9971 118.0
46.0069 127.0
46.0168 117.0
46.0266 121.0
46.0365 86.0
46.0463 99.0
46.0562 108.0
46.066 132.0
46.0759 118.0
46.0857 115.0
46.0956 120.0
46.1054 114.0
46.1153 107.0
46.1251 123.0
46.1349 102.0
46.1448 92.0
46.1546 131.0
46.1645 101.0
46.1743 96.0
46.1842 119.0
46.194 103.0
46.2039 112.0
46.2137 112.0
46.2236 113.0
46.2334 107.0
46.2433 113.0
46.2531 104.0
46.263 95.0
46.2728 108.0
46.2827 111.0
46.2925 110.0
46.3024 123.0
46.3122 112.0
46.3221 122.0
46.3319 105.0
46.3418 118.0
46.3516 114.0
46.3614 97.0
46.3713 112.0
46.3811 122.0
46.391 113.0
46.4008 106.0
46.4107 117.0
46.4205 112.0
46.4304 110.0
46.4402 100.0
46.4501 77.0
46.4599 128.0
46.4698 112.0
46.4796 116.0
46.4895 99.0
46.4993 109.0
46.5092 115.0
46.519 119.0
46.5289 80.0
46.5387 112.0
46.5486 109.0
46.5584 93.0
46.5682 117.0
46.5781 114.0
46.5879 108.0
46.5978 108.0
46.6076 114.0
46.6175 102.0
46.6273 121.0
46.6372 119.0
46.647 123.0
46.6569 91.0
46.6667 108.0
46.6766 109.0
46.6864 95.0
46.6963 127.0
46.7061 99.0
46.716 126.0
46.7258 120.0
46.7357 133.0
46.7455 125.0
46.7554 119.0
46.7652 147.0
46.7751 132.0
46.7849 129.0
46.7947 123.0
46.8046 99.0
46.8144 114.0
46.8243 130.0
46.8341 128.0
46.844 126.0
46.8538 131.0
46.8637 133.0
46.8735 127.0
46.8834 134.0
46.8932 129.0
46.9031 125.0
46.9129 121.0
46.9228 121.0
46.9326 136.0
46.9425 113.0
46.9523 133.0
46.9622 135.0
46.972 130.0
46.9819 141.0
46.9917 142.0
47.0015 144.0
47.0114 141.0
47.0212 167.0
47.0311 184.0
47.0409 224.0
47.0508 267.0
47.0606 373.0
47.0705 454.0
47.0803 592.0
47.0902 838.0
47.1 1180.0
47.1099 1456.0
47.1197 1677.0
47.1296 1580.0
47.1394 1491.0
47.1493 1336.0
47.1591 1018.0
47.169 745.0
47.1788 587.0
47.1887 456.0
47.1985 409.0
47.2083 387.0
47.2182 356.0
47.228 314.0
47.2379 230.0
47.2477 225.0
47.2576 195.0
47.2674 197.0
47.2773 191.0
47.2871 170.0
47.297 167.0
47.3068 148.0
47.3167 156.0
47.3265 148.0
47.3364 149.0
47.3462 164.0
47.3561 147.0
47.3659 140.0
47.3758 137.0
47.3856 137.0
47.3955 148.0
47.4053 129.0
47.4152 137.0
47.425 133.0
47.4348 150.0
47.4447 115.0
47.4545 124.0
47.4644 149.0
47.4742 130.0
47.4841 126.0
47.4939 139.0
47.5038 132.0
47.5136 130.0
47.5235 153.0
47.5333 131.0
47.5432 127.0
47.553 123.0
47.5629 115.0
47.5727 142.0
47.5826 132.0
47.5924 125.0
47.6023 126.0
47.6121 117.0
47.622 131.0
47.6318 130.0
47.6416 115.0
47.6515 133.0
47.6613 102.0
47.6712 119.0
47.681 121.0
47.6909 123.0
47.7007 114.0
47.7106 135.0
47.7204 114.0
47.7303 119.0
47.7401 133.0
47.75 118.0
47.7598 156.0
47.7697 130.0
47.7795 136.0
47.7894 120.0
47.7992 128.0
47.8091 121.0
47.8189 120.0
47.8288 144.0
47.8386 117.0
47.8485 128.0
47.8583 137.0
47.8681 110.0
47.878 137.0
47.8878 115.0
47.8977 122.0
47.9075 139.0
47.9174 132.0
47.9272 139.0
47.9371 117.0
47.9469 121.0
47.9568 132.0
47.9666 124.0
47.9765 113.0
47.9863 121.0
47.9962 136.0
48.006 136.0
48.0159 125.0
48.0257 121.0
48.0356 116.0
48.0454 131.0
48.0553 107.0
48.0651 141.0
48.0749 120.0
48.0848 104.0
48.0946 119.0
48.1045 93.0
48.1143 112.0
48.1242 115.0
48.134 143.0
48.1439 134.0
48.1537 110.0
48.1636 120.0
48.1734 135.0
48.1833 129.0
48.1931 121.0
48.203 107.0
48.2128 119.0
48.2227 142.0
48.2325 123.0
48.2424 125.0
48.2522 135.0
48.2621 127.0
48.2719 118.0
48.2818 121.0
48.2916 116.0
48.3014 127.0
48.3113 129.0
48.3211 121.0
48.331 118.0
48.3408 119.0
48.3507 138.0
48.3605 133.0
48.3704 126.0
48.3802 150.0
48.3901 125.0
48.3999 122.0
48.4098 131.0
48.4196 127.0
48.4295 125.0
48.4393 114.0
48.4492 110.0
48.459 117.0
48.4689 128.0
48.4787 106.0
48.4886 123.0
48.4984 117.0
48.5082 120.0
48.5181 139.0
48.5279 117.0
48.5378 141.0
48.5476 128.0
48.5575 123.0
48.5673 131.0
48.5772 139.0
48.587 143.0
48.5969 122.0
48.6067 131.0
48.6166 165.0
48.6264 140.0
48.6363 143.0
48.6461 136.0
48.656 102.0
48.6658 136.0
48.6757 126.0
48.6855 148.0
48.6954 126.0
48.7052 156.0
48.715 127.0
48.7249 121.0
48.7347 136.0
48.7446 130.0
48.7544 136.0
48.7643 116.0
48.7741 132.0
48.784 112.0
48.7938 129.0
48.8037 129.0
48.8135 125.0
48.8234 133.0
48.8332 141.0
48.8431 134.0
48.8529 134.0
48.8628 122.0
48.8726 122.0
48.8825 127.0
48.8923 123.0
48.9022 121.0
48.912 141.0
48.9219 128.0
48.9317 121.0
48.9415 137.0
48.9514 145.0
48.9612 115.0
48.9711 144.0
48.9809 147.0
48.9908 161.0
49.0006 145.0
49.0105 137.0
49.0203 138.0
49.0302 122.0
49.04 138.0
49.0499 125.0
49.0597 127.0
49.0696 142.0
49.0794 134.0
49.0893 134.0
49.0991 113.0
49.109 147.0
49.1188 134.0
49.1287 160.0
49.1385 150.0
49.1483 150.0
49.1582 142.0
49.168 141.0
49.1779 138.0
49.1877 136.0
49.1976 147.0
49.2074 147.0
49.2173 149.0
49.2271 165.0
49.237 133.0
49.2468 141.0
49.2567 153.0
49.2665 150.0
49.2764 131.0
49.2862 167.0
49.2961 138.0
49.3059 140.0
49.3158 155.0
49.3256 143.0
49.3355 136.0
49.3453 135.0
49.3552 151.0
49.365 175.0
49.3748 159.0
49.3847 177.0
49.3945 151.0
49.4044 150.0
49.4142 132.0
49.4241 162.0
49.4339 165.0
49.4438 150.0
49.4536 145.0
49.4635 156.0
49.4733 178.0
49.4832 150.0
49.493 163.0
49.5029 179.0
49.5127 179.0
49.5226 183.0
49.5324 176.0
49.5423 180.0
49.5521 170.0
49.562 168.0
49.5718 201.0
49.5816 153.0
49.5915 175.0
49.6013 179.0
49.6112 195.0
49.621 195.0
49.6309 195.0
49.6407 188.0
49.6506 191.0
49.6604 207.0
49.6703 199.0
49.6801 176.0
49.69 213.0
49.6998 237.0
49.7097 221.0
49.7195 237.0
49.7294 233.0
49.7392 225.0
49.7491 245.0
49.7589 243.0
49.7688 219.0
49.7786 263.0
49.7884 276.0
49.7983 292.0
49.8081 319.0
49.818 326.0
49.8278 340.0
49.8377 313.0
49.8475 359.0
49.8574 365.0
49.8672 365.0
49.8771 416.0
49.8869 434.0
49.8968 478.0
49.9066 455.0
49.9165 517.0
49.9263 478.0
49.9362 564.0
49.946 542.0
49.9559 568.0
49.9657 641.0
49.9756 642.0
49.9854 700.0
49.9953 701.0
50.0051 724.0
50.0149 807.0
50.0248 824.0
50.0346 842.0
50.0445 788.0
50.0543 948.0
50.0642 895.0
50.074 1010.0
50.0839 929.0
50.0937 1062.0
50.1036 1114.0
50.1134 1164.0
50.1233 1070.0
50.1331 1208.0
50.143 1243.0
50.1528 1210.0
50.1627 1214.0
50.1725 1279.0
50.1824 1269.0
50.1922 1327.0
50.2021 1361.0
50.2119 1344.0
50.2217 1342.0
50.2316 1295.0
50.2414 1374.0
50.2513 1277.0
50.2611 1235.0
50.271 1342.0
50.2808 1295.0
50.2907 1258.0
50.3005 1283.0
50.3104 1234.0
50.3202 1254.0
50.3301 1206.0
50.3399 1108.0
50.3498 1114.0
50.3596 1090.0
50.3695 1123.0
50.3793 1069.0
50.3892 973.0
50.399 944.0
50.4089 959.0
50.4187 934.0
50.4286 974.0
50.4384 932.0
50.4482 874.0
50.4581 845.0
50.4679 810.0
50.4778 745.0
50.4876 751.0
50.4975 764.0
50.5073 729.0
50.5172 700.0
50.527 677.0
50.5369 651.0
50.5467 690.0
50.5566 614.0
50.5664 621.0
50.5763 602.0
50.5861 583.0
50.596 489.0
50.6058 564.0
50.6157 544.0
50.6255 506.0
50.6354 487.0
50.6452 458.0
50.655 451.0
50.6649 452.0
50.6747 437.0
50.6846 377.0
50.6944 417.0
50.7043 388.0
50.7141 375.0
50.724 416.0
50.7338 393.0
50.7437 374.0
50.7535 327.0
50.7634 369.0
50.7732 336.0
50.7831 374.0
50.7929 332.0
50.8028 356.0
50.8126 352.0
50.8225 322.0
50.8323 323.0
50.8422 328.0
50.852 322.0
50.8619 303.0
50.8717 306.0
50.8815 286.0
50.8914 338.0
50.9012 306.0
50.9111 277.0
50.9209 305.0
50.9308 281.0
50.9406 291.0
50.9505 296.0
50.9603 300.0
50.9702 294.0
50.98 280.0
50.9899 285.0
50.9997 308.0
51.0096 317.0
51.0194 314.0
51.0293 300.0
51.0391 277.0
51.049 309.0
51.0588 293.0
51.0687 300.0
51.0785 311.0
51.0883 345.0
51.0982 302.0
51.108 338.0
51.1179 315.0
51.1277 318.0
51.1376 283.0
51.1474 307.0
51.1573 308.0
51.1671 331.0
51.177 325.0
51.1868 286.0
51.1967 293.0
51.2065 305.0
51.2164 354.0
51.2262 355.0
51.2361 316.0
51.2459 348.0
51.2558 350.0
51.2656 306.0
51.2755 333.0
51.2853 319.0
51.2951 371.0
51.305 368.0
51.3148 365.0
51.3247 393.0
51.3345 368.0
51.3444 369.0
51.3542 359.0
51.3641 368.0
51.3739 379.0
51.3838 371.0
51.3936 402.0
51.4035 404.0
51.4133 402.0
51.4232 391.0
51.433 386.0
51.4429 388.0
51.4527 414.0
51.4626 410.0
51.4724 451.0
51.4823 403.0
51.4921 439.0
51.502 403.0
51.5118 458.0
51.5216 458.0
51.5315 417.0
51.5413 436.0
51.5512 435.0
51.561 490.0
51.5709 480.0
51.5807 495.0
51.5906 453.0
51.6004 499.0
51.6103 481.0
51.6201 465.0
51.63 526.0
51.6398 510.0
51.6497 485.0
51.6595 552.0
51.6694 562.0
51.6792 530.0
51.6891 502.0
51.6989 555.0
51.7088 591.0
51.7186 588.0
51.7284 584.0
51.7383 607.0
51.7481 610.0
51.758 596.0
51.7678 565.0
51.7777 608.0
51.7875 618.0
51.7974 668.0
51.8072 648.0
51.8171 609.0
51.8269 645.0
51.8368 623.0
51.8466 655.0
51.8565 701.0
51.8663 651.0
51.8762 668.0
51.886 705.0
51.8959 675.0
51.9057 699.0
51.9156 715.0
51.9254 727.0
51.9353 801.0
51.9451 770.0
51.9549 766.0
51.9648 761.0
51.9746 776.0
51.9845 816.0
51.9943 845.0
52.0042 833.0
52.014 913.0
52.0239 952.0
52.0337 995.0
52.0436 906.0
52.0534 927.0
52.0633 993.0
52.0731 1016.0
52.083 1073.0
52.0928 1101.0
52.1027 1196.0
52.1125 1189.0
52.1224 1271.0
52.1322 1251.0
52.1421 1377.0
52.1519 1455.0
52.1617 1458.0
52.1716 1564.0
52.1814 1659.0
52.1913 1927.0
52.2011 2013.0
52.211 2331.0
52.2208 2700.0
52.2307 2891.0
52.2405 3432.0
52.2504 3721.0
52.2602 4168.0
52.2701 4345.0
52.2799 4457.0
52.2898 4599.0
52.2996 4587.0
52.3095 4559.0
52.3193 4601.0
52.3292 4670.0
52.339 4571.0
52.3489 4612.0
52.3587 5030.0
52.3686 5321.0
52.3784 5902.0
52.3882 6695.0
52.3981 7745.0
52.4079 9132.0
52.4178 11131.0
52.4276 13952.0
52.4375 18307.0
52.4473 25081.0
52.4572 38659.0
52.467 68142.0
52.4769 134155.0
52.4867 231304.0
52.4966 319352.0
52.5064 371932.0
52.5163 388806.0
52.5261 372173.0
52.536 306048.0
52.5458 206412.0
52.5557 118178.0
52.5655 66899.0
52.5754 43371.0
52.5852 33977.0
52.595 33076.0
52.6049 41864.0
52.6147 65840.0
52.6246 107553.0
52.6344 151827.0
52.6443 182603.0
52.6541 195891.0
52.664 191050.0
52.6738 165022.0
52.6837 120364.0
52.6935 74602.0
52.7034 42729.0
52.7132 25393.0
52.7231 16666.0
52.7329 12347.0
52.7428 9597.0
52.7526 7791.0
52.7625 6775.0
52.7723 5767.0
52.7822 5120.0
52.792 4616.0
52.8018 4154.0
52.8117 3860.0
52.8215 3507.0
52.8314 3423.0
52.8412 3032.0
52.8511 2856.0
52.8609 2701.0
52.8708 2595.0
52.8806 2403.0
52.8905 2178.0
52.9003 2207.0
52.9102 2034.0
52.92 1919.0
52.9299 1867.0
52.9397 1807.0
52.9496 1757.0
52.9594 1672.0
52.9693 1582.0
52.9791 1485.0
52.989 1423.0
52.9988 1384.0
53.0087 1286.0
53.0185 1272.0
53.0283 1238.0
53.0382 1148.0
53.048 1173.0
53.0579 1133.0
53.0677 1043.0
53.0776 1061.0
53.0874 972.0
53.0973 978.0
53.1071 952.0
53.117 930.0
53.1268 877.0
53.1367 873.0
53.1465 814.0
53.1564 824.0
53.1662 809.0
53.1761 842.0
53.1859 769.0
53.1958 751.0
53.2056 699.0
53.2155 726.0
53.2253 700.0
53.2351 640.0
53.245 634.0
53.2548 695.0
53.2647 644.0
53.2745 618.0
53.2844 648.0
53.2942 587.0
53.3041 619.0
53.3139 610.0
53.3238 542.0
53.3336 536.0
53.3435 573.0
53.3533 539.0
53.3632 503.0
53.373 512.0
53.3829 488.0
53.3927 481.0
53.4026 485.0
53.4124 493.0
53.4223 475.0
53.4321 431.0
53.442 443.0
53.4518 423.0
53.4616 432.0
53.4715 483.0
53.4813 408.0
53.4912 388.0
53.501 421.0
53.5109 400.0
53.5207 370.0
53.5306 420.0
53.5404 334.0
53.5503 350.0
53.5601 352.0
53.57 356.0
53.5798 325.0
53.5897 332.0
53.5995 333.0
53.6094 333.0
53.6192 304.0
53.6291 326.0
53.6389 340.0
53.6488 329.0
53.6586 307.0
53.6684 301.0
53.6783 270.0
53.6881 263.0
53.698 271.0
53.7078 290.0
53.7177 267.0
53.7275 294.0
53.7374 277.0
53.7472 263.0
53.7571 256.0
53.7669 229.0
53.7768 264.0
53.7866 234.0
53.7965 222.0
53.8063 271.0
53.8162 207.0
53.826 229.0
53.8359 257.0
53.8457 198.0
53.8556 227.0
53.8654 206.0
53.8753 199.0
53.8851 186.0
53.8949 229.0
53.9048 210.0
53.9146 224.0
53.9245 228.0
53.9343 229.0
53.9442 272.0
53.954 223.0
53.9639 194.0
53.9737 183.0
53.9836 168.0
53.9934 189.0
54.0033 184.0
54.0131 198.0
54.023 185.0
54.0328 170.0
54.0427 185.0
54.0525 173.0
54.0624 178.0
54.0722 171.0
54.0821 183.0
54.0919 192.0
54.1017 226.0
54.1116 210.0
54.1214 162.0
54.1313 147.0
54.1411 174.0
54.151 189.0
54.1608 179.0
54.1707 165.0
54.1805 166.0
54.1904 175.0
54.2002 195.0
54.2101 162.0
54.2199 160.0
54.2298 181.0
54.2396 176.0
54.2495 177.0
54.2593 150.0
54.2692 183.0
54.279 165.0
54.2889 169.0
54.2987 178.0
54.3085 177.0
54.3184 169.0
54.3282 182.0
54.3381 175.0
54.3479 152.0
54.3578 171.0
54.3676 153.0
54.3775 155.0
54.3873 135.0
54.3972 160.0
54.407 161.0
54.4169 157.0
54.4267 179.0
54.4366 156.0
54.4464 159.0
54.4563 148.0
54.4661 165.0
54.476 154.0
54.4858 171.0
54.4957 134.0
54.5055 157.0
54.5154 178.0
54.5252 124.0
54.535 163.0
54.5449 133.0
54.5547 134.0
54.5646 149.0
54.5744 169.0
54.5843 152.0
54.5941 164.0
54.604 164.0
54.6138 159.0
54.6237 155.0
54.6335 155.0
54.6434 145.0
54.6532 133.0
54.6631 156.0
54.6729 158.0
54.6828 141.0
54.6926 146.0
54.7025 155.0
54.7123 154.0
54.7222 139.0
54.732 157.0
54.7418 139.0
54.7517 134.0
54.7615 125.0
54.7714 125.0
54.7812 153.0
54.7911 150.0
54.8009 151.0
54.8108 160.0
54.8206 137.0
54.8305 116.0
54.8403 159.0
54.8502 133.0
54.86 160.0
54.8699 174.0
54.8797 156.0
54.8896 145.0
54.8994 142.0
54.9093 149.0
54.9191 144.0
54.929 135.0
54.9388 150.0
54.9487 138.0
54.9585 124.0
54.9683 150.0
54.9782 151.0
54.988 133.0
54.9979 154.0