File: data/W6902r/XRD_Omega/scan_omega_4deg_step_0.005deg0_C3.xy
22.51100 89.0
22.51600 95.0
22.52100 75.0
22.52600 73.0
22.53100 86.0
22.53600 84.0
22.54100 92.0
22.54600 72.0
22.55100 94.0
22.55600 62.0
22.56100 93.0
22.56600 74.0
22.57100 75.0
22.57600 83.0
22.58100 70.0
22.58600 65.0
22.59100 74.0
22.59600 81.0
22.60100 78.0
22.60600 72.0
22.61100 87.0
22.61600 84.0
22.62100 76.0
22.62600 76.0
22.63100 70.0
22.63600 70.0
22.64100 88.0
22.64600 88.0
22.65100 94.0
22.65600 92.0
22.66100 75.0
22.66600 84.0
22.67100 84.0
22.67600 68.0
22.68100 90.0
22.68600 79.0
22.69100 86.0
22.69600 85.0
22.70100 89.0
22.70600 76.0
22.71100 69.0
22.71600 95.0
22.72100 83.0
22.72600 64.0
22.73100 80.0
22.73600 94.0
22.74100 96.0
22.74600 115.0
22.75100 84.0
22.75600 89.0
22.76100 89.0
22.76600 87.0
22.77100 83.0
22.77600 70.0
22.78100 87.0
22.78600 84.0
22.79100 95.0
22.79600 79.0
22.80100 105.0
22.80600 109.0
22.81100 89.0
22.81600 99.0
22.82100 101.0
22.82600 98.0
22.83100 82.0
22.83600 101.0
22.84100 99.0
22.84600 102.0
22.85100 98.0
22.85600 92.0
22.86100 78.0
22.86600 93.0
22.87100 84.0
22.87600 96.0
22.88100 89.0
22.88600 110.0
22.89100 80.0
22.89600 90.0
22.90100 118.0
22.90600 90.0
22.91100 104.0
22.91600 103.0
22.92100 127.0
22.92600 86.0
22.93100 120.0
22.93600 112.0
22.94100 108.0
22.94600 110.0
22.95100 112.0
22.95600 107.0
22.96100 110.0
22.96600 92.0
22.97100 104.0
22.97600 95.0
22.98100 114.0
22.98600 108.0
22.99100 102.0
22.99600 130.0
23.00100 109.0
23.00600 97.0
23.01100 100.0
23.01600 104.0
23.02100 119.0
23.02600 122.0
23.03100 93.0
23.03600 84.0
23.04100 104.0
23.04600 111.0
23.05100 107.0
23.05600 108.0
23.06100 116.0
23.06600 110.0
23.07100 110.0
23.07600 128.0
23.08100 95.0
23.08600 143.0
23.09100 147.0
23.09600 132.0
23.10100 119.0
23.10600 121.0
23.11100 104.0
23.11600 118.0
23.12100 152.0
23.12600 113.0
23.13100 137.0
23.13600 127.0
23.14100 131.0
23.14600 126.0
23.15100 118.0
23.15600 127.0
23.16100 146.0
23.16600 143.0
23.17100 121.0
23.17600 138.0
23.18100 127.0
23.18600 146.0
23.19100 133.0
23.19600 140.0
23.20100 145.0
23.20600 135.0
23.21100 130.0
23.21600 143.0
23.22100 129.0
23.22600 163.0
23.23100 158.0
23.23600 135.0
23.24100 146.0
23.24600 129.0
23.25100 161.0
23.25600 151.0
23.26100 160.0
23.26600 161.0
23.27100 169.0
23.27600 152.0
23.28100 158.0
23.28600 164.0
23.29100 187.0
23.29600 184.0
23.30100 158.0
23.30600 157.0
23.31100 151.0
23.31600 215.0
23.32100 163.0
23.32600 186.0
23.33100 176.0
23.33600 190.0
23.34100 201.0
23.34600 167.0
23.35100 164.0
23.35600 198.0
23.36100 178.0
23.36600 193.0
23.37100 176.0
23.37600 200.0
23.38100 185.0
23.38600 190.0
23.39100 189.0
23.39600 181.0
23.40100 188.0
23.40600 190.0
23.41100 173.0
23.41600 184.0
23.42100 197.0
23.42600 215.0
23.43100 204.0
23.43600 213.0
23.44100 255.0
23.44600 204.0
23.45100 252.0
23.45600 250.0
23.46100 226.0
23.46600 251.0
23.47100 233.0
23.47600 255.0
23.48100 222.0
23.48600 240.0
23.49100 231.0
23.49600 235.0
23.50100 251.0
23.50600 244.0
23.51100 259.0
23.51600 263.0
23.52100 256.0
23.52600 261.0
23.53100 248.0
23.53600 249.0
23.54100 261.0
23.54600 259.0
23.55100 307.0
23.55600 273.0
23.56100 270.0
23.56600 266.0
23.57100 327.0
23.57600 260.0
23.58100 306.0
23.58600 286.0
23.59100 340.0
23.59600 293.0
23.60100 313.0
23.60600 324.0
23.61100 312.0
23.61600 325.0
23.62100 371.0
23.62600 301.0
23.63100 329.0
23.63600 324.0
23.64100 355.0
23.64600 329.0
23.65100 366.0
23.65600 373.0
23.66100 368.0
23.66600 312.0
23.67100 368.0
23.67600 377.0
23.68100 368.0
23.68600 419.0
23.69100 381.0
23.69600 396.0
23.70100 355.0
23.70600 382.0
23.71100 414.0
23.71600 401.0
23.72100 412.0
23.72600 424.0
23.73100 476.0
23.73600 448.0
23.74100 429.0
23.74600 455.0
23.75100 469.0
23.75600 427.0
23.76100 497.0
23.76600 451.0
23.77100 414.0
23.77600 486.0
23.78100 454.0
23.78600 491.0
23.79100 540.0
23.79600 506.0
23.80100 545.0
23.80600 560.0
23.81100 552.0
23.81600 545.0
23.82100 507.0
23.82600 528.0
23.83100 537.0
23.83600 554.0
23.84100 622.0
23.84600 593.0
23.85100 621.0
23.85600 605.0
23.86100 646.0
23.86600 643.0
23.87100 632.0
23.87600 655.0
23.88100 674.0
23.88600 696.0
23.89100 673.0
23.89600 696.0
23.90100 690.0
23.90600 686.0
23.91100 692.0
23.91600 741.0
23.92100 728.0
23.92600 685.0
23.93100 740.0
23.93600 695.0
23.94100 772.0
23.94600 739.0
23.95100 749.0
23.95600 871.0
23.96100 812.0
23.96600 845.0
23.97100 813.0
23.97600 884.0
23.98100 866.0
23.98600 956.0
23.99100 923.0
23.99600 912.0
24.00100 968.0
24.00600 919.0
24.01100 916.0
24.01600 934.0
24.02100 967.0
24.02600 965.0
24.03100 973.0
24.03600 1008.0
24.04100 1048.0
24.04600 1087.0
24.05100 1044.0
24.05600 1143.0
24.06100 1072.0
24.06600 1156.0
24.07100 1130.0
24.07600 1107.0
24.08100 1117.0
24.08600 1119.0
24.09100 1192.0
24.09600 1189.0
24.10100 1165.0
24.10600 1215.0
24.11100 1235.0
24.11600 1240.0
24.12100 1280.0
24.12600 1336.0
24.13100 1271.0
24.13600 1311.0
24.14100 1282.0
24.14600 1326.0
24.15100 1374.0
24.15600 1417.0
24.16100 1426.0
24.16600 1527.0
24.17100 1396.0
24.17600 1438.0
24.18100 1407.0
24.18600 1505.0
24.19100 1500.0
24.19600 1524.0
24.20100 1446.0
24.20600 1498.0
24.21100 1637.0
24.21600 1542.0
24.22100 1537.0
24.22600 1587.0
24.23100 1582.0
24.23600 1674.0
24.24100 1748.0
24.24600 1729.0
24.25100 1675.0
24.25600 1723.0
24.26100 1730.0
24.26600 1737.0
24.27100 1736.0
24.27600 1713.0
24.28100 1766.0
24.28600 1793.0
24.29100 1821.0
24.29600 1835.0
24.30100 1894.0
24.30600 1891.0
24.31100 1864.0
24.31600 1875.0
24.32100 1993.0
24.32600 1848.0
24.33100 1893.0
24.33600 1987.0
24.34100 1934.0
24.34600 1962.0
24.35100 2056.0
24.35600 1999.0
24.36100 1984.0
24.36600 2009.0
24.37100 2025.0
24.37600 2001.0
24.38100 2117.0
24.38600 2089.0
24.39100 2020.0
24.39600 2135.0
24.40100 2166.0
24.40600 2114.0
24.41100 2247.0
24.41600 2154.0
24.42100 2162.0
24.42600 2167.0
24.43100 2140.0
24.43600 2195.0
24.44100 2125.0
24.44600 2183.0
24.45100 2200.0
24.45600 2211.0
24.46100 2190.0
24.46600 2252.0
24.47100 2246.0
24.47600 2148.0
24.48100 2177.0
24.48600 2211.0
24.49100 2260.0
24.49600 2115.0
24.50100 2196.0
24.50600 2167.0
24.51100 2226.0
24.51600 2169.0
24.52100 2192.0
24.52600 2171.0
24.53100 2097.0
24.53600 2153.0
24.54100 2168.0
24.54600 2167.0
24.55100 2305.0
24.55600 2203.0
24.56100 2304.0
24.56600 2153.0
24.57100 2139.0
24.57600 2212.0
24.58100 2253.0
24.58600 2162.0
24.59100 2049.0
24.59600 2031.0
24.60100 2160.0
24.60600 2181.0
24.61100 2084.0
24.61600 2040.0
24.62100 1955.0
24.62600 2029.0
24.63100 2071.0
24.63600 1952.0
24.64100 1935.0
24.64600 1935.0
24.65100 1923.0
24.65600 1921.0
24.66100 1822.0
24.66600 1923.0
24.67100 1760.0
24.67600 1781.0
24.68100 1731.0
24.68600 1765.0
24.69100 1766.0
24.69600 1775.0
24.70100 1647.0
24.70600 1709.0
24.71100 1701.0
24.71600 1673.0
24.72100 1626.0
24.72600 1629.0
24.73100 1704.0
24.73600 1558.0
24.74100 1660.0
24.74600 1620.0
24.75100 1608.0
24.75600 1573.0
24.76100 1558.0
24.76600 1568.0
24.77100 1546.0
24.77600 1490.0
24.78100 1529.0
24.78600 1483.0
24.79100 1407.0
24.79600 1481.0
24.80100 1418.0
24.80600 1368.0
24.81100 1422.0
24.81600 1359.0
24.82100 1304.0
24.82600 1308.0
24.83100 1306.0
24.83600 1303.0
24.84100 1280.0
24.84600 1328.0
24.85100 1224.0
24.85600 1254.0
24.86100 1233.0
24.86600 1251.0
24.87100 1169.0
24.87600 1185.0
24.88100 1181.0
24.88600 1160.0
24.89100 1123.0
24.89600 1057.0
24.90100 1151.0
24.90600 1069.0
24.91100 1126.0
24.91600 1066.0
24.92100 1084.0
24.92600 1075.0
24.93100 1004.0
24.93600 1003.0
24.94100 1019.0
24.94600 973.0
24.95100 951.0
24.95600 973.0
24.96100 904.0
24.96600 943.0
24.97100 904.0
24.97600 933.0
24.98100 885.0
24.98600 841.0
24.99100 933.0
24.99600 849.0
25.00100 858.0
25.00600 819.0
25.01100 878.0
25.01600 838.0
25.02100 805.0
25.02600 784.0
25.03100 812.0
25.03600 755.0
25.04100 705.0
25.04600 767.0
25.05100 795.0
25.05600 723.0
25.06100 741.0
25.06600 727.0
25.07100 700.0
25.07600 660.0
25.08100 702.0
25.08600 639.0
25.09100 649.0
25.09600 630.0
25.10100 636.0
25.10600 578.0
25.11100 624.0
25.11600 642.0
25.12100 616.0
25.12600 561.0
25.13100 610.0
25.13600 585.0
25.14100 502.0
25.14600 578.0
25.15100 570.0
25.15600 538.0
25.16100 478.0
25.16600 546.0
25.17100 512.0
25.17600 494.0
25.18100 471.0
25.18600 468.0
25.19100 521.0
25.19600 488.0
25.20100 477.0
25.20600 456.0
25.21100 466.0
25.21600 483.0
25.22100 460.0
25.22600 476.0
25.23100 456.0
25.23600 438.0
25.24100 420.0
25.24600 439.0
25.25100 423.0
25.25600 433.0
25.26100 415.0
25.26600 407.0
25.27100 382.0
25.27600 394.0
25.28100 364.0
25.28600 395.0
25.29100 388.0
25.29600 374.0
25.30100 360.0
25.30600 340.0
25.31100 360.0
25.31600 400.0
25.32100 363.0
25.32600 349.0
25.33100 334.0
25.33600 339.0
25.34100 345.0
25.34600 322.0
25.35100 317.0
25.35600 329.0
25.36100 318.0
25.36600 326.0
25.37100 268.0
25.37600 327.0
25.38100 296.0
25.38600 325.0
25.39100 302.0
25.39600 258.0
25.40100 291.0
25.40600 308.0
25.41100 300.0
25.41600 266.0
25.42100 263.0
25.42600 263.0
25.43100 243.0
25.43600 270.0
25.44100 268.0
25.44600 290.0
25.45100 232.0
25.45600 279.0
25.46100 259.0
25.46600 273.0
25.47100 239.0
25.47600 262.0
25.48100 265.0
25.48600 244.0
25.49100 234.0
25.49600 232.0
25.50100 236.0
25.50600 226.0
25.51100 202.0
25.51600 213.0
25.52100 218.0
25.52600 200.0
25.53100 197.0
25.53600 197.0
25.54100 197.0
25.54600 210.0
25.55100 214.0
25.55600 189.0
25.56100 188.0
25.56600 198.0
25.57100 194.0
25.57600 204.0
25.58100 191.0
25.58600 160.0
25.59100 192.0
25.59600 175.0
25.60100 188.0
25.60600 186.0
25.61100 165.0
25.61600 153.0
25.62100 162.0
25.62600 172.0
25.63100 177.0
25.63600 168.0
25.64100 152.0
25.64600 165.0
25.65100 155.0
25.65600 177.0
25.66100 176.0
25.66600 166.0
25.67100 155.0
25.67600 138.0
25.68100 167.0
25.68600 145.0
25.69100 156.0
25.69600 145.0
25.70100 170.0
25.70600 163.0
25.71100 157.0
25.71600 143.0
25.72100 163.0
25.72600 141.0
25.73100 137.0
25.73600 144.0
25.74100 132.0
25.74600 136.0
25.75100 147.0
25.75600 136.0
25.76100 113.0
25.76600 140.0
25.77100 144.0
25.77600 126.0
25.78100 105.0
25.78600 120.0
25.79100 157.0
25.79600 137.0
25.80100 127.0
25.80600 145.0
25.81100 111.0
25.81600 125.0
25.82100 128.0
25.82600 116.0
25.83100 108.0
25.83600 110.0
25.84100 125.0
25.84600 103.0
25.85100 102.0
25.85600 121.0
25.86100 117.0
25.86600 117.0
25.87100 114.0
25.87600 136.0
25.88100 122.0
25.88600 132.0
25.89100 137.0
25.89600 123.0
25.90100 100.0
25.90600 93.0
25.91100 116.0
25.91600 99.0
25.92100 115.0
25.92600 99.0
25.93100 136.0
25.93600 123.0
25.94100 99.0
25.94600 125.0
25.95100 108.0
25.95600 110.0
25.96100 101.0
25.96600 92.0
25.97100 98.0
25.97600 124.0
25.98100 93.0
25.98600 99.0
25.99100 103.0
25.99600 104.0
26.00100 86.0
26.00600 115.0
26.01100 99.0
26.01600 123.0
26.02100 109.0
26.02600 112.0
26.03100 102.0
26.03600 98.0
26.04100 103.0
26.04600 108.0
26.05100 94.0
26.05600 90.0
26.06100 91.0
26.06600 86.0
26.07100 89.0
26.07600 103.0
26.08100 109.0
26.08600 87.0
26.09100 87.0
26.09600 92.0
26.10100 87.0
26.10600 89.0
26.11100 104.0
26.11600 81.0
26.12100 68.0
26.12600 96.0
26.13100 101.0
26.13600 80.0
26.14100 99.0
26.14600 77.0
26.15100 87.0
26.15600 84.0
26.16100 74.0
26.16600 84.0
26.17100 75.0
26.17600 90.0
26.18100 79.0
26.18600 79.0
26.19100 96.0
26.19600 99.0
26.20100 88.0
26.20600 76.0
26.21100 74.0
26.21600 101.0
26.22100 88.0
26.22600 74.0
26.23100 84.0
26.23600 66.0
26.24100 75.0
26.24600 78.0
26.25100 73.0
26.25600 79.0
26.26100 80.0
26.26600 84.0
26.27100 88.0
26.27600 69.0
26.28100 90.0
26.28600 83.0
26.29100 81.0
26.29600 65.0
26.30100 79.0
26.30600 76.0
26.31100 83.0
26.31600 93.0
26.32100 72.0
26.32600 70.0
26.33100 75.0
26.33600 68.0
26.34100 67.0
26.34600 89.0
26.35100 75.0
26.35600 74.0
26.36100 73.0
26.36600 69.0
26.37100 83.0
26.37600 66.0
26.38100 73.0
26.38600 68.0
26.39100 68.0
26.39600 71.0
26.40100 73.0
26.40600 84.0
26.41100 71.0
26.41600 70.0
26.42100 69.0
26.42600 73.0
26.43100 77.0
26.43600 67.0
26.44100 61.0
26.44600 77.0
26.45100 80.0
26.45600 87.0
26.46100 70.0
26.46600 60.0
26.47100 77.0