File: data/W6857a/XRD_Omega/W6857a_Cr2O3_scan_omega_2deg_step_0.002deg0_8.xy
17.51070 162.0
17.51270 164.0
17.51470 141.0
17.51670 167.0
17.51870 137.0
17.52070 165.0
17.52270 175.0
17.52470 160.0
17.52670 186.0
17.52870 163.0
17.53070 160.0
17.53270 156.0
17.53470 161.0
17.53670 169.0
17.53870 188.0
17.54070 159.0
17.54270 175.0
17.54470 199.0
17.54670 157.0
17.54870 175.0
17.55070 184.0
17.55270 162.0
17.55470 148.0
17.55670 165.0
17.55870 154.0
17.56070 166.0
17.56270 169.0
17.56470 183.0
17.56670 176.0
17.56870 170.0
17.57070 171.0
17.57270 161.0
17.57470 185.0
17.57670 186.0
17.57870 170.0
17.58070 162.0
17.58270 160.0
17.58470 158.0
17.58670 165.0
17.58870 154.0
17.59070 190.0
17.59270 172.0
17.59470 160.0
17.59670 182.0
17.59870 181.0
17.60070 182.0
17.60270 195.0
17.60470 160.0
17.60670 164.0
17.60870 144.0
17.61070 169.0
17.61270 188.0
17.61470 176.0
17.61670 151.0
17.61870 169.0
17.62070 153.0
17.62270 169.0
17.62470 171.0
17.62670 155.0
17.62870 167.0
17.63070 162.0
17.63270 157.0
17.63470 141.0
17.63670 194.0
17.63870 175.0
17.64070 156.0
17.64270 160.0
17.64470 174.0
17.64670 169.0
17.64870 175.0
17.65070 158.0
17.65270 177.0
17.65470 146.0
17.65670 174.0
17.65870 146.0
17.66070 159.0
17.66270 173.0
17.66470 160.0
17.66670 175.0
17.66870 178.0
17.67070 148.0
17.67270 174.0
17.67470 150.0
17.67670 173.0
17.67870 160.0
17.68070 191.0
17.68270 187.0
17.68470 166.0
17.68670 183.0
17.68870 143.0
17.69070 158.0
17.69270 170.0
17.69470 157.0
17.69670 175.0
17.69870 166.0
17.70070 150.0
17.70270 159.0
17.70470 176.0
17.70670 159.0
17.70870 186.0
17.71070 156.0
17.71270 159.0
17.71470 139.0
17.71670 170.0
17.71870 169.0
17.72070 184.0
17.72270 184.0
17.72470 184.0
17.72670 178.0
17.72870 178.0
17.73070 189.0
17.73270 144.0
17.73470 152.0
17.73670 183.0
17.73870 182.0
17.74070 177.0
17.74270 170.0
17.74470 159.0
17.74670 167.0
17.74870 166.0
17.75070 175.0
17.75270 159.0
17.75470 159.0
17.75670 166.0
17.75870 178.0
17.76070 154.0
17.76270 172.0
17.76470 164.0
17.76670 159.0
17.76870 168.0
17.77070 162.0
17.77270 175.0
17.77470 131.0
17.77670 165.0
17.77870 167.0
17.78070 157.0
17.78270 177.0
17.78470 161.0
17.78670 166.0
17.78870 174.0
17.79070 178.0
17.79270 193.0
17.79470 151.0
17.79670 176.0
17.79870 145.0
17.80070 177.0
17.80270 181.0
17.80470 168.0
17.80670 162.0
17.80870 172.0
17.81070 166.0
17.81270 184.0
17.81470 188.0
17.81670 165.0
17.81870 161.0
17.82070 189.0
17.82270 170.0
17.82470 175.0
17.82670 155.0
17.82870 164.0
17.83070 168.0
17.83270 184.0
17.83470 167.0
17.83670 169.0
17.83870 163.0
17.84070 201.0
17.84270 141.0
17.84470 162.0
17.84670 203.0
17.84870 183.0
17.85070 181.0
17.85270 178.0
17.85470 151.0
17.85670 159.0
17.85870 161.0
17.86070 166.0
17.86270 161.0
17.86470 156.0
17.86670 193.0
17.86870 160.0
17.87070 160.0
17.87270 171.0
17.87470 159.0
17.87670 178.0
17.87870 178.0
17.88070 152.0
17.88270 140.0
17.88470 172.0
17.88670 158.0
17.88870 178.0
17.89070 170.0
17.89270 203.0
17.89470 189.0
17.89670 159.0
17.89870 151.0
17.90070 174.0
17.90270 188.0
17.90470 171.0
17.90670 183.0
17.90870 173.0
17.91070 179.0
17.91270 165.0
17.91470 185.0
17.91670 167.0
17.91870 152.0
17.92070 165.0
17.92270 192.0
17.92470 194.0
17.92670 184.0
17.92870 165.0
17.93070 163.0
17.93270 160.0
17.93470 185.0
17.93670 176.0
17.93870 167.0
17.94070 156.0
17.94270 176.0
17.94470 166.0
17.94670 168.0
17.94870 161.0
17.95070 178.0
17.95270 146.0
17.95470 156.0
17.95670 172.0
17.95870 174.0
17.96070 169.0
17.96270 160.0
17.96470 169.0
17.96670 186.0
17.96870 176.0
17.97070 172.0
17.97270 163.0
17.97470 141.0
17.97670 152.0
17.97870 181.0
17.98070 192.0
17.98270 173.0
17.98470 206.0
17.98670 153.0
17.98870 149.0
17.99070 171.0
17.99270 161.0
17.99470 166.0
17.99670 173.0
17.99870 182.0
18.00070 149.0
18.00270 173.0
18.00470 165.0
18.00670 168.0
18.00870 187.0
18.01070 152.0
18.01270 175.0
18.01470 162.0
18.01670 178.0
18.01870 170.0
18.02070 172.0
18.02270 174.0
18.02470 183.0
18.02670 172.0
18.02870 160.0
18.03070 175.0
18.03270 150.0
18.03470 150.0
18.03670 167.0
18.03870 187.0
18.04070 166.0
18.04270 175.0
18.04470 164.0
18.04670 151.0
18.04870 157.0
18.05070 177.0
18.05270 158.0
18.05470 157.0
18.05670 159.0
18.05870 187.0
18.06070 151.0
18.06270 197.0
18.06470 191.0
18.06670 161.0
18.06870 167.0
18.07070 163.0
18.07270 158.0
18.07470 167.0
18.07670 172.0
18.07870 179.0
18.08070 153.0
18.08270 161.0
18.08470 176.0
18.08670 163.0
18.08870 181.0
18.09070 155.0
18.09270 163.0
18.09470 178.0
18.09670 176.0
18.09870 171.0
18.10070 142.0
18.10270 143.0
18.10470 181.0
18.10670 154.0
18.10870 145.0
18.11070 161.0
18.11270 180.0
18.11470 185.0
18.11670 164.0
18.11870 169.0
18.12070 152.0
18.12270 173.0
18.12470 180.0
18.12670 147.0
18.12870 112.0
18.13070 158.0
18.13270 163.0
18.13470 148.0
18.13670 176.0
18.13870 160.0
18.14070 155.0
18.14270 166.0
18.14470 161.0
18.14670 162.0
18.14870 162.0
18.15070 161.0
18.15270 141.0
18.15470 164.0
18.15670 161.0
18.15870 186.0
18.16070 190.0
18.16270 171.0
18.16470 137.0
18.16670 154.0
18.16870 163.0
18.17070 163.0
18.17270 167.0
18.17470 144.0
18.17670 172.0
18.17870 154.0
18.18070 173.0
18.18270 145.0
18.18470 167.0
18.18670 163.0
18.18870 151.0
18.19070 163.0
18.19270 126.0
18.19470 179.0
18.19670 150.0
18.19870 173.0
18.20070 160.0
18.20270 177.0
18.20470 191.0
18.20670 161.0
18.20870 169.0
18.21070 148.0
18.21270 173.0
18.21470 177.0
18.21670 170.0
18.21870 168.0
18.22070 173.0
18.22270 156.0
18.22470 191.0
18.22670 147.0
18.22870 170.0
18.23070 152.0
18.23270 162.0
18.23470 163.0
18.23670 181.0
18.23870 178.0
18.24070 167.0
18.24270 159.0
18.24470 177.0
18.24670 139.0
18.24870 169.0
18.25070 160.0
18.25270 157.0
18.25470 177.0
18.25670 163.0
18.25870 155.0
18.26070 163.0
18.26270 143.0
18.26470 172.0
18.26670 147.0
18.26870 140.0
18.27070 179.0
18.27270 160.0
18.27470 148.0
18.27670 177.0
18.27870 145.0
18.28070 157.0
18.28270 183.0
18.28470 181.0
18.28670 160.0
18.28870 167.0
18.29070 156.0
18.29270 164.0
18.29470 163.0
18.29670 155.0
18.29870 153.0
18.30070 154.0
18.30270 140.0
18.30470 150.0
18.30670 148.0
18.30870 182.0
18.31070 172.0
18.31270 154.0
18.31470 155.0
18.31670 173.0
18.31870 149.0
18.32070 170.0
18.32270 139.0
18.32470 149.0
18.32670 135.0
18.32870 157.0
18.33070 165.0
18.33270 133.0
18.33470 181.0
18.33670 142.0
18.33870 157.0
18.34070 168.0
18.34270 164.0
18.34470 158.0
18.34670 153.0
18.34870 152.0
18.35070 159.0
18.35270 180.0
18.35470 166.0
18.35670 159.0
18.35870 189.0
18.36070 152.0
18.36270 147.0
18.36470 167.0
18.36670 153.0
18.36870 149.0
18.37070 154.0
18.37270 167.0
18.37470 148.0
18.37670 150.0
18.37870 152.0
18.38070 152.0
18.38270 167.0
18.38470 173.0
18.38670 148.0
18.38870 157.0
18.39070 167.0
18.39270 139.0
18.39470 149.0
18.39670 156.0
18.39870 151.0
18.40070 156.0
18.40270 172.0
18.40470 180.0
18.40670 170.0
18.40870 168.0
18.41070 156.0
18.41270 189.0
18.41470 165.0
18.41670 146.0
18.41870 180.0
18.42070 154.0
18.42270 152.0
18.42470 187.0
18.42670 173.0
18.42870 171.0
18.43070 158.0
18.43270 170.0
18.43470 157.0
18.43670 184.0
18.43870 159.0
18.44070 161.0
18.44270 175.0
18.44470 152.0
18.44670 144.0
18.44870 148.0
18.45070 158.0
18.45270 178.0
18.45470 143.0
18.45670 159.0
18.45870 163.0
18.46070 139.0
18.46270 169.0
18.46470 167.0
18.46670 177.0
18.46870 171.0
18.47070 143.0
18.47270 203.0
18.47470 164.0
18.47670 183.0
18.47870 151.0
18.48070 194.0
18.48270 151.0
18.48470 168.0
18.48670 157.0
18.48870 164.0
18.49070 169.0
18.49270 148.0
18.49470 164.0
18.49670 138.0
18.49870 170.0
18.50070 152.0
18.50270 175.0
18.50470 145.0
18.50670 162.0
18.50870 172.0
18.51070 187.0
18.51270 152.0
18.51470 162.0
18.51670 160.0
18.51870 166.0
18.52070 173.0
18.52270 178.0
18.52470 144.0
18.52670 150.0
18.52870 142.0
18.53070 164.0
18.53270 164.0
18.53470 127.0
18.53670 156.0
18.53870 144.0
18.54070 126.0
18.54270 165.0
18.54470 173.0
18.54670 154.0
18.54870 151.0
18.55070 158.0
18.55270 147.0
18.55470 152.0
18.55670 144.0
18.55870 154.0
18.56070 158.0
18.56270 163.0
18.56470 163.0
18.56670 157.0
18.56870 154.0
18.57070 167.0
18.57270 160.0
18.57470 158.0
18.57670 151.0
18.57870 171.0
18.58070 165.0
18.58270 159.0
18.58470 152.0
18.58670 160.0
18.58870 181.0
18.59070 157.0
18.59270 152.0
18.59470 144.0
18.59670 181.0
18.59870 172.0
18.60070 171.0
18.60270 154.0
18.60470 188.0
18.60670 158.0
18.60870 161.0
18.61070 151.0
18.61270 145.0
18.61470 166.0
18.61670 148.0
18.61870 162.0
18.62070 154.0
18.62270 151.0
18.62470 143.0
18.62670 151.0
18.62870 161.0
18.63070 157.0
18.63270 176.0
18.63470 160.0
18.63670 155.0
18.63870 172.0
18.64070 180.0
18.64270 178.0
18.64470 140.0
18.64670 163.0
18.64870 153.0
18.65070 136.0
18.65270 178.0
18.65470 171.0
18.65670 162.0
18.65870 153.0
18.66070 157.0
18.66270 159.0
18.66470 174.0
18.66670 162.0
18.66870 175.0
18.67070 135.0
18.67270 142.0
18.67470 156.0
18.67670 176.0
18.67870 145.0
18.68070 155.0
18.68270 161.0
18.68470 144.0
18.68670 183.0
18.68870 168.0
18.69070 152.0
18.69270 148.0
18.69470 177.0
18.69670 171.0
18.69870 153.0
18.70070 164.0
18.70270 154.0
18.70470 153.0
18.70670 155.0
18.70870 168.0
18.71070 157.0
18.71270 153.0
18.71470 174.0
18.71670 164.0
18.71870 158.0
18.72070 147.0
18.72270 154.0
18.72470 172.0
18.72670 136.0
18.72870 134.0
18.73070 180.0
18.73270 163.0
18.73470 158.0
18.73670 153.0
18.73870 147.0
18.74070 167.0
18.74270 167.0
18.74470 165.0
18.74670 155.0
18.74870 168.0
18.75070 142.0
18.75270 147.0
18.75470 162.0
18.75670 154.0
18.75870 154.0
18.76070 147.0
18.76270 172.0
18.76470 180.0
18.76670 150.0
18.76870 152.0
18.77070 180.0
18.77270 178.0
18.77470 189.0
18.77670 151.0
18.77870 171.0
18.78070 153.0
18.78270 154.0
18.78470 154.0
18.78670 165.0
18.78870 163.0
18.79070 154.0
18.79270 164.0
18.79470 161.0
18.79670 150.0
18.79870 173.0
18.80070 136.0
18.80270 153.0
18.80470 158.0
18.80670 140.0
18.80870 140.0
18.81070 155.0
18.81270 167.0
18.81470 160.0
18.81670 140.0
18.81870 150.0
18.82070 158.0
18.82270 166.0
18.82470 177.0
18.82670 165.0
18.82870 157.0
18.83070 157.0
18.83270 143.0
18.83470 169.0
18.83670 171.0
18.83870 139.0
18.84070 172.0
18.84270 157.0
18.84470 163.0
18.84670 137.0
18.84870 165.0
18.85070 144.0
18.85270 150.0
18.85470 168.0
18.85670 170.0
18.85870 143.0
18.86070 151.0
18.86270 151.0
18.86470 156.0
18.86670 140.0
18.86870 174.0
18.87070 175.0
18.87270 172.0
18.87470 165.0
18.87670 150.0
18.87870 139.0
18.88070 161.0
18.88270 162.0
18.88470 153.0
18.88670 172.0
18.88870 157.0
18.89070 150.0
18.89270 150.0
18.89470 134.0
18.89670 156.0
18.89870 165.0
18.90070 166.0
18.90270 165.0
18.90470 146.0
18.90670 146.0
18.90870 149.0
18.91070 142.0
18.91270 155.0
18.91470 171.0
18.91670 157.0
18.91870 166.0
18.92070 142.0
18.92270 155.0
18.92470 156.0
18.92670 128.0
18.92870 168.0
18.93070 162.0
18.93270 157.0
18.93470 160.0
18.93670 152.0
18.93870 158.0
18.94070 148.0
18.94270 147.0
18.94470 137.0
18.94670 156.0
18.94870 143.0
18.95070 140.0
18.95270 150.0
18.95470 151.0
18.95670 158.0
18.95870 158.0
18.96070 153.0
18.96270 151.0
18.96470 137.0
18.96670 153.0
18.96870 136.0
18.97070 156.0
18.97270 156.0
18.97470 124.0
18.97670 159.0
18.97870 155.0
18.98070 137.0
18.98270 171.0
18.98470 160.0
18.98670 161.0
18.98870 143.0
18.99070 134.0
18.99270 165.0
18.99470 143.0
18.99670 149.0
18.99870 161.0
19.00070 152.0
19.00270 140.0
19.00470 122.0
19.00670 155.0
19.00870 166.0
19.01070 133.0
19.01270 165.0
19.01470 144.0
19.01670 174.0
19.01870 163.0
19.02070 142.0
19.02270 129.0
19.02470 135.0
19.02670 187.0
19.02870 187.0
19.03070 152.0
19.03270 154.0
19.03470 155.0
19.03670 173.0
19.03870 141.0
19.04070 156.0
19.04270 151.0
19.04470 159.0
19.04670 148.0
19.04870 146.0
19.05070 166.0
19.05270 142.0
19.05470 176.0
19.05670 171.0
19.05870 142.0
19.06070 161.0
19.06270 172.0
19.06470 143.0
19.06670 167.0
19.06870 133.0
19.07070 171.0
19.07270 147.0
19.07470 157.0
19.07670 161.0
19.07870 159.0
19.08070 162.0
19.08270 164.0
19.08470 163.0
19.08670 161.0
19.08870 148.0
19.09070 131.0
19.09270 156.0
19.09470 162.0
19.09670 136.0
19.09870 159.0
19.10070 162.0
19.10270 165.0
19.10470 162.0
19.10670 147.0
19.10870 164.0
19.11070 158.0
19.11270 176.0
19.11470 150.0
19.11670 170.0
19.11870 165.0
19.12070 156.0
19.12270 166.0
19.12470 174.0
19.12670 160.0
19.12870 158.0
19.13070 167.0
19.13270 164.0
19.13470 155.0
19.13670 166.0
19.13870 177.0
19.14070 176.0
19.14270 158.0
19.14470 184.0
19.14670 160.0
19.14870 151.0
19.15070 157.0
19.15270 172.0
19.15470 174.0
19.15670 179.0
19.15870 201.0
19.16070 151.0
19.16270 140.0
19.16470 171.0
19.16670 166.0
19.16870 154.0
19.17070 174.0
19.17270 148.0
19.17470 173.0
19.17670 166.0
19.17870 168.0
19.18070 144.0
19.18270 149.0
19.18470 157.0
19.18670 139.0
19.18870 154.0
19.19070 162.0
19.19270 179.0
19.19470 165.0
19.19670 170.0
19.19870 153.0
19.20070 145.0
19.20270 147.0
19.20470 146.0
19.20670 162.0
19.20870 149.0
19.21070 168.0
19.21270 129.0
19.21470 163.0
19.21670 141.0
19.21870 162.0
19.22070 148.0
19.22270 142.0
19.22470 153.0
19.22670 171.0
19.22870 166.0
19.23070 166.0
19.23270 166.0
19.23470 151.0
19.23670 139.0
19.23870 145.0
19.24070 148.0
19.24270 165.0
19.24470 152.0
19.24670 168.0
19.24870 181.0
19.25070 145.0
19.25270 145.0
19.25470 147.0
19.25670 147.0
19.25870 163.0
19.26070 173.0
19.26270 164.0
19.26470 160.0
19.26670 160.0
19.26870 139.0
19.27070 128.0
19.27270 173.0
19.27470 163.0
19.27670 144.0
19.27870 157.0
19.28070 144.0
19.28270 162.0
19.28470 140.0
19.28670 147.0
19.28870 144.0
19.29070 153.0
19.29270 153.0
19.29470 170.0
19.29670 157.0
19.29870 141.0
19.30070 163.0
19.30270 151.0
19.30470 174.0
19.30670 156.0
19.30870 170.0
19.31070 155.0
19.31270 173.0
19.31470 161.0
19.31670 162.0
19.31870 158.0
19.32070 153.0
19.32270 160.0
19.32470 150.0
19.32670 157.0
19.32870 153.0
19.33070 175.0
19.33270 188.0
19.33470 135.0
19.33670 143.0
19.33870 163.0
19.34070 168.0
19.34270 143.0
19.34470 153.0
19.34670 146.0
19.34870 152.0
19.35070 157.0
19.35270 144.0
19.35470 176.0
19.35670 154.0
19.35870 150.0
19.36070 153.0
19.36270 176.0
19.36470 143.0
19.36670 153.0
19.36870 159.0
19.37070 153.0
19.37270 165.0
19.37470 187.0
19.37670 189.0
19.37870 165.0
19.38070 156.0
19.38270 169.0
19.38470 188.0
19.38670 159.0
19.38870 149.0
19.39070 149.0
19.39270 155.0
19.39470 148.0
19.39670 129.0
19.39870 152.0
19.40070 137.0
19.40270 161.0
19.40470 158.0
19.40670 164.0
19.40870 137.0
19.41070 161.0
19.41270 149.0
19.41470 154.0
19.41670 156.0
19.41870 147.0
19.42070 145.0
19.42270 158.0
19.42470 171.0
19.42670 146.0
19.42870 143.0
19.43070 168.0
19.43270 168.0
19.43470 153.0
19.43670 161.0
19.43870 161.0
19.44070 151.0
19.44270 189.0
19.44470 147.0
19.44670 161.0
19.44870 170.0
19.45070 152.0
19.45270 181.0
19.45470 155.0
19.45670 170.0
19.45870 144.0
19.46070 168.0
19.46270 137.0
19.46470 160.0
19.46670 158.0
19.46870 166.0
19.47070 159.0
19.47270 169.0
19.47470 162.0
19.47670 146.0
19.47870 169.0
19.48070 155.0
19.48270 131.0
19.48470 172.0
19.48670 157.0
19.48870 182.0
19.49070 165.0
19.49270 167.0
19.49470 165.0