File: data/W6901m/XRD_Omega/scan_omega_4deg_step_0.005deg0_C2_2.xy
29.55410 75.0
29.55910 82.0
29.56410 77.0
29.56910 93.0
29.57410 82.0
29.57910 87.0
29.58410 82.0
29.58910 81.0
29.59410 82.0
29.59910 77.0
29.60410 93.0
29.60910 92.0
29.61410 84.0
29.61910 83.0
29.62410 104.0
29.62910 77.0
29.63410 83.0
29.63910 87.0
29.64410 85.0
29.64910 87.0
29.65410 78.0
29.65910 64.0
29.66410 73.0
29.66910 89.0
29.67410 82.0
29.67910 87.0
29.68410 75.0
29.68910 90.0
29.69410 74.0
29.69910 81.0
29.70410 82.0
29.70910 81.0
29.71410 69.0
29.71910 89.0
29.72410 82.0
29.72910 84.0
29.73410 88.0
29.73910 82.0
29.74410 69.0
29.74910 77.0
29.75410 84.0
29.75910 90.0
29.76410 77.0
29.76910 88.0
29.77410 86.0
29.77910 86.0
29.78410 74.0
29.78910 80.0
29.79410 89.0
29.79910 76.0
29.80410 60.0
29.80910 86.0
29.81410 83.0
29.81910 83.0
29.82410 83.0
29.82910 91.0
29.83410 76.0
29.83910 77.0
29.84410 64.0
29.84910 82.0
29.85410 88.0
29.85910 89.0
29.86410 88.0
29.86910 79.0
29.87410 79.0
29.87910 77.0
29.88410 96.0
29.88910 95.0
29.89410 78.0
29.89910 81.0
29.90410 67.0
29.90910 91.0
29.91410 76.0
29.91910 84.0
29.92410 69.0
29.92910 83.0
29.93410 92.0
29.93910 89.0
29.94410 78.0
29.94910 97.0
29.95410 79.0
29.95910 71.0
29.96410 76.0
29.96910 85.0
29.97410 99.0
29.97910 89.0
29.98410 84.0
29.98910 82.0
29.99410 84.0
29.99910 68.0
30.00410 85.0
30.00910 86.0
30.01410 82.0
30.01910 72.0
30.02410 100.0
30.02910 89.0
30.03410 81.0
30.03910 88.0
30.04410 75.0
30.04910 80.0
30.05410 74.0
30.05910 68.0
30.06410 95.0
30.06910 85.0
30.07410 81.0
30.07910 84.0
30.08410 82.0
30.08910 80.0
30.09410 81.0
30.09910 86.0
30.10410 94.0
30.10910 83.0
30.11410 98.0
30.11910 83.0
30.12410 90.0
30.12910 83.0
30.13410 82.0
30.13910 88.0
30.14410 66.0
30.14910 93.0
30.15410 84.0
30.15910 86.0
30.16410 80.0
30.16910 107.0
30.17410 87.0
30.17910 76.0
30.18410 112.0
30.18910 80.0
30.19410 87.0
30.19910 87.0
30.20410 88.0
30.20910 94.0
30.21410 86.0
30.21910 70.0
30.22410 66.0
30.22910 80.0
30.23410 72.0
30.23910 75.0
30.24410 84.0
30.24910 103.0
30.25410 94.0
30.25910 93.0
30.26410 86.0
30.26910 78.0
30.27410 75.0
30.27910 105.0
30.28410 85.0
30.28910 107.0
30.29410 93.0
30.29910 85.0
30.30410 83.0
30.30910 67.0
30.31410 89.0
30.31910 70.0
30.32410 87.0
30.32910 85.0
30.33410 94.0
30.33910 100.0
30.34410 96.0
30.34910 92.0
30.35410 98.0
30.35910 84.0
30.36410 84.0
30.36910 80.0
30.37410 85.0
30.37910 91.0
30.38410 80.0
30.38910 106.0
30.39410 76.0
30.39910 89.0
30.40410 83.0
30.40910 113.0
30.41410 92.0
30.41910 81.0
30.42410 80.0
30.42910 84.0
30.43410 90.0
30.43910 78.0
30.44410 89.0
30.44910 80.0
30.45410 86.0
30.45910 83.0
30.46410 97.0
30.46910 79.0
30.47410 92.0
30.47910 108.0
30.48410 95.0
30.48910 78.0
30.49410 99.0
30.49910 90.0
30.50410 99.0
30.50910 88.0
30.51410 94.0
30.51910 87.0
30.52410 76.0
30.52910 93.0
30.53410 78.0
30.53910 77.0
30.54410 81.0
30.54910 77.0
30.55410 98.0
30.55910 91.0
30.56410 88.0
30.56910 93.0
30.57410 89.0
30.57910 74.0
30.58410 80.0
30.58910 96.0
30.59410 85.0
30.59910 88.0
30.60410 96.0
30.60910 95.0
30.61410 107.0
30.61910 92.0
30.62410 89.0
30.62910 83.0
30.63410 108.0
30.63910 101.0
30.64410 113.0
30.64910 95.0
30.65410 90.0
30.65910 102.0
30.66410 90.0
30.66910 85.0
30.67410 90.0
30.67910 112.0
30.68410 92.0
30.68910 99.0
30.69410 94.0
30.69910 86.0
30.70410 99.0
30.70910 93.0
30.71410 114.0
30.71910 100.0
30.72410 117.0
30.72910 97.0
30.73410 102.0
30.73910 91.0
30.74410 87.0
30.74910 91.0
30.75410 104.0
30.75910 115.0
30.76410 115.0
30.76910 113.0
30.77410 104.0
30.77910 123.0
30.78410 110.0
30.78910 126.0
30.79410 105.0
30.79910 106.0
30.80410 108.0
30.80910 118.0
30.81410 111.0
30.81910 117.0
30.82410 110.0
30.82910 117.0
30.83410 117.0
30.83910 117.0
30.84410 104.0
30.84910 111.0
30.85410 118.0
30.85910 123.0
30.86410 108.0
30.86910 112.0
30.87410 101.0
30.87910 99.0
30.88410 120.0
30.88910 131.0
30.89410 125.0
30.89910 110.0
30.90410 120.0
30.90910 121.0
30.91410 121.0
30.91910 145.0
30.92410 153.0
30.92910 115.0
30.93410 120.0
30.93910 131.0
30.94410 106.0
30.94910 123.0
30.95410 133.0
30.95910 111.0
30.96410 113.0
30.96910 116.0
30.97410 127.0
30.97910 114.0
30.98410 154.0
30.98910 150.0
30.99410 150.0
30.99910 142.0
31.00410 171.0
31.00910 153.0
31.01410 137.0
31.01910 146.0
31.02410 136.0
31.02910 170.0
31.03410 159.0
31.03910 146.0
31.04410 174.0
31.04910 179.0
31.05410 148.0
31.05910 145.0
31.06410 153.0
31.06910 164.0
31.07410 201.0
31.07910 182.0
31.08410 181.0
31.08910 177.0
31.09410 177.0
31.09910 166.0
31.10410 168.0
31.10910 195.0
31.11410 175.0
31.11910 165.0
31.12410 177.0
31.12910 198.0
31.13410 178.0
31.13910 182.0
31.14410 205.0
31.14910 197.0
31.15410 193.0
31.15910 162.0
31.16410 186.0
31.16910 211.0
31.17410 198.0
31.17910 205.0
31.18410 181.0
31.18910 201.0
31.19410 228.0
31.19910 205.0
31.20410 205.0
31.20910 217.0
31.21410 227.0
31.21910 206.0
31.22410 240.0
31.22910 237.0
31.23410 224.0
31.23910 207.0
31.24410 266.0
31.24910 227.0
31.25410 249.0
31.25910 233.0
31.26410 243.0
31.26910 232.0
31.27410 253.0
31.27910 258.0
31.28410 272.0
31.28910 263.0
31.29410 264.0
31.29910 292.0
31.30410 281.0
31.30910 305.0
31.31410 292.0
31.31910 263.0
31.32410 291.0
31.32910 275.0
31.33410 254.0
31.33910 325.0
31.34410 281.0
31.34910 316.0
31.35410 295.0
31.35910 305.0
31.36410 326.0
31.36910 319.0
31.37410 303.0
31.37910 331.0
31.38410 320.0
31.38910 293.0
31.39410 328.0
31.39910 346.0
31.40410 330.0
31.40910 329.0
31.41410 374.0
31.41910 352.0
31.42410 336.0
31.42910 357.0
31.43410 331.0
31.43910 329.0
31.44410 352.0
31.44910 326.0
31.45410 359.0
31.45910 341.0
31.46410 374.0
31.46910 335.0
31.47410 324.0
31.47910 362.0
31.48410 372.0
31.48910 335.0
31.49410 352.0
31.49910 369.0
31.50410 361.0
31.50910 355.0
31.51410 356.0
31.51910 366.0
31.52410 350.0
31.52910 338.0
31.53410 367.0
31.53910 366.0
31.54410 359.0
31.54910 308.0
31.55410 363.0
31.55910 348.0
31.56410 380.0
31.56910 342.0
31.57410 393.0
31.57910 363.0
31.58410 332.0
31.58910 330.0
31.59410 337.0
31.59910 366.0
31.60410 341.0
31.60910 359.0
31.61410 359.0
31.61910 350.0
31.62410 347.0
31.62910 345.0
31.63410 324.0
31.63910 340.0
31.64410 326.0
31.64910 342.0
31.65410 324.0
31.65910 310.0
31.66410 316.0
31.66910 335.0
31.67410 299.0
31.67910 301.0
31.68410 294.0
31.68910 310.0
31.69410 341.0
31.69910 336.0
31.70410 336.0
31.70910 310.0
31.71410 293.0
31.71910 288.0
31.72410 281.0
31.72910 310.0
31.73410 283.0
31.73910 287.0
31.74410 287.0
31.74910 296.0
31.75410 338.0
31.75910 295.0
31.76410 304.0
31.76910 293.0
31.77410 268.0
31.77910 277.0
31.78410 268.0
31.78910 283.0
31.79410 275.0
31.79910 275.0
31.80410 262.0
31.80910 239.0
31.81410 241.0
31.81910 252.0
31.82410 266.0
31.82910 268.0
31.83410 229.0
31.83910 278.0
31.84410 249.0
31.84910 268.0
31.85410 229.0
31.85910 218.0
31.86410 238.0
31.86910 236.0
31.87410 257.0
31.87910 221.0
31.88410 232.0
31.88910 256.0
31.89410 249.0
31.89910 230.0
31.90410 236.0
31.90910 226.0
31.91410 238.0
31.91910 213.0
31.92410 240.0
31.92910 211.0
31.93410 219.0
31.93910 235.0
31.94410 231.0
31.94910 207.0
31.95410 199.0
31.95910 207.0
31.96410 187.0
31.96910 233.0
31.97410 207.0
31.97910 210.0
31.98410 191.0
31.98910 202.0
31.99410 195.0
31.99910 208.0
32.00410 195.0
32.00910 214.0
32.01410 196.0
32.01910 178.0
32.02410 175.0
32.02910 193.0
32.03410 164.0
32.03910 189.0
32.04410 188.0
32.04910 182.0
32.05410 205.0
32.05910 200.0
32.06410 210.0
32.06910 221.0
32.07410 224.0
32.07910 191.0
32.08410 193.0
32.08910 211.0
32.09410 209.0
32.09910 189.0
32.10410 216.0
32.10910 188.0
32.11410 193.0
32.11910 187.0
32.12410 173.0
32.12910 189.0
32.13410 197.0
32.13910 168.0
32.14410 180.0
32.14910 203.0
32.15410 204.0
32.15910 190.0
32.16410 185.0
32.16910 185.0
32.17410 200.0
32.17910 208.0
32.18410 192.0
32.18910 186.0
32.19410 211.0
32.19910 156.0
32.20410 201.0
32.20910 179.0
32.21410 169.0
32.21910 189.0
32.22410 170.0
32.22910 188.0
32.23410 148.0
32.23910 153.0
32.24410 181.0
32.24910 164.0
32.25410 187.0
32.25910 194.0
32.26410 177.0
32.26910 174.0
32.27410 182.0
32.27910 185.0
32.28410 197.0
32.28910 177.0
32.29410 145.0
32.29910 159.0
32.30410 169.0
32.30910 164.0
32.31410 160.0
32.31910 136.0
32.32410 170.0
32.32910 144.0
32.33410 133.0
32.33910 138.0
32.34410 141.0
32.34910 155.0
32.35410 127.0
32.35910 137.0
32.36410 122.0
32.36910 121.0
32.37410 142.0
32.37910 130.0
32.38410 148.0
32.38910 120.0
32.39410 142.0
32.39910 128.0
32.40410 105.0
32.40910 133.0
32.41410 111.0
32.41910 123.0
32.42410 106.0
32.42910 124.0
32.43410 136.0
32.43910 113.0
32.44410 113.0
32.44910 112.0
32.45410 112.0
32.45910 125.0
32.46410 103.0
32.46910 100.0
32.47410 100.0
32.47910 110.0
32.48410 117.0
32.48910 122.0
32.49410 122.0
32.49910 102.0
32.50410 105.0
32.50910 98.0
32.51410 90.0
32.51910 105.0
32.52410 102.0
32.52910 131.0
32.53410 97.0
32.53910 100.0
32.54410 104.0
32.54910 96.0
32.55410 115.0
32.55910 87.0
32.56410 118.0
32.56910 112.0
32.57410 92.0
32.57910 119.0
32.58410 104.0
32.58910 127.0
32.59410 114.0
32.59910 102.0
32.60410 100.0
32.60910 123.0
32.61410 114.0
32.61910 117.0
32.62410 111.0
32.62910 100.0
32.63410 105.0
32.63910 100.0
32.64410 84.0
32.64910 107.0
32.65410 111.0
32.65910 111.0
32.66410 102.0
32.66910 105.0
32.67410 112.0
32.67910 117.0
32.68410 103.0
32.68910 95.0
32.69410 112.0
32.69910 89.0
32.70410 99.0
32.70910 105.0
32.71410 88.0
32.71910 99.0
32.72410 99.0
32.72910 102.0
32.73410 104.0
32.73910 87.0
32.74410 79.0
32.74910 86.0
32.75410 95.0
32.75910 100.0
32.76410 100.0
32.76910 99.0
32.77410 101.0
32.77910 99.0
32.78410 83.0
32.78910 84.0
32.79410 102.0
32.79910 100.0
32.80410 89.0
32.80910 86.0
32.81410 87.0
32.81910 80.0
32.82410 81.0
32.82910 93.0
32.83410 95.0
32.83910 101.0
32.84410 85.0
32.84910 81.0
32.85410 92.0
32.85910 85.0
32.86410 92.0
32.86910 110.0
32.87410 80.0
32.87910 100.0
32.88410 77.0
32.88910 86.0
32.89410 90.0
32.89910 87.0
32.90410 88.0
32.90910 107.0
32.91410 98.0
32.91910 78.0
32.92410 103.0
32.92910 93.0
32.93410 100.0
32.93910 94.0
32.94410 78.0
32.94910 90.0
32.95410 95.0
32.95910 88.0
32.96410 85.0
32.96910 96.0
32.97410 91.0
32.97910 103.0
32.98410 109.0
32.98910 91.0
32.99410 99.0
32.99910 86.0
33.00410 76.0
33.00910 86.0
33.01410 73.0
33.01910 66.0
33.02410 85.0
33.02910 82.0
33.03410 97.0
33.03910 82.0
33.04410 83.0
33.04910 102.0
33.05410 71.0
33.05910 94.0
33.06410 79.0
33.06910 89.0
33.07410 84.0
33.07910 84.0
33.08410 80.0
33.08910 86.0
33.09410 75.0
33.09910 84.0
33.10410 61.0
33.10910 76.0
33.11410 85.0
33.11910 89.0
33.12410 75.0
33.12910 85.0
33.13410 78.0
33.13910 78.0
33.14410 95.0
33.14910 88.0
33.15410 86.0
33.15910 91.0
33.16410 94.0
33.16910 67.0
33.17410 89.0
33.17910 74.0
33.18410 67.0
33.18910 77.0
33.19410 71.0
33.19910 95.0
33.20410 79.0
33.20910 100.0
33.21410 94.0
33.21910 76.0
33.22410 78.0
33.22910 92.0
33.23410 91.0
33.23910 80.0
33.24410 78.0
33.24910 81.0
33.25410 81.0
33.25910 73.0
33.26410 75.0
33.26910 92.0
33.27410 68.0
33.27910 77.0
33.28410 74.0
33.28910 70.0
33.29410 85.0
33.29910 88.0
33.30410 72.0
33.30910 98.0
33.31410 86.0
33.31910 105.0
33.32410 69.0
33.32910 83.0
33.33410 89.0
33.33910 70.0
33.34410 70.0
33.34910 72.0
33.35410 93.0
33.35910 81.0
33.36410 79.0
33.36910 72.0
33.37410 94.0
33.37910 69.0
33.38410 84.0
33.38910 82.0
33.39410 72.0
33.39910 78.0
33.40410 77.0
33.40910 74.0
33.41410 61.0
33.41910 75.0
33.42410 97.0
33.42910 61.0
33.43410 81.0
33.43910 79.0
33.44410 84.0
33.44910 66.0
33.45410 84.0
33.45910 89.0
33.46410 73.0
33.46910 77.0
33.47410 84.0
33.47910 70.0
33.48410 64.0
33.48910 69.0
33.49410 79.0
33.49910 83.0
33.50410 92.0
33.50910 85.0
33.51410 81.0