File: data/W6903r/XRD_Omega/scan_omega_4deg_step_0.005deg0_C4.xy
23.17830 91.0
23.18330 64.0
23.18830 78.0
23.19330 76.0
23.19830 80.0
23.20330 84.0
23.20830 74.0
23.21330 79.0
23.21830 83.0
23.22330 73.0
23.22830 88.0
23.23330 79.0
23.23830 94.0
23.24330 73.0
23.24830 67.0
23.25330 85.0
23.25830 81.0
23.26330 73.0
23.26830 79.0
23.27330 90.0
23.27830 89.0
23.28330 80.0
23.28830 79.0
23.29330 84.0
23.29830 94.0
23.30330 100.0
23.30830 87.0
23.31330 98.0
23.31830 86.0
23.32330 96.0
23.32830 107.0
23.33330 82.0
23.33830 79.0
23.34330 77.0
23.34830 76.0
23.35330 72.0
23.35830 84.0
23.36330 85.0
23.36830 96.0
23.37330 99.0
23.37830 98.0
23.38330 94.0
23.38830 90.0
23.39330 98.0
23.39830 88.0
23.40330 80.0
23.40830 98.0
23.41330 100.0
23.41830 81.0
23.42330 93.0
23.42830 92.0
23.43330 83.0
23.43830 96.0
23.44330 89.0
23.44830 82.0
23.45330 92.0
23.45830 82.0
23.46330 97.0
23.46830 84.0
23.47330 105.0
23.47830 89.0
23.48330 116.0
23.48830 101.0
23.49330 110.0
23.49830 83.0
23.50330 101.0
23.50830 102.0
23.51330 92.0
23.51830 75.0
23.52330 105.0
23.52830 94.0
23.53330 94.0
23.53830 96.0
23.54330 93.0
23.54830 102.0
23.55330 93.0
23.55830 108.0
23.56330 98.0
23.56830 90.0
23.57330 101.0
23.57830 103.0
23.58330 105.0
23.58830 104.0
23.59330 98.0
23.59830 105.0
23.60330 112.0
23.60830 122.0
23.61330 114.0
23.61830 91.0
23.62330 110.0
23.62830 120.0
23.63330 124.0
23.63830 110.0
23.64330 103.0
23.64830 130.0
23.65330 118.0
23.65830 105.0
23.66330 114.0
23.66830 127.0
23.67330 146.0
23.67830 105.0
23.68330 133.0
23.68830 121.0
23.69330 138.0
23.69830 108.0
23.70330 124.0
23.70830 126.0
23.71330 94.0
23.71830 94.0
23.72330 131.0
23.72830 137.0
23.73330 152.0
23.73830 119.0
23.74330 126.0
23.74830 145.0
23.75330 134.0
23.75830 138.0
23.76330 143.0
23.76830 117.0
23.77330 148.0
23.77830 162.0
23.78330 122.0
23.78830 137.0
23.79330 160.0
23.79830 147.0
23.80330 139.0
23.80830 142.0
23.81330 121.0
23.81830 169.0
23.82330 140.0
23.82830 161.0
23.83330 149.0
23.83830 163.0
23.84330 143.0
23.84830 140.0
23.85330 161.0
23.85830 165.0
23.86330 172.0
23.86830 185.0
23.87330 169.0
23.87830 192.0
23.88330 189.0
23.88830 177.0
23.89330 166.0
23.89830 176.0
23.90330 196.0
23.90830 174.0
23.91330 178.0
23.91830 214.0
23.92330 191.0
23.92830 189.0
23.93330 191.0
23.93830 186.0
23.94330 203.0
23.94830 215.0
23.95330 185.0
23.95830 187.0
23.96330 201.0
23.96830 194.0
23.97330 192.0
23.97830 195.0
23.98330 189.0
23.98830 210.0
23.99330 211.0
23.99830 191.0
24.00330 213.0
24.00830 225.0
24.01330 237.0
24.01830 224.0
24.02330 259.0
24.02830 223.0
24.03330 225.0
24.03830 243.0
24.04330 232.0
24.04830 228.0
24.05330 231.0
24.05830 228.0
24.06330 268.0
24.06830 249.0
24.07330 270.0
24.07830 261.0
24.08330 259.0
24.08830 274.0
24.09330 325.0
24.09830 260.0
24.10330 310.0
24.10830 294.0
24.11330 287.0
24.11830 306.0
24.12330 272.0
24.12830 300.0
24.13330 327.0
24.13830 321.0
24.14330 334.0
24.14830 347.0
24.15330 329.0
24.15830 325.0
24.16330 300.0
24.16830 320.0
24.17330 340.0
24.17830 360.0
24.18330 370.0
24.18830 320.0
24.19330 337.0
24.19830 343.0
24.20330 380.0
24.20830 379.0
24.21330 376.0
24.21830 380.0
24.22330 423.0
24.22830 431.0
24.23330 429.0
24.23830 422.0
24.24330 410.0
24.24830 438.0
24.25330 417.0
24.25830 451.0
24.26330 425.0
24.26830 441.0
24.27330 491.0
24.27830 467.0
24.28330 468.0
24.28830 475.0
24.29330 479.0
24.29830 489.0
24.30330 478.0
24.30830 486.0
24.31330 537.0
24.31830 533.0
24.32330 572.0
24.32830 534.0
24.33330 537.0
24.33830 524.0
24.34330 582.0
24.34830 590.0
24.35330 549.0
24.35830 609.0
24.36330 604.0
24.36830 609.0
24.37330 612.0
24.37830 648.0
24.38330 634.0
24.38830 667.0
24.39330 643.0
24.39830 648.0
24.40330 653.0
24.40830 679.0
24.41330 723.0
24.41830 721.0
24.42330 704.0
24.42830 747.0
24.43330 710.0
24.43830 755.0
24.44330 786.0
24.44830 775.0
24.45330 822.0
24.45830 778.0
24.46330 839.0
24.46830 848.0
24.47330 785.0
24.47830 851.0
24.48330 853.0
24.48830 863.0
24.49330 864.0
24.49830 922.0
24.50330 893.0
24.50830 942.0
24.51330 982.0
24.51830 980.0
24.52330 977.0
24.52830 967.0
24.53330 1003.0
24.53830 1040.0
24.54330 1035.0
24.54830 1089.0
24.55330 1025.0
24.55830 1044.0
24.56330 1101.0
24.56830 1122.0
24.57330 1173.0
24.57830 1127.0
24.58330 1210.0
24.58830 1197.0
24.59330 1193.0
24.59830 1197.0
24.60330 1254.0
24.60830 1208.0
24.61330 1239.0
24.61830 1304.0
24.62330 1303.0
24.62830 1300.0
24.63330 1337.0
24.63830 1404.0
24.64330 1434.0
24.64830 1405.0
24.65330 1406.0
24.65830 1463.0
24.66330 1497.0
24.66830 1462.0
24.67330 1398.0
24.67830 1511.0
24.68330 1475.0
24.68830 1554.0
24.69330 1579.0
24.69830 1586.0
24.70330 1588.0
24.70830 1674.0
24.71330 1641.0
24.71830 1702.0
24.72330 1688.0
24.72830 1662.0
24.73330 1693.0
24.73830 1808.0
24.74330 1758.0
24.74830 1822.0
24.75330 1804.0
24.75830 1857.0
24.76330 1801.0
24.76830 1887.0
24.77330 1880.0
24.77830 1943.0
24.78330 2020.0
24.78830 1996.0
24.79330 1968.0
24.79830 2020.0
24.80330 2085.0
24.80830 2074.0
24.81330 2013.0
24.81830 2057.0
24.82330 2072.0
24.82830 2103.0
24.83330 2092.0
24.83830 2178.0
24.84330 2168.0
24.84830 2198.0
24.85330 2247.0
24.85830 2231.0
24.86330 2232.0
24.86830 2331.0
24.87330 2333.0
24.87830 2372.0
24.88330 2272.0
24.88830 2364.0
24.89330 2414.0
24.89830 2456.0
24.90330 2422.0
24.90830 2456.0
24.91330 2441.0
24.91830 2525.0
24.92330 2549.0
24.92830 2555.0
24.93330 2575.0
24.93830 2570.0
24.94330 2709.0
24.94830 2603.0
24.95330 2692.0
24.95830 2569.0
24.96330 2699.0
24.96830 2656.0
24.97330 2722.0
24.97830 2641.0
24.98330 2761.0
24.98830 2762.0
24.99330 2845.0
24.99830 2786.0
25.00330 2927.0
25.00830 2815.0
25.01330 2850.0
25.01830 2922.0
25.02330 2842.0
25.02830 2877.0
25.03330 2860.0
25.03830 2970.0
25.04330 2906.0
25.04830 3009.0
25.05330 2965.0
25.05830 2958.0
25.06330 3030.0
25.06830 3060.0
25.07330 2908.0
25.07830 2998.0
25.08330 2984.0
25.08830 3092.0
25.09330 3067.0
25.09830 2935.0
25.10330 3101.0
25.10830 3091.0
25.11330 3070.0
25.11830 3100.0
25.12330 3167.0
25.12830 3072.0
25.13330 3083.0
25.13830 3111.0
25.14330 3026.0
25.14830 3108.0
25.15330 3118.0
25.15830 3172.0
25.16330 3047.0
25.16830 3138.0
25.17330 3026.0
25.17830 3194.0
25.18330 3155.0
25.18830 3075.0
25.19330 3009.0
25.19830 3121.0
25.20330 3034.0
25.20830 3178.0
25.21330 3067.0
25.21830 3060.0
25.22330 3019.0
25.22830 3077.0
25.23330 3007.0
25.23830 3130.0
25.24330 2988.0
25.24830 3051.0
25.25330 3024.0
25.25830 3027.0
25.26330 3073.0
25.26830 2970.0
25.27330 2977.0
25.27830 2950.0
25.28330 2963.0
25.28830 2966.0
25.29330 2959.0
25.29830 2858.0
25.30330 2918.0
25.30830 2734.0
25.31330 2812.0
25.31830 2812.0
25.32330 2805.0
25.32830 2728.0
25.33330 2800.0
25.33830 2695.0
25.34330 2674.0
25.34830 2785.0
25.35330 2727.0
25.35830 2791.0
25.36330 2686.0
25.36830 2654.0
25.37330 2639.0
25.37830 2581.0
25.38330 2606.0
25.38830 2617.0
25.39330 2610.0
25.39830 2462.0
25.40330 2451.0
25.40830 2443.0
25.41330 2480.0
25.41830 2537.0
25.42330 2494.0
25.42830 2421.0
25.43330 2450.0
25.43830 2371.0
25.44330 2389.0
25.44830 2344.0
25.45330 2297.0
25.45830 2301.0
25.46330 2286.0
25.46830 2282.0
25.47330 2188.0
25.47830 2120.0
25.48330 2103.0
25.48830 2200.0
25.49330 2156.0
25.49830 2116.0
25.50330 2094.0
25.50830 2089.0
25.51330 2132.0
25.51830 2028.0
25.52330 1941.0
25.52830 1973.0
25.53330 2000.0
25.53830 1917.0
25.54330 1897.0
25.54830 1854.0
25.55330 1885.0
25.55830 1880.0
25.56330 1839.0
25.56830 1856.0
25.57330 1881.0
25.57830 1779.0
25.58330 1785.0
25.58830 1839.0
25.59330 1640.0
25.59830 1693.0
25.60330 1707.0
25.60830 1678.0
25.61330 1738.0
25.61830 1606.0
25.62330 1680.0
25.62830 1642.0
25.63330 1570.0
25.63830 1541.0
25.64330 1538.0
25.64830 1587.0
25.65330 1479.0
25.65830 1519.0
25.66330 1384.0
25.66830 1420.0
25.67330 1483.0
25.67830 1363.0
25.68330 1327.0
25.68830 1373.0
25.69330 1372.0
25.69830 1340.0
25.70330 1309.0
25.70830 1229.0
25.71330 1230.0
25.71830 1209.0
25.72330 1245.0
25.72830 1242.0
25.73330 1208.0
25.73830 1153.0
25.74330 1113.0
25.74830 1099.0
25.75330 1128.0
25.75830 1064.0
25.76330 1134.0
25.76830 1034.0
25.77330 1044.0
25.77830 1075.0
25.78330 1002.0
25.78830 969.0
25.79330 1004.0
25.79830 992.0
25.80330 997.0
25.80830 952.0
25.81330 954.0
25.81830 989.0
25.82330 889.0
25.82830 899.0
25.83330 920.0
25.83830 854.0
25.84330 896.0
25.84830 786.0
25.85330 829.0
25.85830 834.0
25.86330 812.0
25.86830 851.0
25.87330 751.0
25.87830 777.0
25.88330 760.0
25.88830 773.0
25.89330 689.0
25.89830 721.0
25.90330 674.0
25.90830 679.0
25.91330 656.0
25.91830 696.0
25.92330 640.0
25.92830 641.0
25.93330 611.0
25.93830 670.0
25.94330 663.0
25.94830 604.0
25.95330 587.0
25.95830 563.0
25.96330 593.0
25.96830 597.0
25.97330 575.0
25.97830 556.0
25.98330 544.0
25.98830 523.0
25.99330 523.0
25.99830 573.0
26.00330 550.0
26.00830 524.0
26.01330 531.0
26.01830 477.0
26.02330 515.0
26.02830 521.0
26.03330 484.0
26.03830 436.0
26.04330 462.0
26.04830 480.0
26.05330 481.0
26.05830 492.0
26.06330 397.0
26.06830 466.0
26.07330 412.0
26.07830 400.0
26.08330 371.0
26.08830 385.0
26.09330 388.0
26.09830 403.0
26.10330 365.0
26.10830 366.0
26.11330 403.0
26.11830 374.0
26.12330 352.0
26.12830 368.0
26.13330 372.0
26.13830 335.0
26.14330 346.0
26.14830 339.0
26.15330 320.0
26.15830 315.0
26.16330 316.0
26.16830 307.0
26.17330 349.0
26.17830 325.0
26.18330 283.0
26.18830 334.0
26.19330 303.0
26.19830 297.0
26.20330 303.0
26.20830 297.0
26.21330 289.0
26.21830 309.0
26.22330 264.0
26.22830 271.0
26.23330 288.0
26.23830 261.0
26.24330 281.0
26.24830 273.0
26.25330 256.0
26.25830 231.0
26.26330 223.0
26.26830 251.0
26.27330 234.0
26.27830 228.0
26.28330 236.0
26.28830 247.0
26.29330 250.0
26.29830 249.0
26.30330 223.0
26.30830 214.0
26.31330 214.0
26.31830 211.0
26.32330 220.0
26.32830 210.0
26.33330 226.0
26.33830 188.0
26.34330 193.0
26.34830 212.0
26.35330 201.0
26.35830 184.0
26.36330 189.0
26.36830 180.0
26.37330 192.0
26.37830 207.0
26.38330 176.0
26.38830 181.0
26.39330 202.0
26.39830 182.0
26.40330 174.0
26.40830 174.0
26.41330 200.0
26.41830 156.0
26.42330 166.0
26.42830 173.0
26.43330 146.0
26.43830 172.0
26.44330 164.0
26.44830 176.0
26.45330 186.0
26.45830 159.0
26.46330 166.0
26.46830 147.0
26.47330 149.0
26.47830 149.0
26.48330 153.0
26.48830 157.0
26.49330 146.0
26.49830 135.0
26.50330 130.0
26.50830 129.0
26.51330 129.0
26.51830 146.0
26.52330 142.0
26.52830 144.0
26.53330 138.0
26.53830 141.0
26.54330 137.0
26.54830 128.0
26.55330 129.0
26.55830 129.0
26.56330 148.0
26.56830 143.0
26.57330 115.0
26.57830 121.0
26.58330 113.0
26.58830 104.0
26.59330 119.0
26.59830 106.0
26.60330 128.0
26.60830 120.0
26.61330 126.0
26.61830 118.0
26.62330 103.0
26.62830 127.0
26.63330 108.0
26.63830 126.0
26.64330 113.0
26.64830 110.0
26.65330 117.0
26.65830 128.0
26.66330 112.0
26.66830 114.0
26.67330 99.0
26.67830 106.0
26.68330 113.0
26.68830 99.0
26.69330 127.0
26.69830 132.0
26.70330 105.0
26.70830 99.0
26.71330 108.0
26.71830 114.0
26.72330 107.0
26.72830 124.0
26.73330 86.0
26.73830 104.0
26.74330 97.0
26.74830 109.0
26.75330 80.0
26.75830 105.0
26.76330 91.0
26.76830 107.0
26.77330 86.0
26.77830 103.0
26.78330 110.0
26.78830 92.0
26.79330 108.0
26.79830 85.0
26.80330 82.0
26.80830 87.0
26.81330 93.0
26.81830 103.0
26.82330 91.0
26.82830 85.0
26.83330 94.0
26.83830 118.0
26.84330 104.0
26.84830 86.0
26.85330 100.0
26.85830 80.0
26.86330 91.0
26.86830 98.0
26.87330 96.0
26.87830 97.0
26.88330 82.0
26.88830 87.0
26.89330 90.0
26.89830 89.0
26.90330 83.0
26.90830 93.0
26.91330 70.0
26.91830 77.0
26.92330 91.0
26.92830 87.0
26.93330 94.0
26.93830 89.0
26.94330 88.0
26.94830 85.0
26.95330 71.0
26.95830 82.0
26.96330 69.0
26.96830 95.0
26.97330 73.0
26.97830 69.0
26.98330 76.0
26.98830 66.0
26.99330 79.0
26.99830 69.0
27.00330 81.0
27.00830 67.0
27.01330 79.0
27.01830 86.0
27.02330 64.0
27.02830 89.0
27.03330 86.0
27.03830 81.0
27.04330 69.0
27.04830 78.0
27.05330 72.0
27.05830 83.0
27.06330 67.0
27.06830 72.0
27.07330 63.0
27.07830 76.0
27.08330 83.0
27.08830 68.0
27.09330 76.0
27.09830 75.0
27.10330 68.0
27.10830 69.0
27.11330 64.0
27.11830 73.0
27.12330 82.0
27.12830 73.0
27.13330 76.0
27.13830 69.0