File: data/W6785r/XRD_Omega/scan_omega_4deg_step_0.005deg0_7.xy
22.82210 38.0
22.82710 43.0
22.83210 45.0
22.83710 38.0
22.84210 35.0
22.84710 38.0
22.85210 32.0
22.85710 51.0
22.86210 37.0
22.86710 46.0
22.87210 32.0
22.87710 43.0
22.88210 35.0
22.88710 36.0
22.89210 48.0
22.89710 55.0
22.90210 42.0
22.90710 47.0
22.91210 50.0
22.91710 44.0
22.92210 45.0
22.92710 35.0
22.93210 45.0
22.93710 47.0
22.94210 41.0
22.94710 52.0
22.95210 48.0
22.95710 43.0
22.96210 40.0
22.96710 42.0
22.97210 39.0
22.97710 46.0
22.98210 36.0
22.98710 45.0
22.99210 47.0
22.99710 46.0
23.00210 42.0
23.00710 43.0
23.01210 45.0
23.01710 48.0
23.02210 33.0
23.02710 55.0
23.03210 47.0
23.03710 37.0
23.04210 43.0
23.04710 58.0
23.05210 53.0
23.05710 48.0
23.06210 45.0
23.06710 41.0
23.07210 38.0
23.07710 48.0
23.08210 44.0
23.08710 48.0
23.09210 26.0
23.09710 53.0
23.10210 51.0
23.10710 40.0
23.11210 38.0
23.11710 58.0
23.12210 41.0
23.12710 42.0
23.13210 36.0
23.13710 41.0
23.14210 45.0
23.14710 53.0
23.15210 34.0
23.15710 48.0
23.16210 62.0
23.16710 53.0
23.17210 60.0
23.17710 43.0
23.18210 50.0
23.18710 47.0
23.19210 44.0
23.19710 57.0
23.20210 33.0
23.20710 54.0
23.21210 52.0
23.21710 55.0
23.22210 52.0
23.22710 55.0
23.23210 54.0
23.23710 41.0
23.24210 63.0
23.24710 50.0
23.25210 62.0
23.25710 76.0
23.26210 42.0
23.26710 53.0
23.27210 58.0
23.27710 58.0
23.28210 48.0
23.28710 58.0
23.29210 46.0
23.29710 45.0
23.30210 63.0
23.30710 66.0
23.31210 49.0
23.31710 51.0
23.32210 54.0
23.32710 52.0
23.33210 55.0
23.33710 76.0
23.34210 63.0
23.34710 60.0
23.35210 46.0
23.35710 75.0
23.36210 54.0
23.36710 57.0
23.37210 67.0
23.37710 64.0
23.38210 65.0
23.38710 70.0
23.39210 70.0
23.39710 61.0
23.40210 58.0
23.40710 68.0
23.41210 61.0
23.41710 72.0
23.42210 71.0
23.42710 64.0
23.43210 54.0
23.43710 67.0
23.44210 66.0
23.44710 62.0
23.45210 64.0
23.45710 60.0
23.46210 74.0
23.46710 68.0
23.47210 76.0
23.47710 69.0
23.48210 72.0
23.48710 58.0
23.49210 83.0
23.49710 57.0
23.50210 74.0
23.50710 74.0
23.51210 71.0
23.51710 65.0
23.52210 57.0
23.52710 66.0
23.53210 48.0
23.53710 69.0
23.54210 72.0
23.54710 82.0
23.55210 73.0
23.55710 79.0
23.56210 66.0
23.56710 90.0
23.57210 81.0
23.57710 70.0
23.58210 62.0
23.58710 78.0
23.59210 89.0
23.59710 82.0
23.60210 88.0
23.60710 78.0
23.61210 90.0
23.61710 84.0
23.62210 69.0
23.62710 99.0
23.63210 92.0
23.63710 93.0
23.64210 88.0
23.64710 108.0
23.65210 91.0
23.65710 107.0
23.66210 105.0
23.66710 97.0
23.67210 108.0
23.67710 98.0
23.68210 100.0
23.68710 97.0
23.69210 93.0
23.69710 102.0
23.70210 105.0
23.70710 98.0
23.71210 96.0
23.71710 109.0
23.72210 124.0
23.72710 121.0
23.73210 113.0
23.73710 121.0
23.74210 87.0
23.74710 106.0
23.75210 134.0
23.75710 131.0
23.76210 109.0
23.76710 118.0
23.77210 126.0
23.77710 112.0
23.78210 126.0
23.78710 123.0
23.79210 124.0
23.79710 131.0
23.80210 157.0
23.80710 127.0
23.81210 130.0
23.81710 119.0
23.82210 151.0
23.82710 148.0
23.83210 159.0
23.83710 146.0
23.84210 142.0
23.84710 147.0
23.85210 162.0
23.85710 147.0
23.86210 155.0
23.86710 164.0
23.87210 163.0
23.87710 174.0
23.88210 140.0
23.88710 154.0
23.89210 183.0
23.89710 156.0
23.90210 186.0
23.90710 179.0
23.91210 185.0
23.91710 204.0
23.92210 199.0
23.92710 197.0
23.93210 185.0
23.93710 215.0
23.94210 221.0
23.94710 178.0
23.95210 204.0
23.95710 209.0
23.96210 207.0
23.96710 211.0
23.97210 217.0
23.97710 239.0
23.98210 243.0
23.98710 204.0
23.99210 218.0
23.99710 209.0
24.00210 233.0
24.00710 242.0
24.01210 262.0
24.01710 253.0
24.02210 253.0
24.02710 276.0
24.03210 269.0
24.03710 264.0
24.04210 289.0
24.04710 284.0
24.05210 279.0
24.05710 258.0
24.06210 299.0
24.06710 341.0
24.07210 312.0
24.07710 296.0
24.08210 314.0
24.08710 292.0
24.09210 324.0
24.09710 312.0
24.10210 318.0
24.10710 334.0
24.11210 339.0
24.11710 389.0
24.12210 376.0
24.12710 375.0
24.13210 397.0
24.13710 373.0
24.14210 402.0
24.14710 429.0
24.15210 427.0
24.15710 420.0
24.16210 387.0
24.16710 399.0
24.17210 470.0
24.17710 469.0
24.18210 500.0
24.18710 469.0
24.19210 443.0
24.19710 461.0
24.20210 470.0
24.20710 519.0
24.21210 501.0
24.21710 524.0
24.22210 531.0
24.22710 553.0
24.23210 566.0
24.23710 556.0
24.24210 612.0
24.24710 589.0
24.25210 581.0
24.25710 639.0
24.26210 616.0
24.26710 592.0
24.27210 642.0
24.27710 670.0
24.28210 698.0
24.28710 714.0
24.29210 688.0
24.29710 722.0
24.30210 717.0
24.30710 806.0
24.31210 757.0
24.31710 747.0
24.32210 816.0
24.32710 815.0
24.33210 854.0
24.33710 759.0
24.34210 861.0
24.34710 934.0
24.35210 877.0
24.35710 927.0
24.36210 892.0
24.36710 945.0
24.37210 946.0
24.37710 1030.0
24.38210 1021.0
24.38710 1002.0
24.39210 1101.0
24.39710 1074.0
24.40210 1094.0
24.40710 1060.0
24.41210 1090.0
24.41710 1152.0
24.42210 1133.0
24.42710 1120.0
24.43210 1213.0
24.43710 1167.0
24.44210 1216.0
24.44710 1126.0
24.45210 1212.0
24.45710 1284.0
24.46210 1372.0
24.46710 1393.0
24.47210 1407.0
24.47710 1347.0
24.48210 1374.0
24.48710 1380.0
24.49210 1499.0
24.49710 1514.0
24.50210 1459.0
24.50710 1467.0
24.51210 1537.0
24.51710 1564.0
24.52210 1543.0
24.52710 1604.0
24.53210 1571.0
24.53710 1638.0
24.54210 1677.0
24.54710 1675.0
24.55210 1738.0
24.55710 1725.0
24.56210 1784.0
24.56710 1857.0
24.57210 1895.0
24.57710 1790.0
24.58210 1889.0
24.58710 1877.0
24.59210 1917.0
24.59710 1899.0
24.60210 1986.0
24.60710 2046.0
24.61210 2037.0
24.61710 2013.0
24.62210 2002.0
24.62710 2047.0
24.63210 2050.0
24.63710 2204.0
24.64210 2165.0
24.64710 2227.0
24.65210 2153.0
24.65710 2276.0
24.66210 2234.0
24.66710 2182.0
24.67210 2301.0
24.67710 2296.0
24.68210 2297.0
24.68710 2293.0
24.69210 2365.0
24.69710 2460.0
24.70210 2475.0
24.70710 2378.0
24.71210 2367.0
24.71710 2410.0
24.72210 2615.0
24.72710 2587.0
24.73210 2502.0
24.73710 2570.0
24.74210 2480.0
24.74710 2465.0
24.75210 2446.0
24.75710 2541.0
24.76210 2549.0
24.76710 2599.0
24.77210 2592.0
24.77710 2586.0
24.78210 2519.0
24.78710 2512.0
24.79210 2450.0
24.79710 2610.0
24.80210 2508.0
24.80710 2578.0
24.81210 2521.0
24.81710 2588.0
24.82210 2584.0
24.82710 2557.0
24.83210 2522.0
24.83710 2607.0
24.84210 2486.0
24.84710 2609.0
24.85210 2541.0
24.85710 2544.0
24.86210 2585.0
24.86710 2557.0
24.87210 2436.0
24.87710 2439.0
24.88210 2408.0
24.88710 2506.0
24.89210 2429.0
24.89710 2495.0
24.90210 2526.0
24.90710 2477.0
24.91210 2544.0
24.91710 2383.0
24.92210 2370.0
24.92710 2313.0
24.93210 2270.0
24.93710 2357.0
24.94210 2387.0
24.94710 2234.0
24.95210 2167.0
24.95710 2191.0
24.96210 2193.0
24.96710 2080.0
24.97210 2143.0
24.97710 2016.0
24.98210 2031.0
24.98710 2113.0
24.99210 1953.0
24.99710 1922.0
25.00210 1883.0
25.00710 1917.0
25.01210 1933.0
25.01710 1962.0
25.02210 1846.0
25.02710 1812.0
25.03210 1772.0
25.03710 1803.0
25.04210 1813.0
25.04710 1650.0
25.05210 1642.0
25.05710 1682.0
25.06210 1656.0
25.06710 1619.0
25.07210 1663.0
25.07710 1610.0
25.08210 1616.0
25.08710 1574.0
25.09210 1515.0
25.09710 1492.0
25.10210 1489.0
25.10710 1498.0
25.11210 1485.0
25.11710 1401.0
25.12210 1431.0
25.12710 1400.0
25.13210 1286.0
25.13710 1354.0
25.14210 1362.0
25.14710 1312.0
25.15210 1272.0
25.15710 1229.0
25.16210 1152.0
25.16710 1144.0
25.17210 1122.0
25.17710 1166.0
25.18210 1079.0
25.18710 1097.0
25.19210 1103.0
25.19710 1020.0
25.20210 1087.0
25.20710 969.0
25.21210 1024.0
25.21710 991.0
25.22210 994.0
25.22710 919.0
25.23210 924.0
25.23710 903.0
25.24210 943.0
25.24710 839.0
25.25210 868.0
25.25710 887.0
25.26210 807.0
25.26710 808.0
25.27210 775.0
25.27710 795.0
25.28210 784.0
25.28710 754.0
25.29210 722.0
25.29710 748.0
25.30210 793.0
25.30710 694.0
25.31210 733.0
25.31710 688.0
25.32210 743.0
25.32710 619.0
25.33210 580.0
25.33710 626.0
25.34210 599.0
25.34710 581.0
25.35210 595.0
25.35710 579.0
25.36210 573.0
25.36710 525.0
25.37210 534.0
25.37710 533.0
25.38210 526.0
25.38710 477.0
25.39210 523.0
25.39710 503.0
25.40210 504.0
25.40710 497.0
25.41210 465.0
25.41710 446.0
25.42210 463.0
25.42710 482.0
25.43210 462.0
25.43710 419.0
25.44210 382.0
25.44710 409.0
25.45210 431.0
25.45710 416.0
25.46210 390.0
25.46710 350.0
25.47210 392.0
25.47710 368.0
25.48210 354.0
25.48710 362.0
25.49210 327.0
25.49710 335.0
25.50210 331.0
25.50710 331.0
25.51210 305.0
25.51710 284.0
25.52210 293.0
25.52710 290.0
25.53210 306.0
25.53710 312.0
25.54210 283.0
25.54710 315.0
25.55210 283.0
25.55710 275.0
25.56210 256.0
25.56710 281.0
25.57210 264.0
25.57710 254.0
25.58210 246.0
25.58710 222.0
25.59210 249.0
25.59710 213.0
25.60210 211.0
25.60710 207.0
25.61210 230.0
25.61710 202.0
25.62210 206.0
25.62710 178.0
25.63210 216.0
25.63710 211.0
25.64210 226.0
25.64710 163.0
25.65210 187.0
25.65710 200.0
25.66210 187.0
25.66710 185.0
25.67210 190.0
25.67710 179.0
25.68210 189.0
25.68710 169.0
25.69210 167.0
25.69710 175.0
25.70210 164.0
25.70710 174.0
25.71210 145.0
25.71710 150.0
25.72210 145.0
25.72710 155.0
25.73210 173.0
25.73710 152.0
25.74210 177.0
25.74710 142.0
25.75210 128.0
25.75710 140.0
25.76210 144.0
25.76710 143.0
25.77210 136.0
25.77710 129.0
25.78210 136.0
25.78710 141.0
25.79210 112.0
25.79710 140.0
25.80210 137.0
25.80710 131.0
25.81210 131.0
25.81710 136.0
25.82210 126.0
25.82710 119.0
25.83210 102.0
25.83710 120.0
25.84210 117.0
25.84710 111.0
25.85210 115.0
25.85710 118.0
25.86210 109.0
25.86710 118.0
25.87210 106.0
25.87710 103.0
25.88210 101.0
25.88710 108.0
25.89210 105.0
25.89710 93.0
25.90210 118.0
25.90710 94.0
25.91210 103.0
25.91710 90.0
25.92210 79.0
25.92710 102.0
25.93210 83.0
25.93710 93.0
25.94210 85.0
25.94710 94.0
25.95210 80.0
25.95710 96.0
25.96210 79.0
25.96710 100.0
25.97210 77.0
25.97710 84.0
25.98210 90.0
25.98710 79.0
25.99210 91.0
25.99710 81.0
26.00210 72.0
26.00710 80.0
26.01210 80.0
26.01710 82.0
26.02210 80.0
26.02710 80.0
26.03210 77.0
26.03710 82.0
26.04210 82.0
26.04710 76.0
26.05210 57.0
26.05710 77.0
26.06210 72.0
26.06710 66.0
26.07210 77.0
26.07710 82.0
26.08210 68.0
26.08710 74.0
26.09210 72.0
26.09710 71.0
26.10210 66.0
26.10710 58.0
26.11210 66.0
26.11710 66.0
26.12210 54.0
26.12710 65.0
26.13210 72.0
26.13710 67.0
26.14210 65.0
26.14710 91.0
26.15210 61.0
26.15710 65.0
26.16210 65.0
26.16710 61.0
26.17210 46.0
26.17710 54.0
26.18210 49.0
26.18710 57.0
26.19210 50.0
26.19710 58.0
26.20210 55.0
26.20710 56.0
26.21210 52.0
26.21710 55.0
26.22210 58.0
26.22710 47.0
26.23210 67.0
26.23710 62.0
26.24210 56.0
26.24710 53.0
26.25210 48.0
26.25710 48.0
26.26210 57.0
26.26710 56.0
26.27210 54.0
26.27710 52.0
26.28210 50.0
26.28710 55.0
26.29210 49.0
26.29710 55.0
26.30210 55.0
26.30710 49.0
26.31210 50.0
26.31710 65.0
26.32210 56.0
26.32710 54.0
26.33210 63.0
26.33710 52.0
26.34210 54.0
26.34710 42.0
26.35210 50.0
26.35710 49.0
26.36210 46.0
26.36710 51.0
26.37210 43.0
26.37710 39.0
26.38210 41.0
26.38710 39.0
26.39210 43.0
26.39710 47.0
26.40210 45.0
26.40710 59.0
26.41210 52.0
26.41710 48.0
26.42210 47.0
26.42710 50.0
26.43210 52.0
26.43710 46.0
26.44210 47.0
26.44710 49.0
26.45210 54.0
26.45710 41.0
26.46210 47.0
26.46710 56.0
26.47210 47.0
26.47710 55.0
26.48210 48.0
26.48710 48.0
26.49210 31.0
26.49710 54.0
26.50210 46.0
26.50710 38.0
26.51210 41.0
26.51710 37.0
26.52210 36.0
26.52710 41.0
26.53210 24.0
26.53710 46.0
26.54210 46.0
26.54710 35.0
26.55210 41.0
26.55710 42.0
26.56210 38.0
26.56710 39.0
26.57210 46.0
26.57710 34.0
26.58210 37.0
26.58710 41.0
26.59210 32.0
26.59710 40.0
26.60210 48.0
26.60710 36.0
26.61210 33.0
26.61710 27.0
26.62210 29.0
26.62710 38.0
26.63210 42.0
26.63710 38.0
26.64210 40.0
26.64710 30.0
26.65210 33.0
26.65710 35.0
26.66210 34.0
26.66710 50.0
26.67210 41.0
26.67710 41.0
26.68210 38.0
26.68710 38.0
26.69210 47.0
26.69710 41.0
26.70210 46.0
26.70710 43.0
26.71210 29.0
26.71710 44.0
26.72210 44.0
26.72710 38.0
26.73210 43.0
26.73710 43.0
26.74210 43.0
26.74710 40.0
26.75210 37.0
26.75710 36.0
26.76210 39.0
26.76710 33.0
26.77210 31.0
26.77710 45.0
26.78210 41.0