File: data/W6902c/XRD_Omega/scan_omega_4deg_step_0.005deg0_C3_3.xy
17.63460 58.0
17.63960 63.0
17.64460 59.0
17.64960 72.0
17.65460 55.0
17.65960 49.0
17.66460 67.0
17.66960 67.0
17.67460 79.0
17.67960 64.0
17.68460 59.0
17.68960 72.0
17.69460 64.0
17.69960 54.0
17.70460 62.0
17.70960 75.0
17.71460 48.0
17.71960 65.0
17.72460 61.0
17.72960 66.0
17.73460 53.0
17.73960 58.0
17.74460 58.0
17.74960 62.0
17.75460 59.0
17.75960 68.0
17.76460 61.0
17.76960 64.0
17.77460 71.0
17.77960 70.0
17.78460 63.0
17.78960 65.0
17.79460 64.0
17.79960 78.0
17.80460 69.0
17.80960 80.0
17.81460 63.0
17.81960 71.0
17.82460 52.0
17.82960 59.0
17.83460 80.0
17.83960 57.0
17.84460 50.0
17.84960 50.0
17.85460 57.0
17.85960 64.0
17.86460 57.0
17.86960 54.0
17.87460 62.0
17.87960 64.0
17.88460 51.0
17.88960 62.0
17.89460 57.0
17.89960 61.0
17.90460 61.0
17.90960 79.0
17.91460 62.0
17.91960 54.0
17.92460 63.0
17.92960 77.0
17.93460 61.0
17.93960 61.0
17.94460 64.0
17.94960 58.0
17.95460 66.0
17.95960 57.0
17.96460 45.0
17.96960 52.0
17.97460 60.0
17.97960 53.0
17.98460 77.0
17.98960 64.0
17.99460 52.0
17.99960 60.0
18.00460 57.0
18.00960 61.0
18.01460 64.0
18.01960 63.0
18.02460 53.0
18.02960 65.0
18.03460 63.0
18.03960 52.0
18.04460 57.0
18.04960 70.0
18.05460 57.0
18.05960 58.0
18.06460 56.0
18.06960 71.0
18.07460 78.0
18.07960 67.0
18.08460 64.0
18.08960 81.0
18.09460 59.0
18.09960 59.0
18.10460 75.0
18.10960 49.0
18.11460 53.0
18.11960 61.0
18.12460 66.0
18.12960 64.0
18.13460 62.0
18.13960 50.0
18.14460 64.0
18.14960 60.0
18.15460 44.0
18.15960 62.0
18.16460 52.0
18.16960 58.0
18.17460 67.0
18.17960 58.0
18.18460 70.0
18.18960 62.0
18.19460 59.0
18.19960 63.0
18.20460 58.0
18.20960 50.0
18.21460 68.0
18.21960 68.0
18.22460 73.0
18.22960 50.0
18.23460 76.0
18.23960 75.0
18.24460 63.0
18.24960 63.0
18.25460 66.0
18.25960 61.0
18.26460 52.0
18.26960 61.0
18.27460 53.0
18.27960 63.0
18.28460 62.0
18.28960 57.0
18.29460 48.0
18.29960 74.0
18.30460 62.0
18.30960 88.0
18.31460 48.0
18.31960 63.0
18.32460 49.0
18.32960 50.0
18.33460 69.0
18.33960 55.0
18.34460 48.0
18.34960 56.0
18.35460 58.0
18.35960 57.0
18.36460 71.0
18.36960 72.0
18.37460 71.0
18.37960 63.0
18.38460 67.0
18.38960 47.0
18.39460 65.0
18.39960 61.0
18.40460 56.0
18.40960 58.0
18.41460 60.0
18.41960 53.0
18.42460 59.0
18.42960 62.0
18.43460 69.0
18.43960 67.0
18.44460 71.0
18.44960 61.0
18.45460 67.0
18.45960 55.0
18.46460 59.0
18.46960 68.0
18.47460 65.0
18.47960 47.0
18.48460 62.0
18.48960 76.0
18.49460 53.0
18.49960 70.0
18.50460 77.0
18.50960 67.0
18.51460 65.0
18.51960 66.0
18.52460 68.0
18.52960 57.0
18.53460 63.0
18.53960 71.0
18.54460 66.0
18.54960 69.0
18.55460 62.0
18.55960 70.0
18.56460 65.0
18.56960 63.0
18.57460 61.0
18.57960 71.0
18.58460 61.0
18.58960 69.0
18.59460 84.0
18.59960 88.0
18.60460 70.0
18.60960 63.0
18.61460 62.0
18.61960 67.0
18.62460 78.0
18.62960 70.0
18.63460 70.0
18.63960 74.0
18.64460 74.0
18.64960 71.0
18.65460 76.0
18.65960 72.0
18.66460 61.0
18.66960 70.0
18.67460 71.0
18.67960 59.0
18.68460 67.0
18.68960 80.0
18.69460 62.0
18.69960 74.0
18.70460 73.0
18.70960 72.0
18.71460 82.0
18.71960 81.0
18.72460 84.0
18.72960 72.0
18.73460 80.0
18.73960 66.0
18.74460 72.0
18.74960 83.0
18.75460 87.0
18.75960 85.0
18.76460 71.0
18.76960 86.0
18.77460 67.0
18.77960 63.0
18.78460 86.0
18.78960 92.0
18.79460 75.0
18.79960 91.0
18.80460 82.0
18.80960 79.0
18.81460 76.0
18.81960 77.0
18.82460 65.0
18.82960 75.0
18.83460 57.0
18.83960 75.0
18.84460 67.0
18.84960 81.0
18.85460 71.0
18.85960 88.0
18.86460 70.0
18.86960 81.0
18.87460 90.0
18.87960 79.0
18.88460 94.0
18.88960 89.0
18.89460 98.0
18.89960 87.0
18.90460 83.0
18.90960 92.0
18.91460 80.0
18.91960 79.0
18.92460 80.0
18.92960 78.0
18.93460 83.0
18.93960 85.0
18.94460 79.0
18.94960 85.0
18.95460 84.0
18.95960 74.0
18.96460 110.0
18.96960 99.0
18.97460 89.0
18.97960 86.0
18.98460 88.0
18.98960 90.0
18.99460 115.0
18.99960 97.0
19.00460 85.0
19.00960 95.0
19.01460 86.0
19.01960 92.0
19.02460 96.0
19.02960 92.0
19.03460 101.0
19.03960 93.0
19.04460 94.0
19.04960 97.0
19.05460 108.0
19.05960 102.0
19.06460 106.0
19.06960 106.0
19.07460 111.0
19.07960 100.0
19.08460 103.0
19.08960 111.0
19.09460 107.0
19.09960 118.0
19.10460 121.0
19.10960 112.0
19.11460 100.0
19.11960 109.0
19.12460 133.0
19.12960 123.0
19.13460 103.0
19.13960 125.0
19.14460 120.0
19.14960 146.0
19.15460 125.0
19.15960 130.0
19.16460 148.0
19.16960 141.0
19.17460 138.0
19.17960 131.0
19.18460 128.0
19.18960 144.0
19.19460 143.0
19.19960 129.0
19.20460 152.0
19.20960 138.0
19.21460 147.0
19.21960 153.0
19.22460 156.0
19.22960 173.0
19.23460 151.0
19.23960 143.0
19.24460 169.0
19.24960 157.0
19.25460 167.0
19.25960 185.0
19.26460 185.0
19.26960 190.0
19.27460 198.0
19.27960 206.0
19.28460 154.0
19.28960 202.0
19.29460 215.0
19.29960 232.0
19.30460 223.0
19.30960 227.0
19.31460 216.0
19.31960 215.0
19.32460 227.0
19.32960 218.0
19.33460 238.0
19.33960 212.0
19.34460 245.0
19.34960 267.0
19.35460 290.0
19.35960 244.0
19.36460 278.0
19.36960 302.0
19.37460 301.0
19.37960 331.0
19.38460 318.0
19.38960 333.0
19.39460 335.0
19.39960 370.0
19.40460 382.0
19.40960 390.0
19.41460 397.0
19.41960 368.0
19.42460 400.0
19.42960 434.0
19.43460 464.0
19.43960 504.0
19.44460 522.0
19.44960 525.0
19.45460 525.0
19.45960 622.0
19.46460 677.0
19.46960 736.0
19.47460 876.0
19.47960 979.0
19.48460 1097.0
19.48960 1228.0
19.49460 1455.0
19.49960 1681.0
19.50460 1864.0
19.50960 1971.0
19.51460 2096.0
19.51960 2342.0
19.52460 2585.0
19.52960 2641.0
19.53460 2802.0
19.53960 3046.0
19.54460 3276.0
19.54960 3604.0
19.55460 3879.0
19.55960 4369.0
19.56460 5013.0
19.56960 5493.0
19.57460 6069.0
19.57960 6714.0
19.58460 7037.0
19.58960 7507.0
19.59460 8093.0
19.59960 8342.0
19.60460 8567.0
19.60960 8620.0
19.61460 8482.0
19.61960 8361.0
19.62460 8319.0
19.62960 8026.0
19.63460 7803.0
19.63960 7441.0
19.64460 7141.0
19.64960 6800.0
19.65460 6515.0
19.65960 6203.0
19.66460 5693.0
19.66960 5322.0
19.67460 4967.0
19.67960 4638.0
19.68460 4202.0
19.68960 3907.0
19.69460 3593.0
19.69960 3089.0
19.70460 2929.0
19.70960 2673.0
19.71460 2361.0
19.71960 2190.0
19.72460 1992.0
19.72960 1786.0
19.73460 1663.0
19.73960 1536.0
19.74460 1413.0
19.74960 1256.0
19.75460 1095.0
19.75960 957.0
19.76460 864.0
19.76960 819.0
19.77460 780.0
19.77960 681.0
19.78460 666.0
19.78960 636.0
19.79460 646.0
19.79960 600.0
19.80460 558.0
19.80960 505.0
19.81460 476.0
19.81960 469.0
19.82460 443.0
19.82960 407.0
19.83460 422.0
19.83960 399.0
19.84460 394.0
19.84960 375.0
19.85460 337.0
19.85960 329.0
19.86460 322.0
19.86960 323.0
19.87460 310.0
19.87960 292.0
19.88460 285.0
19.88960 268.0
19.89460 291.0
19.89960 271.0
19.90460 249.0
19.90960 247.0
19.91460 249.0
19.91960 251.0
19.92460 198.0
19.92960 232.0
19.93460 214.0
19.93960 216.0
19.94460 196.0
19.94960 190.0
19.95460 185.0
19.95960 198.0
19.96460 178.0
19.96960 186.0
19.97460 213.0
19.97960 172.0
19.98460 159.0
19.98960 164.0
19.99460 144.0
19.99960 179.0
20.00460 211.0
20.00960 161.0
20.01460 144.0
20.01960 146.0
20.02460 146.0
20.02960 144.0
20.03460 154.0
20.03960 158.0
20.04460 135.0
20.04960 143.0
20.05460 111.0
20.05960 121.0
20.06460 130.0
20.06960 128.0
20.07460 140.0
20.07960 113.0
20.08460 124.0
20.08960 136.0
20.09460 139.0
20.09960 120.0
20.10460 125.0
20.10960 122.0
20.11460 95.0
20.11960 116.0
20.12460 121.0
20.12960 115.0
20.13460 107.0
20.13960 98.0
20.14460 115.0
20.14960 98.0
20.15460 96.0
20.15960 120.0
20.16460 100.0
20.16960 134.0
20.17460 102.0
20.17960 130.0
20.18460 94.0
20.18960 96.0
20.19460 89.0
20.19960 82.0
20.20460 74.0
20.20960 79.0
20.21460 94.0
20.21960 96.0
20.22460 99.0
20.22960 100.0
20.23460 95.0
20.23960 97.0
20.24460 77.0
20.24960 88.0
20.25460 98.0
20.25960 70.0
20.26460 85.0
20.26960 100.0
20.27460 74.0
20.27960 79.0
20.28460 87.0
20.28960 88.0
20.29460 102.0
20.29960 93.0
20.30460 77.0
20.30960 77.0
20.31460 92.0
20.31960 104.0
20.32460 72.0
20.32960 91.0
20.33460 84.0
20.33960 78.0
20.34460 73.0
20.34960 71.0
20.35460 92.0
20.35960 79.0
20.36460 69.0
20.36960 72.0
20.37460 82.0
20.37960 67.0
20.38460 74.0
20.38960 79.0
20.39460 61.0
20.39960 66.0
20.40460 94.0
20.40960 67.0
20.41460 95.0
20.41960 70.0
20.42460 84.0
20.42960 71.0
20.43460 80.0
20.43960 67.0
20.44460 78.0
20.44960 77.0
20.45460 78.0
20.45960 80.0
20.46460 57.0
20.46960 67.0
20.47460 74.0
20.47960 84.0
20.48460 85.0
20.48960 64.0
20.49460 75.0
20.49960 66.0
20.50460 77.0
20.50960 71.0
20.51460 63.0
20.51960 73.0
20.52460 66.0
20.52960 63.0
20.53460 64.0
20.53960 55.0
20.54460 78.0
20.54960 73.0
20.55460 72.0
20.55960 72.0
20.56460 62.0
20.56960 64.0
20.57460 64.0
20.57960 54.0
20.58460 60.0
20.58960 57.0
20.59460 66.0
20.59960 63.0
20.60460 70.0
20.60960 62.0
20.61460 63.0
20.61960 73.0
20.62460 65.0
20.62960 60.0
20.63460 73.0
20.63960 61.0
20.64460 63.0
20.64960 69.0
20.65460 58.0
20.65960 67.0
20.66460 62.0
20.66960 53.0
20.67460 70.0
20.67960 69.0
20.68460 61.0
20.68960 78.0
20.69460 66.0
20.69960 52.0
20.70460 56.0
20.70960 72.0
20.71460 49.0
20.71960 79.0
20.72460 56.0
20.72960 46.0
20.73460 67.0
20.73960 66.0
20.74460 63.0
20.74960 57.0
20.75460 45.0
20.75960 57.0
20.76460 61.0
20.76960 58.0
20.77460 80.0
20.77960 63.0
20.78460 66.0
20.78960 57.0
20.79460 57.0
20.79960 56.0
20.80460 49.0
20.80960 64.0
20.81460 62.0
20.81960 59.0
20.82460 59.0
20.82960 62.0
20.83460 55.0
20.83960 59.0
20.84460 85.0
20.84960 40.0
20.85460 78.0
20.85960 62.0
20.86460 65.0
20.86960 57.0
20.87460 59.0
20.87960 79.0
20.88460 77.0
20.88960 49.0
20.89460 57.0
20.89960 50.0
20.90460 59.0
20.90960 51.0
20.91460 66.0
20.91960 61.0
20.92460 63.0
20.92960 57.0
20.93460 58.0
20.93960 58.0
20.94460 55.0
20.94960 74.0
20.95460 60.0
20.95960 67.0
20.96460 57.0
20.96960 66.0
20.97460 51.0
20.97960 53.0
20.98460 60.0
20.98960 52.0
20.99460 58.0
20.99960 58.0
21.00460 51.0
21.00960 61.0
21.01460 53.0
21.01960 59.0
21.02460 58.0
21.02960 59.0
21.03460 65.0
21.03960 86.0
21.04460 59.0
21.04960 59.0
21.05460 61.0
21.05960 71.0
21.06460 55.0
21.06960 60.0
21.07460 62.0
21.07960 53.0
21.08460 53.0
21.08960 58.0
21.09460 60.0
21.09960 64.0
21.10460 57.0
21.10960 46.0
21.11460 47.0
21.11960 49.0
21.12460 54.0
21.12960 58.0
21.13460 61.0
21.13960 62.0
21.14460 54.0
21.14960 49.0
21.15460 52.0
21.15960 56.0
21.16460 58.0
21.16960 47.0
21.17460 66.0
21.17960 62.0
21.18460 43.0
21.18960 64.0
21.19460 67.0
21.19960 55.0
21.20460 68.0
21.20960 49.0
21.21460 61.0
21.21960 61.0
21.22460 44.0
21.22960 60.0
21.23460 50.0
21.23960 63.0
21.24460 53.0
21.24960 69.0
21.25460 50.0
21.25960 71.0
21.26460 55.0
21.26960 52.0
21.27460 59.0
21.27960 50.0
21.28460 59.0
21.28960 46.0
21.29460 62.0
21.29960 48.0
21.30460 58.0
21.30960 71.0
21.31460 53.0
21.31960 54.0
21.32460 52.0
21.32960 50.0
21.33460 61.0
21.33960 58.0
21.34460 54.0
21.34960 63.0
21.35460 48.0
21.35960 47.0
21.36460 63.0
21.36960 55.0
21.37460 60.0
21.37960 64.0
21.38460 48.0
21.38960 57.0
21.39460 43.0
21.39960 61.0
21.40460 62.0
21.40960 53.0
21.41460 63.0
21.41960 51.0
21.42460 62.0
21.42960 62.0
21.43460 70.0
21.43960 51.0
21.44460 53.0
21.44960 58.0
21.45460 56.0
21.45960 67.0
21.46460 58.0
21.46960 64.0
21.47460 64.0
21.47960 53.0
21.48460 49.0
21.48960 61.0
21.49460 54.0
21.49960 57.0
21.50460 51.0
21.50960 58.0
21.51460 46.0
21.51960 59.0
21.52460 46.0
21.52960 41.0
21.53460 52.0
21.53960 57.0
21.54460 69.0
21.54960 62.0
21.55460 48.0
21.55960 54.0
21.56460 57.0
21.56960 50.0
21.57460 53.0
21.57960 47.0
21.58460 58.0
21.58960 56.0
21.59460 55.0