File: data/W6901m/XRD_2ThetaOmega/scan_2th-om_m_Cr2O3_55-75deg_PIXscan_4min_C2.xy
55.0019 139.0
55.0166 127.0
55.0314 131.0
55.0462 144.0
55.0609 140.0
55.0757 136.0
55.0905 162.0
55.1053 143.0
55.12 142.0
55.1348 142.0
55.1496 129.0
55.1643 143.0
55.1791 129.0
55.1939 122.0
55.2087 134.0
55.2234 123.0
55.2382 132.0
55.253 131.0
55.2678 113.0
55.2825 138.0
55.2973 112.0
55.3121 129.0
55.3268 142.0
55.3416 130.0
55.3564 122.0
55.3712 136.0
55.3859 130.0
55.4007 141.0
55.4155 132.0
55.4302 125.0
55.445 141.0
55.4598 139.0
55.4746 153.0
55.4893 110.0
55.5041 108.0
55.5189 144.0
55.5336 160.0
55.5484 151.0
55.5632 146.0
55.578 125.0
55.5927 121.0
55.6075 144.0
55.6223 159.0
55.637 143.0
55.6518 128.0
55.6666 128.0
55.6814 148.0
55.6961 157.0
55.7109 119.0
55.7257 120.0
55.7404 121.0
55.7552 135.0
55.77 142.0
55.7848 136.0
55.7995 146.0
55.8143 136.0
55.8291 127.0
55.8438 121.0
55.8586 126.0
55.8734 141.0
55.8882 130.0
55.9029 142.0
55.9177 136.0
55.9325 144.0
55.9472 135.0
55.962 127.0
55.9768 126.0
55.9916 127.0
56.0063 137.0
56.0211 125.0
56.0359 138.0
56.0506 122.0
56.0654 134.0
56.0802 129.0
56.095 139.0
56.1097 138.0
56.1245 144.0
56.1393 141.0
56.154 148.0
56.1688 112.0
56.1836 126.0
56.1984 127.0
56.2131 134.0
56.2279 138.0
56.2427 138.0
56.2574 120.0
56.2722 130.0
56.287 122.0
56.3018 131.0
56.3165 118.0
56.3313 120.0
56.3461 112.0
56.3608 132.0
56.3756 142.0
56.3904 129.0
56.4052 134.0
56.4199 116.0
56.4347 132.0
56.4495 123.0
56.4642 138.0
56.479 134.0
56.4938 133.0
56.5086 130.0
56.5233 130.0
56.5381 158.0
56.5529 128.0
56.5676 151.0
56.5824 137.0
56.5972 132.0
56.612 130.0
56.6267 132.0
56.6415 158.0
56.6563 140.0
56.671 138.0
56.6858 120.0
56.7006 125.0
56.7154 123.0
56.7301 142.0
56.7449 157.0
56.7597 126.0
56.7745 149.0
56.7892 131.0
56.804 147.0
56.8188 120.0
56.8335 134.0
56.8483 125.0
56.8631 123.0
56.8779 139.0
56.8926 102.0
56.9074 143.0
56.9222 146.0
56.9369 107.0
56.9517 120.0
56.9665 112.0
56.9813 122.0
56.996 143.0
57.0108 140.0
57.0256 126.0
57.0403 140.0
57.0551 136.0
57.0699 123.0
57.0847 130.0
57.0994 135.0
57.1142 150.0
57.129 132.0
57.1437 129.0
57.1585 140.0
57.1733 138.0
57.1881 157.0
57.2028 145.0
57.2176 132.0
57.2324 141.0
57.2471 123.0
57.2619 139.0
57.2767 141.0
57.2915 133.0
57.3062 134.0
57.321 166.0
57.3358 141.0
57.3505 137.0
57.3653 126.0
57.3801 137.0
57.3949 151.0
57.4096 153.0
57.4244 144.0
57.4392 130.0
57.4539 138.0
57.4687 139.0
57.4835 146.0
57.4983 128.0
57.513 155.0
57.5278 148.0
57.5426 135.0
57.5573 117.0
57.5721 136.0
57.5869 154.0
57.6017 126.0
57.6164 160.0
57.6312 138.0
57.646 150.0
57.6607 142.0
57.6755 149.0
57.6903 131.0
57.7051 144.0
57.7198 134.0
57.7346 149.0
57.7494 134.0
57.7641 109.0
57.7789 131.0
57.7937 146.0
57.8085 135.0
57.8232 137.0
57.838 146.0
57.8528 132.0
57.8675 146.0
57.8823 142.0
57.8971 141.0
57.9119 119.0
57.9266 118.0
57.9414 135.0
57.9562 136.0
57.9709 140.0
57.9857 151.0
58.0005 128.0
58.0153 135.0
58.03 133.0
58.0448 132.0
58.0596 139.0
58.0743 128.0
58.0891 151.0
58.1039 135.0
58.1187 136.0
58.1334 132.0
58.1482 166.0
58.163 134.0
58.1777 126.0
58.1925 137.0
58.2073 141.0
58.2221 138.0
58.2368 137.0
58.2516 129.0
58.2664 141.0
58.2812 131.0
58.2959 123.0
58.3107 143.0
58.3255 162.0
58.3402 141.0
58.355 136.0
58.3698 139.0
58.3846 140.0
58.3993 115.0
58.4141 155.0
58.4289 137.0
58.4436 132.0
58.4584 137.0
58.4732 121.0
58.488 131.0
58.5027 128.0
58.5175 144.0
58.5323 144.0
58.547 128.0
58.5618 135.0
58.5766 122.0
58.5914 137.0
58.6061 137.0
58.6209 142.0
58.6357 148.0
58.6504 125.0
58.6652 149.0
58.68 136.0
58.6948 145.0
58.7095 134.0
58.7243 139.0
58.7391 156.0
58.7538 125.0
58.7686 135.0
58.7834 120.0
58.7982 119.0
58.8129 147.0
58.8277 148.0
58.8425 134.0
58.8572 139.0
58.872 134.0
58.8868 155.0
58.9016 130.0
58.9163 135.0
58.9311 119.0
58.9459 140.0
58.9606 120.0
58.9754 125.0
58.9902 161.0
59.005 142.0
59.0197 134.0
59.0345 126.0
59.0493 126.0
59.064 149.0
59.0788 150.0
59.0936 135.0
59.1084 127.0
59.1231 133.0
59.1379 135.0
59.1527 151.0
59.1674 125.0
59.1822 125.0
59.197 144.0
59.2118 141.0
59.2265 139.0
59.2413 131.0
59.2561 124.0
59.2708 145.0
59.2856 140.0
59.3004 124.0
59.3152 118.0
59.3299 131.0
59.3447 127.0
59.3595 173.0
59.3742 136.0
59.389 135.0
59.4038 152.0
59.4186 146.0
59.4333 133.0
59.4481 133.0
59.4629 146.0
59.4776 142.0
59.4924 142.0
59.5072 139.0
59.522 138.0
59.5367 142.0
59.5515 153.0
59.5663 108.0
59.581 153.0
59.5958 133.0
59.6106 158.0
59.6254 131.0
59.6401 143.0
59.6549 157.0
59.6697 137.0
59.6844 129.0
59.6992 142.0
59.714 120.0
59.7288 145.0
59.7435 161.0
59.7583 143.0
59.7731 146.0
59.7878 152.0
59.8026 152.0
59.8174 133.0
59.8322 137.0
59.8469 138.0
59.8617 123.0
59.8765 135.0
59.8913 152.0
59.906 139.0
59.9208 143.0
59.9356 115.0
59.9503 114.0
59.9651 114.0
59.9799 151.0
59.9947 122.0
60.0094 134.0
60.0242 138.0
60.039 131.0
60.0537 149.0
60.0685 139.0
60.0833 145.0
60.0981 160.0
60.1128 161.0
60.1276 143.0
60.1424 138.0
60.1571 136.0
60.1719 139.0
60.1867 140.0
60.2015 146.0
60.2162 147.0
60.231 151.0
60.2458 140.0
60.2605 142.0
60.2753 157.0
60.2901 185.0
60.3049 173.0
60.3196 130.0
60.3344 151.0
60.3492 143.0
60.3639 175.0
60.3787 164.0
60.3935 141.0
60.4083 154.0
60.423 150.0
60.4378 168.0
60.4526 141.0
60.4673 169.0
60.4821 147.0
60.4969 135.0
60.5117 146.0
60.5264 132.0
60.5412 133.0
60.556 152.0
60.5707 112.0
60.5855 144.0
60.6003 176.0
60.6151 166.0
60.6298 160.0
60.6446 163.0
60.6594 172.0
60.6741 186.0
60.6889 182.0
60.7037 183.0
60.7185 202.0
60.7332 203.0
60.748 316.0
60.7628 329.0
60.7775 466.0
60.7923 631.0
60.8071 892.0
60.8219 1239.0
60.8366 1349.0
60.8514 1262.0
60.8662 1127.0
60.8809 897.0
60.8957 807.0
60.9105 699.0
60.9253 703.0
60.94 556.0
60.9548 438.0
60.9696 321.0
60.9843 274.0
60.9991 232.0
61.0139 228.0
61.0287 196.0
61.0434 191.0
61.0582 187.0
61.073 196.0
61.0877 190.0
61.1025 170.0
61.1173 174.0
61.1321 181.0
61.1468 168.0
61.1616 191.0
61.1764 175.0
61.1911 178.0
61.2059 169.0
61.2207 175.0
61.2355 159.0
61.2502 158.0
61.265 164.0
61.2798 165.0
61.2945 148.0
61.3093 152.0
61.3241 164.0
61.3389 172.0
61.3536 171.0
61.3684 174.0
61.3832 197.0
61.398 152.0
61.4127 170.0
61.4275 154.0
61.4423 152.0
61.457 176.0
61.4718 140.0
61.4866 151.0
61.5014 160.0
61.5161 160.0
61.5309 161.0
61.5457 158.0
61.5604 176.0
61.5752 157.0
61.59 137.0
61.6048 137.0
61.6195 153.0
61.6343 164.0
61.6491 184.0
61.6638 191.0
61.6786 157.0
61.6934 141.0
61.7082 162.0
61.7229 152.0
61.7377 139.0
61.7525 179.0
61.7672 153.0
61.782 134.0
61.7968 159.0
61.8116 141.0
61.8263 147.0
61.8411 174.0
61.8559 140.0
61.8706 151.0
61.8854 164.0
61.9002 152.0
61.915 163.0
61.9297 151.0
61.9445 159.0
61.9593 170.0
61.974 169.0
61.9888 175.0
62.0036 136.0
62.0184 135.0
62.0331 145.0
62.0479 177.0
62.0627 162.0
62.0774 143.0
62.0922 152.0
62.107 168.0
62.1218 145.0
62.1365 137.0
62.1513 144.0
62.1661 146.0
62.1808 159.0
62.1956 167.0
62.2104 149.0
62.2252 138.0
62.2399 162.0
62.2547 164.0
62.2695 168.0
62.2842 160.0
62.299 147.0
62.3138 160.0
62.3286 134.0
62.3433 162.0
62.3581 179.0
62.3729 163.0
62.3876 173.0
62.4024 139.0
62.4172 145.0
62.432 134.0
62.4467 132.0
62.4615 173.0
62.4763 138.0
62.491 145.0
62.5058 138.0
62.5206 163.0
62.5354 166.0
62.5501 149.0
62.5649 146.0
62.5797 160.0
62.5944 150.0
62.6092 157.0
62.624 160.0
62.6388 145.0
62.6535 154.0
62.6683 176.0
62.6831 168.0
62.6978 146.0
62.7126 170.0
62.7274 161.0
62.7422 172.0
62.7569 151.0
62.7717 165.0
62.7865 192.0
62.8012 188.0
62.816 162.0
62.8308 147.0
62.8456 167.0
62.8603 160.0
62.8751 172.0
62.8899 168.0
62.9047 167.0
62.9194 154.0
62.9342 180.0
62.949 190.0
62.9637 176.0
62.9785 171.0
62.9933 161.0
63.0081 179.0
63.0228 160.0
63.0376 173.0
63.0524 171.0
63.0671 169.0
63.0819 167.0
63.0967 159.0
63.1115 159.0
63.1262 161.0
63.141 189.0
63.1558 164.0
63.1705 176.0
63.1853 169.0
63.2001 157.0
63.2149 174.0
63.2296 198.0
63.2444 196.0
63.2592 155.0
63.2739 170.0
63.2887 153.0
63.3035 170.0
63.3183 149.0
63.333 181.0
63.3478 158.0
63.3626 170.0
63.3773 183.0
63.3921 162.0
63.4069 169.0
63.4217 190.0
63.4364 198.0
63.4512 180.0
63.466 173.0
63.4807 144.0
63.4955 196.0
63.5103 186.0
63.5251 196.0
63.5398 167.0
63.5546 172.0
63.5694 180.0
63.5841 185.0
63.5989 183.0
63.6137 202.0
63.6285 190.0
63.6432 192.0
63.658 191.0
63.6728 177.0
63.6875 208.0
63.7023 196.0
63.7171 192.0
63.7319 196.0
63.7466 201.0
63.7614 186.0
63.7762 193.0
63.7909 234.0
63.8057 204.0
63.8205 210.0
63.8353 221.0
63.85 190.0
63.8648 199.0
63.8796 214.0
63.8943 215.0
63.9091 218.0
63.9239 189.0
63.9387 204.0
63.9534 197.0
63.9682 233.0
63.983 211.0
63.9977 231.0
64.0125 227.0
64.0273 262.0
64.0421 246.0
64.0568 225.0
64.0716 220.0
64.0864 241.0
64.1011 276.0
64.1159 272.0
64.1307 243.0
64.1455 272.0
64.1602 255.0
64.175 255.0
64.1898 279.0
64.2045 282.0
64.2193 265.0
64.2341 295.0
64.2489 306.0
64.2636 316.0
64.2784 341.0
64.2932 330.0
64.3079 309.0
64.3227 305.0
64.3375 289.0
64.3523 321.0
64.367 332.0
64.3818 355.0
64.3966 345.0
64.4114 363.0
64.4261 351.0
64.4409 347.0
64.4557 353.0
64.4704 348.0
64.4852 335.0
64.5 356.0
64.5148 361.0
64.5295 351.0
64.5443 367.0
64.5591 361.0
64.5738 388.0
64.5886 294.0
64.6034 347.0
64.6182 343.0
64.6329 368.0
64.6477 355.0
64.6625 330.0
64.6772 365.0
64.692 376.0
64.7068 354.0
64.7216 369.0
64.7363 340.0
64.7511 350.0
64.7659 353.0
64.7806 319.0
64.7954 329.0
64.8102 327.0
64.825 355.0
64.8397 342.0
64.8545 297.0
64.8693 329.0
64.884 294.0
64.8988 301.0
64.9136 322.0
64.9284 308.0
64.9431 311.0
64.9579 323.0
64.9727 255.0
64.9874 285.0
65.0022 291.0
65.017 234.0
65.0318 271.0
65.0465 281.0
65.0613 262.0
65.0761 241.0
65.0908 239.0
65.1056 269.0
65.1204 255.0
65.1352 261.0
65.1499 233.0
65.1647 238.0
65.1795 219.0
65.1942 229.0
65.209 218.0
65.2238 216.0
65.2386 211.0
65.2533 212.0
65.2681 288.0
65.2829 219.0
65.2976 210.0
65.3124 221.0
65.3272 189.0
65.342 215.0
65.3567 207.0
65.3715 189.0
65.3863 234.0
65.401 201.0
65.4158 199.0
65.4306 219.0
65.4454 189.0
65.4601 181.0
65.4749 180.0
65.4897 187.0
65.5044 196.0
65.5192 259.0
65.534 207.0
65.5488 212.0
65.5635 190.0
65.5783 198.0
65.5931 193.0
65.6078 195.0
65.6226 195.0
65.6374 222.0
65.6522 185.0
65.6669 206.0
65.6817 191.0
65.6965 218.0
65.7112 197.0
65.726 213.0
65.7408 229.0
65.7556 203.0
65.7703 196.0
65.7851 238.0
65.7999 204.0
65.8146 209.0
65.8294 230.0
65.8442 224.0
65.859 222.0
65.8737 217.0
65.8885 260.0
65.9033 206.0
65.9181 228.0
65.9328 266.0
65.9476 190.0
65.9624 205.0
65.9771 218.0
65.9919 278.0
66.0067 229.0
66.0215 267.0
66.0362 264.0
66.051 222.0
66.0658 240.0
66.0805 234.0
66.0953 236.0
66.1101 284.0
66.1249 225.0
66.1396 275.0
66.1544 223.0
66.1692 274.0
66.1839 217.0
66.1987 274.0
66.2135 285.0
66.2283 268.0
66.243 271.0
66.2578 285.0
66.2726 296.0
66.2873 301.0
66.3021 330.0
66.3169 300.0
66.3317 308.0
66.3464 268.0
66.3612 270.0
66.376 300.0
66.3907 307.0
66.4055 300.0
66.4203 329.0
66.4351 305.0
66.4498 318.0
66.4646 298.0
66.4794 322.0
66.4941 364.0
66.5089 296.0
66.5237 334.0
66.5385 318.0
66.5532 331.0
66.568 326.0
66.5828 331.0
66.5975 410.0
66.6123 341.0
66.6271 340.0
66.6419 363.0
66.6566 369.0
66.6714 346.0
66.6862 360.0
66.7009 390.0
66.7157 371.0
66.7305 354.0
66.7453 403.0
66.76 379.0
66.7748 391.0
66.7896 383.0
66.8043 426.0
66.8191 445.0
66.8339 430.0
66.8487 425.0
66.8634 411.0
66.8782 441.0
66.893 433.0
66.9077 425.0
66.9225 417.0
66.9373 462.0
66.9521 469.0
66.9668 418.0
66.9816 458.0
66.9964 459.0
67.0111 473.0
67.0259 444.0
67.0407 482.0
67.0555 493.0
67.0702 504.0
67.085 505.0
67.0998 502.0
67.1145 466.0
67.1293 495.0
67.1441 551.0
67.1589 552.0
67.1736 506.0
67.1884 563.0
67.2032 495.0
67.2179 559.0
67.2327 535.0
67.2475 616.0
67.2623 601.0
67.277 583.0
67.2918 620.0
67.3066 587.0
67.3213 649.0
67.3361 621.0
67.3509 649.0
67.3657 654.0
67.3804 608.0
67.3952 675.0
67.41 667.0
67.4248 736.0
67.4395 730.0
67.4543 763.0
67.4691 769.0
67.4838 793.0
67.4986 823.0
67.5134 839.0
67.5282 824.0
67.5429 885.0
67.5577 925.0
67.5725 939.0
67.5872 914.0
67.602 922.0
67.6168 1006.0
67.6316 962.0
67.6463 1053.0
67.6611 1176.0
67.6759 1203.0
67.6906 1280.0
67.7054 1360.0
67.7202 1549.0
67.735 1721.0
67.7497 1844.0
67.7645 2238.0
67.7793 2557.0
67.794 2806.0
67.8088 3077.0
67.8236 3413.0
67.8384 3593.0
67.8531 3735.0
67.8679 3662.0
67.8827 3771.0
67.8974 3693.0
67.9122 3616.0
67.927 3791.0
67.9418 4024.0
67.9565 4395.0
67.9713 5187.0
67.9861 5822.0
68.0008 6898.0
68.0156 8346.0
68.0304 10009.0
68.0452 12115.0
68.0599 15357.0
68.0747 19626.0
68.0895 27484.0
68.1042 41701.0
68.119 84867.0
68.1338 196525.0
68.1486 297655.0
68.1633 332822.0
68.1781 308017.0
68.1929 188902.0
68.2076 92118.0
68.2224 49237.0
68.2372 30683.0
68.252 23192.0
68.2667 20690.0
68.2815 22066.0
68.2963 28807.0
68.311 49879.0
68.3258 93270.0
68.3406 148993.0
68.3554 162825.0
68.3701 150898.0
68.3849 104589.0
68.3997 49499.0
68.4144 29473.0
68.4292 16180.0
68.444 11970.0
68.4588 8586.0
68.4735 7004.0
68.4883 5955.0
68.5031 5086.0
68.5178 4704.0
68.5326 4096.0
68.5474 3764.0
68.5622 3512.0
68.5769 3062.0
68.5917 2884.0
68.6065 2709.0
68.6212 2487.0
68.636 2322.0
68.6508 2158.0
68.6656 2086.0
68.6803 1949.0
68.6951 1866.0
68.7099 1750.0
68.7246 1679.0
68.7394 1485.0
68.7542 1489.0
68.769 1404.0
68.7837 1327.0
68.7985 1272.0
68.8133 1229.0
68.828 1195.0
68.8428 1100.0
68.8576 1081.0
68.8724 1032.0
68.8871 1005.0
68.9019 990.0
68.9167 952.0
68.9315 892.0
68.9462 939.0
68.961 892.0
68.9758 784.0
68.9905 810.0
69.0053 791.0
69.0201 773.0
69.0349 714.0
69.0496 728.0
69.0644 714.0
69.0792 752.0
69.0939 717.0
69.1087 654.0
69.1235 652.0
69.1383 618.0
69.153 594.0
69.1678 577.0
69.1826 581.0
69.1973 563.0
69.2121 518.0
69.2269 548.0
69.2417 513.0
69.2564 520.0
69.2712 483.0
69.286 472.0
69.3007 425.0
69.3155 468.0
69.3303 476.0
69.3451 460.0
69.3598 457.0
69.3746 406.0
69.3894 416.0
69.4041 428.0
69.4189 423.0
69.4337 377.0
69.4485 366.0
69.4632 357.0
69.478 345.0
69.4928 339.0
69.5075 321.0
69.5223 360.0
69.5371 357.0
69.5519 317.0
69.5666 300.0
69.5814 325.0
69.5962 325.0
69.6109 296.0
69.6257 311.0
69.6405 306.0
69.6553 325.0
69.67 302.0
69.6848 320.0
69.6996 269.0
69.7143 275.0
69.7291 322.0
69.7439 287.0
69.7587 228.0
69.7734 291.0
69.7882 303.0
69.803 271.0
69.8177 220.0
69.8325 299.0
69.8473 214.0
69.8621 233.0
69.8768 216.0
69.8916 234.0
69.9064 216.0
69.9211 230.0
69.9359 258.0
69.9507 223.0
69.9655 234.0
69.9802 212.0
69.995 236.0
70.0098 219.0
70.0245 198.0
70.0393 214.0
70.0541 237.0
70.0689 237.0
70.0836 202.0
70.0984 203.0
70.1132 229.0
70.1279 215.0
70.1427 218.0
70.1575 183.0
70.1723 219.0
70.187 215.0
70.2018 201.0
70.2166 221.0
70.2313 201.0
70.2461 208.0
70.2609 213.0
70.2757 205.0
70.2904 197.0
70.3052 200.0
70.32 203.0
70.3347 205.0
70.3495 201.0
70.3643 177.0
70.3791 227.0
70.3938 195.0
70.4086 194.0
70.4234 211.0
70.4382 195.0
70.4529 200.0
70.4677 176.0
70.4825 204.0
70.4972 198.0
70.512 196.0
70.5268 210.0
70.5416 177.0
70.5563 190.0
70.5711 189.0
70.5859 163.0
70.6006 192.0
70.6154 188.0
70.6302 181.0
70.645 175.0
70.6597 173.0
70.6745 166.0
70.6893 184.0
70.704 178.0
70.7188 191.0
70.7336 163.0
70.7484 187.0
70.7631 184.0
70.7779 180.0
70.7927 195.0
70.8074 183.0
70.8222 177.0
70.837 182.0
70.8518 201.0
70.8665 160.0
70.8813 158.0
70.8961 166.0
70.9108 178.0
70.9256 185.0
70.9404 161.0
70.9552 177.0
70.9699 189.0
70.9847 183.0
70.9995 190.0
71.0142 179.0
71.029 187.0
71.0438 167.0
71.0586 170.0
71.0733 183.0
71.0881 175.0
71.1029 146.0
71.1176 179.0
71.1324 173.0
71.1472 158.0
71.162 145.0
71.1767 162.0
71.1915 165.0
71.2063 176.0
71.221 152.0
71.2358 169.0
71.2506 173.0
71.2654 199.0
71.2801 166.0
71.2949 167.0
71.3097 166.0
71.3244 159.0
71.3392 155.0
71.354 152.0
71.3688 170.0
71.3835 153.0
71.3983 161.0
71.4131 145.0
71.4278 177.0
71.4426 158.0
71.4574 161.0
71.4722 171.0
71.4869 160.0
71.5017 173.0
71.5165 162.0
71.5312 168.0
71.546 174.0
71.5608 142.0
71.5756 197.0
71.5903 158.0
71.6051 149.0
71.6199 169.0
71.6346 152.0
71.6494 162.0
71.6642 161.0
71.679 146.0
71.6937 137.0
71.7085 148.0
71.7233 149.0
71.738 157.0
71.7528 159.0
71.7676 144.0
71.7824 156.0
71.7971 157.0
71.8119 130.0
71.8267 146.0
71.8414 188.0
71.8562 177.0
71.871 171.0
71.8858 148.0
71.9005 159.0
71.9153 151.0
71.9301 154.0
71.9449 152.0
71.9596 145.0
71.9744 171.0
71.9892 157.0
72.0039 157.0
72.0187 175.0
72.0335 170.0
72.0483 163.0
72.063 145.0
72.0778 148.0
72.0926 144.0
72.1073 169.0
72.1221 154.0
72.1369 135.0
72.1517 158.0
72.1664 144.0
72.1812 171.0
72.196 162.0
72.2107 148.0
72.2255 153.0
72.2403 144.0
72.2551 159.0
72.2698 133.0
72.2846 169.0
72.2994 146.0
72.3141 157.0
72.3289 150.0
72.3437 186.0
72.3585 148.0
72.3732 148.0
72.388 150.0
72.4028 132.0
72.4175 150.0
72.4323 159.0
72.4471 161.0
72.4619 150.0
72.4766 132.0
72.4914 186.0
72.5062 173.0
72.5209 174.0
72.5357 135.0
72.5505 157.0
72.5653 159.0
72.58 164.0
72.5948 160.0
72.6096 168.0
72.6243 159.0
72.6391 177.0
72.6539 142.0
72.6687 144.0
72.6834 155.0
72.6982 162.0
72.713 148.0
72.7277 158.0
72.7425 151.0
72.7573 148.0
72.7721 146.0
72.7868 165.0
72.8016 125.0
72.8164 136.0
72.8311 145.0
72.8459 183.0
72.8607 178.0
72.8755 151.0
72.8902 144.0
72.905 165.0
72.9198 151.0
72.9345 151.0
72.9493 153.0
72.9641 165.0
72.9789 169.0
72.9936 149.0
73.0084 144.0
73.0232 154.0
73.0379 157.0
73.0527 141.0
73.0675 152.0
73.0823 152.0
73.097 153.0
73.1118 137.0
73.1266 157.0
73.1413 159.0
73.1561 154.0
73.1709 136.0
73.1857 160.0
73.2004 148.0
73.2152 154.0
73.23 144.0
73.2447 136.0
73.2595 146.0
73.2743 155.0
73.2891 163.0
73.3038 180.0
73.3186 146.0
73.3334 171.0
73.3481 152.0
73.3629 154.0
73.3777 151.0
73.3925 153.0
73.4072 139.0
73.422 137.0
73.4368 143.0
73.4516 150.0
73.4663 136.0
73.4811 133.0
73.4959 157.0
73.5106 136.0
73.5254 153.0
73.5402 147.0
73.555 146.0
73.5697 141.0
73.5845 164.0
73.5993 130.0
73.614 162.0
73.6288 145.0
73.6436 143.0
73.6584 134.0
73.6731 159.0
73.6879 142.0
73.7027 145.0
73.7174 135.0
73.7322 147.0
73.747 144.0
73.7618 162.0
73.7765 155.0
73.7913 146.0
73.8061 171.0
73.8208 153.0
73.8356 152.0
73.8504 155.0
73.8652 136.0
73.8799 143.0
73.8947 139.0
73.9095 123.0
73.9242 135.0
73.939 149.0
73.9538 143.0
73.9686 160.0
73.9833 154.0
73.9981 147.0
74.0129 144.0
74.0276 162.0
74.0424 123.0
74.0572 152.0
74.072 131.0
74.0867 149.0
74.1015 138.0
74.1163 161.0
74.131 144.0
74.1458 135.0
74.1606 126.0
74.1754 153.0
74.1901 137.0
74.2049 141.0
74.2197 163.0
74.2344 162.0
74.2492 158.0
74.264 158.0
74.2788 159.0
74.2935 155.0
74.3083 127.0
74.3231 138.0
74.3378 143.0
74.3526 161.0
74.3674 155.0
74.3822 150.0
74.3969 167.0
74.4117 159.0
74.4265 165.0
74.4412 154.0
74.456 135.0
74.4708 151.0
74.4856 148.0
74.5003 136.0
74.5151 146.0
74.5299 143.0
74.5446 156.0
74.5594 139.0
74.5742 153.0
74.589 131.0
74.6037 128.0
74.6185 139.0
74.6333 147.0
74.648 159.0
74.6628 172.0
74.6776 149.0
74.6924 119.0
74.7071 149.0
74.7219 148.0
74.7367 133.0
74.7514 161.0
74.7662 167.0
74.781 126.0
74.7958 161.0
74.8105 131.0
74.8253 111.0
74.8401 165.0
74.8548 159.0
74.8696 134.0
74.8844 160.0
74.8992 135.0
74.9139 137.0
74.9287 156.0
74.9435 140.0
74.9583 157.0
74.973 151.0
74.9878 170.0
74.9976 145.0