File: data/W6818/XRD_Omega/W6818_Cr2O3_scan_omega_2deg_step_0.002deg0_1.xy
18.72670 160.0
18.72870 160.0
18.73070 172.0
18.73270 157.0
18.73470 176.0
18.73670 185.0
18.73870 178.0
18.74070 169.0
18.74270 156.0
18.74470 183.0
18.74670 177.0
18.74870 157.0
18.75070 180.0
18.75270 164.0
18.75470 168.0
18.75670 158.0
18.75870 158.0
18.76070 171.0
18.76270 175.0
18.76470 149.0
18.76670 157.0
18.76870 178.0
18.77070 161.0
18.77270 145.0
18.77470 189.0
18.77670 165.0
18.77870 179.0
18.78070 185.0
18.78270 157.0
18.78470 191.0
18.78670 201.0
18.78870 153.0
18.79070 186.0
18.79270 164.0
18.79470 162.0
18.79670 140.0
18.79870 166.0
18.80070 158.0
18.80270 150.0
18.80470 150.0
18.80670 180.0
18.80870 187.0
18.81070 164.0
18.81270 157.0
18.81470 175.0
18.81670 175.0
18.81870 173.0
18.82070 178.0
18.82270 154.0
18.82470 150.0
18.82670 179.0
18.82870 140.0
18.83070 177.0
18.83270 181.0
18.83470 156.0
18.83670 185.0
18.83870 160.0
18.84070 166.0
18.84270 184.0
18.84470 185.0
18.84670 194.0
18.84870 151.0
18.85070 160.0
18.85270 156.0
18.85470 152.0
18.85670 177.0
18.85870 156.0
18.86070 173.0
18.86270 185.0
18.86470 177.0
18.86670 153.0
18.86870 185.0
18.87070 201.0
18.87270 185.0
18.87470 186.0
18.87670 177.0
18.87870 152.0
18.88070 162.0
18.88270 179.0
18.88470 156.0
18.88670 159.0
18.88870 156.0
18.89070 163.0
18.89270 182.0
18.89470 170.0
18.89670 177.0
18.89870 163.0
18.90070 158.0
18.90270 191.0
18.90470 149.0
18.90670 173.0
18.90870 169.0
18.91070 186.0
18.91270 180.0
18.91470 164.0
18.91670 179.0
18.91870 151.0
18.92070 186.0
18.92270 187.0
18.92470 162.0
18.92670 184.0
18.92870 180.0
18.93070 203.0
18.93270 158.0
18.93470 135.0
18.93670 158.0
18.93870 163.0
18.94070 170.0
18.94270 166.0
18.94470 188.0
18.94670 172.0
18.94870 171.0
18.95070 194.0
18.95270 162.0
18.95470 202.0
18.95670 186.0
18.95870 156.0
18.96070 186.0
18.96270 173.0
18.96470 190.0
18.96670 161.0
18.96870 183.0
18.97070 202.0
18.97270 160.0
18.97470 169.0
18.97670 165.0
18.97870 178.0
18.98070 176.0
18.98270 178.0
18.98470 157.0
18.98670 170.0
18.98870 143.0
18.99070 207.0
18.99270 159.0
18.99470 173.0
18.99670 174.0
18.99870 170.0
19.00070 165.0
19.00270 180.0
19.00470 199.0
19.00670 154.0
19.00870 183.0
19.01070 173.0
19.01270 190.0
19.01470 185.0
19.01670 176.0
19.01870 173.0
19.02070 180.0
19.02270 202.0
19.02470 200.0
19.02670 189.0
19.02870 158.0
19.03070 178.0
19.03270 178.0
19.03470 164.0
19.03670 188.0
19.03870 196.0
19.04070 161.0
19.04270 203.0
19.04470 187.0
19.04670 185.0
19.04870 195.0
19.05070 182.0
19.05270 184.0
19.05470 164.0
19.05670 192.0
19.05870 193.0
19.06070 188.0
19.06270 184.0
19.06470 172.0
19.06670 213.0
19.06870 190.0
19.07070 187.0
19.07270 213.0
19.07470 208.0
19.07670 191.0
19.07870 231.0
19.08070 219.0
19.08270 189.0
19.08470 205.0
19.08670 191.0
19.08870 176.0
19.09070 190.0
19.09270 215.0
19.09470 202.0
19.09670 215.0
19.09870 208.0
19.10070 188.0
19.10270 214.0
19.10470 191.0
19.10670 226.0
19.10870 214.0
19.11070 219.0
19.11270 194.0
19.11470 208.0
19.11670 227.0
19.11870 198.0
19.12070 202.0
19.12270 191.0
19.12470 206.0
19.12670 213.0
19.12870 202.0
19.13070 214.0
19.13270 218.0
19.13470 204.0
19.13670 226.0
19.13870 204.0
19.14070 201.0
19.14270 230.0
19.14470 214.0
19.14670 195.0
19.14870 214.0
19.15070 205.0
19.15270 196.0
19.15470 219.0
19.15670 185.0
19.15870 216.0
19.16070 230.0
19.16270 208.0
19.16470 233.0
19.16670 227.0
19.16870 206.0
19.17070 215.0
19.17270 231.0
19.17470 245.0
19.17670 226.0
19.17870 203.0
19.18070 232.0
19.18270 223.0
19.18470 222.0
19.18670 247.0
19.18870 224.0
19.19070 204.0
19.19270 224.0
19.19470 231.0
19.19670 208.0
19.19870 239.0
19.20070 220.0
19.20270 226.0
19.20470 198.0
19.20670 226.0
19.20870 226.0
19.21070 248.0
19.21270 248.0
19.21470 212.0
19.21670 211.0
19.21870 212.0
19.22070 276.0
19.22270 236.0
19.22470 230.0
19.22670 202.0
19.22870 209.0
19.23070 230.0
19.23270 269.0
19.23470 236.0
19.23670 251.0
19.23870 238.0
19.24070 268.0
19.24270 229.0
19.24470 230.0
19.24670 222.0
19.24870 234.0
19.25070 223.0
19.25270 231.0
19.25470 224.0
19.25670 241.0
19.25870 258.0
19.26070 226.0
19.26270 238.0
19.26470 231.0
19.26670 239.0
19.26870 274.0
19.27070 233.0
19.27270 248.0
19.27470 240.0
19.27670 230.0
19.27870 238.0
19.28070 260.0
19.28270 231.0
19.28470 281.0
19.28670 208.0
19.28870 264.0
19.29070 243.0
19.29270 257.0
19.29470 232.0
19.29670 241.0
19.29870 286.0
19.30070 264.0
19.30270 248.0
19.30470 253.0
19.30670 270.0
19.30870 274.0
19.31070 244.0
19.31270 267.0
19.31470 252.0
19.31670 281.0
19.31870 265.0
19.32070 248.0
19.32270 262.0
19.32470 281.0
19.32670 280.0
19.32870 262.0
19.33070 250.0
19.33270 269.0
19.33470 237.0
19.33670 265.0
19.33870 270.0
19.34070 295.0
19.34270 282.0
19.34470 294.0
19.34670 290.0
19.34870 257.0
19.35070 283.0
19.35270 309.0
19.35470 293.0
19.35670 286.0
19.35870 279.0
19.36070 275.0
19.36270 273.0
19.36470 278.0
19.36670 284.0
19.36870 282.0
19.37070 287.0
19.37270 290.0
19.37470 299.0
19.37670 277.0
19.37870 300.0
19.38070 317.0
19.38270 313.0
19.38470 291.0
19.38670 317.0
19.38870 318.0
19.39070 326.0
19.39270 312.0
19.39470 313.0
19.39670 306.0
19.39870 306.0
19.40070 322.0
19.40270 325.0
19.40470 320.0
19.40670 318.0
19.40870 302.0
19.41070 325.0
19.41270 334.0
19.41470 346.0
19.41670 315.0
19.41870 364.0
19.42070 359.0
19.42270 343.0
19.42470 318.0
19.42670 344.0
19.42870 353.0
19.43070 340.0
19.43270 330.0
19.43470 322.0
19.43670 366.0
19.43870 376.0
19.44070 359.0
19.44270 352.0
19.44470 346.0
19.44670 379.0
19.44870 386.0
19.45070 362.0
19.45270 426.0
19.45470 363.0
19.45670 437.0
19.45870 407.0
19.46070 376.0
19.46270 380.0
19.46470 386.0
19.46670 401.0
19.46870 377.0
19.47070 411.0
19.47270 454.0
19.47470 424.0
19.47670 424.0
19.47870 464.0
19.48070 414.0
19.48270 428.0
19.48470 481.0
19.48670 437.0
19.48870 438.0
19.49070 444.0
19.49270 458.0
19.49470 445.0
19.49670 440.0
19.49870 473.0
19.50070 484.0
19.50270 479.0
19.50470 462.0
19.50670 500.0
19.50870 545.0
19.51070 506.0
19.51270 529.0
19.51470 554.0
19.51670 566.0
19.51870 556.0
19.52070 574.0
19.52270 571.0
19.52470 572.0
19.52670 553.0
19.52870 591.0
19.53070 587.0
19.53270 577.0
19.53470 569.0
19.53670 617.0
19.53870 619.0
19.54070 628.0
19.54270 606.0
19.54470 659.0
19.54670 647.0
19.54870 670.0
19.55070 684.0
19.55270 752.0
19.55470 748.0
19.55670 730.0
19.55870 772.0
19.56070 770.0
19.56270 708.0
19.56470 818.0
19.56670 780.0
19.56870 790.0
19.57070 829.0
19.57270 851.0
19.57470 827.0
19.57670 831.0
19.57870 845.0
19.58070 921.0
19.58270 858.0
19.58470 938.0
19.58670 969.0
19.58870 957.0
19.59070 1007.0
19.59270 1131.0
19.59470 1161.0
19.59670 1120.0
19.59870 1199.0
19.60070 1170.0
19.60270 1218.0
19.60470 1244.0
19.60670 1273.0
19.60870 1372.0
19.61070 1358.0
19.61270 1396.0
19.61470 1381.0
19.61670 1401.0
19.61870 1440.0
19.62070 1440.0
19.62270 1554.0
19.62470 1629.0
19.62670 1637.0
19.62870 1753.0
19.63070 1827.0
19.63270 1895.0
19.63470 1997.0
19.63670 2131.0
19.63870 2163.0
19.64070 2239.0
19.64270 2386.0
19.64470 2324.0
19.64670 2441.0
19.64870 2574.0
19.65070 2634.0
19.65270 2654.0
19.65470 2704.0
19.65670 2898.0
19.65870 3012.0
19.66070 2932.0
19.66270 3078.0
19.66470 3297.0
19.66670 3278.0
19.66870 3466.0
19.67070 3534.0
19.67270 3977.0
19.67470 4263.0
19.67670 4384.0
19.67870 4682.0
19.68070 4993.0
19.68270 5146.0
19.68470 5611.0
19.68670 5850.0
19.68870 6276.0
19.69070 6529.0
19.69270 6757.0
19.69470 7058.0
19.69670 7186.0
19.69870 7594.0
19.70070 7504.0
19.70270 7592.0
19.70470 7957.0
19.70670 7807.0
19.70870 7997.0
19.71070 8003.0
19.71270 7916.0
19.71470 7746.0
19.71670 7689.0
19.71870 7856.0
19.72070 7560.0
19.72270 7523.0
19.72470 7360.0
19.72670 7269.0
19.72870 7355.0
19.73070 7127.0
19.73270 7266.0
19.73470 6910.0
19.73670 6782.0
19.73870 6807.0
19.74070 6785.0
19.74270 6805.0
19.74470 6698.0
19.74670 6611.0
19.74870 6543.0
19.75070 6369.0
19.75270 6292.0
19.75470 6197.0
19.75670 6091.0
19.75870 5930.0
19.76070 5869.0
19.76270 5658.0
19.76470 5486.0
19.76670 5493.0
19.76870 5194.0
19.77070 4896.0
19.77270 4876.0
19.77470 4686.0
19.77670 4527.0
19.77870 4370.0
19.78070 4095.0
19.78270 3963.0
19.78470 3690.0
19.78670 3590.0
19.78870 3447.0
19.79070 3274.0
19.79270 3139.0
19.79470 3095.0
19.79670 2862.0
19.79870 2791.0
19.80070 2643.0
19.80270 2625.0
19.80470 2346.0
19.80670 2207.0
19.80870 2210.0
19.81070 2118.0
19.81270 1950.0
19.81470 1981.0
19.81670 1899.0
19.81870 1740.0
19.82070 1652.0
19.82270 1592.0
19.82470 1578.0
19.82670 1508.0
19.82870 1456.0
19.83070 1421.0
19.83270 1378.0
19.83470 1317.0
19.83670 1265.0
19.83870 1219.0
19.84070 1212.0
19.84270 1190.0
19.84470 1200.0
19.84670 1153.0
19.84870 1107.0
19.85070 1025.0
19.85270 1130.0
19.85470 1086.0
19.85670 1098.0
19.85870 1149.0
19.86070 1062.0
19.86270 1020.0
19.86470 1058.0
19.86670 1056.0
19.86870 1048.0
19.87070 1155.0
19.87270 1068.0
19.87470 1069.0
19.87670 1041.0
19.87870 969.0
19.88070 1017.0
19.88270 965.0
19.88470 959.0
19.88670 902.0
19.88870 882.0
19.89070 872.0
19.89270 842.0
19.89470 808.0
19.89670 807.0
19.89870 728.0
19.90070 715.0
19.90270 728.0
19.90470 694.0
19.90670 627.0
19.90870 686.0
19.91070 655.0
19.91270 657.0
19.91470 642.0
19.91670 652.0
19.91870 619.0
19.92070 640.0
19.92270 590.0
19.92470 590.0
19.92670 561.0
19.92870 581.0
19.93070 641.0
19.93270 578.0
19.93470 590.0
19.93670 571.0
19.93870 608.0
19.94070 561.0
19.94270 576.0
19.94470 544.0
19.94670 565.0
19.94870 528.0
19.95070 553.0
19.95270 558.0
19.95470 545.0
19.95670 546.0
19.95870 478.0
19.96070 481.0
19.96270 497.0
19.96470 493.0
19.96670 436.0
19.96870 466.0
19.97070 481.0
19.97270 455.0
19.97470 441.0
19.97670 436.0
19.97870 463.0
19.98070 437.0
19.98270 441.0
19.98470 459.0
19.98670 476.0
19.98870 459.0
19.99070 459.0
19.99270 415.0
19.99470 443.0
19.99670 434.0
19.99870 381.0
20.00070 420.0
20.00270 425.0
20.00470 414.0
20.00670 472.0
20.00870 444.0
20.01070 384.0
20.01270 406.0
20.01470 477.0
20.01670 441.0
20.01870 425.0
20.02070 462.0
20.02270 442.0
20.02470 440.0
20.02670 398.0
20.02870 414.0
20.03070 405.0
20.03270 422.0
20.03470 393.0
20.03670 422.0
20.03870 370.0
20.04070 393.0
20.04270 387.0
20.04470 403.0
20.04670 361.0
20.04870 343.0
20.05070 365.0
20.05270 353.0
20.05470 376.0
20.05670 344.0
20.05870 382.0
20.06070 289.0
20.06270 324.0
20.06470 326.0
20.06670 326.0
20.06870 321.0
20.07070 331.0
20.07270 337.0
20.07470 333.0
20.07670 307.0
20.07870 330.0
20.08070 335.0
20.08270 287.0
20.08470 265.0
20.08670 300.0
20.08870 324.0
20.09070 290.0
20.09270 307.0
20.09470 306.0
20.09670 283.0
20.09870 287.0
20.10070 269.0
20.10270 273.0
20.10470 246.0
20.10670 286.0
20.10870 293.0
20.11070 271.0
20.11270 273.0
20.11470 310.0
20.11670 284.0
20.11870 293.0
20.12070 280.0
20.12270 276.0
20.12470 257.0
20.12670 284.0
20.12870 275.0
20.13070 301.0
20.13270 292.0
20.13470 273.0
20.13670 292.0
20.13870 251.0
20.14070 246.0
20.14270 313.0
20.14470 272.0
20.14670 281.0
20.14870 326.0
20.15070 233.0
20.15270 243.0
20.15470 278.0
20.15670 259.0
20.15870 283.0
20.16070 265.0
20.16270 274.0
20.16470 265.0
20.16670 280.0
20.16870 241.0
20.17070 244.0
20.17270 246.0
20.17470 260.0
20.17670 245.0
20.17870 221.0
20.18070 247.0
20.18270 257.0
20.18470 238.0
20.18670 272.0
20.18870 247.0
20.19070 274.0
20.19270 215.0
20.19470 236.0
20.19670 255.0
20.19870 271.0
20.20070 237.0
20.20270 251.0
20.20470 247.0
20.20670 219.0
20.20870 256.0
20.21070 252.0
20.21270 266.0
20.21470 215.0
20.21670 239.0
20.21870 230.0
20.22070 243.0
20.22270 223.0
20.22470 250.0
20.22670 240.0
20.22870 244.0
20.23070 259.0
20.23270 242.0
20.23470 229.0
20.23670 244.0
20.23870 219.0
20.24070 260.0
20.24270 225.0
20.24470 236.0
20.24670 217.0
20.24870 225.0
20.25070 260.0
20.25270 227.0
20.25470 252.0
20.25670 230.0
20.25870 225.0
20.26070 219.0
20.26270 244.0
20.26470 245.0
20.26670 241.0
20.26870 243.0
20.27070 229.0
20.27270 227.0
20.27470 224.0
20.27670 217.0
20.27870 238.0
20.28070 207.0
20.28270 225.0
20.28470 235.0
20.28670 199.0
20.28870 208.0
20.29070 255.0
20.29270 217.0
20.29470 237.0
20.29670 211.0
20.29870 241.0
20.30070 254.0
20.30270 217.0
20.30470 161.0
20.30670 224.0
20.30870 193.0
20.31070 238.0
20.31270 181.0
20.31470 215.0
20.31670 198.0
20.31870 196.0
20.32070 195.0
20.32270 215.0
20.32470 198.0
20.32670 188.0
20.32870 194.0
20.33070 196.0
20.33270 205.0
20.33470 197.0
20.33670 187.0
20.33870 198.0
20.34070 174.0
20.34270 205.0
20.34470 187.0
20.34670 192.0
20.34870 193.0
20.35070 173.0
20.35270 206.0
20.35470 204.0
20.35670 195.0
20.35870 169.0
20.36070 186.0
20.36270 193.0
20.36470 173.0
20.36670 185.0
20.36870 165.0
20.37070 189.0
20.37270 174.0
20.37470 197.0
20.37670 169.0
20.37870 183.0
20.38070 182.0
20.38270 163.0
20.38470 186.0
20.38670 161.0
20.38870 189.0
20.39070 173.0
20.39270 187.0
20.39470 178.0
20.39670 171.0
20.39870 181.0
20.40070 190.0
20.40270 183.0
20.40470 164.0
20.40670 158.0
20.40870 160.0
20.41070 169.0
20.41270 165.0
20.41470 180.0
20.41670 166.0
20.41870 168.0
20.42070 183.0
20.42270 172.0
20.42470 168.0
20.42670 165.0
20.42870 159.0
20.43070 182.0
20.43270 154.0
20.43470 151.0
20.43670 160.0
20.43870 158.0
20.44070 172.0
20.44270 146.0
20.44470 175.0
20.44670 159.0
20.44870 167.0
20.45070 189.0
20.45270 184.0
20.45470 160.0
20.45670 178.0
20.45870 159.0
20.46070 160.0
20.46270 142.0
20.46470 163.0
20.46670 163.0
20.46870 165.0
20.47070 154.0
20.47270 159.0
20.47470 164.0
20.47670 174.0
20.47870 177.0
20.48070 159.0
20.48270 130.0
20.48470 154.0
20.48670 157.0
20.48870 163.0
20.49070 155.0
20.49270 166.0
20.49470 193.0
20.49670 176.0
20.49870 160.0
20.50070 178.0
20.50270 176.0
20.50470 163.0
20.50670 162.0
20.50870 184.0
20.51070 191.0
20.51270 158.0
20.51470 164.0
20.51670 177.0
20.51870 167.0
20.52070 156.0
20.52270 165.0
20.52470 169.0
20.52670 166.0
20.52870 157.0
20.53070 155.0
20.53270 175.0
20.53470 173.0
20.53670 166.0
20.53870 157.0
20.54070 164.0
20.54270 158.0
20.54470 166.0
20.54670 153.0
20.54870 160.0
20.55070 180.0
20.55270 170.0
20.55470 162.0
20.55670 164.0
20.55870 139.0
20.56070 155.0
20.56270 142.0
20.56470 155.0
20.56670 152.0
20.56870 163.0
20.57070 166.0
20.57270 173.0
20.57470 163.0
20.57670 170.0
20.57870 146.0
20.58070 189.0
20.58270 155.0
20.58470 141.0
20.58670 162.0
20.58870 155.0
20.59070 149.0
20.59270 138.0
20.59470 166.0
20.59670 169.0
20.59870 148.0
20.60070 179.0
20.60270 180.0
20.60470 148.0
20.60670 138.0
20.60870 170.0
20.61070 151.0
20.61270 172.0
20.61470 152.0
20.61670 160.0
20.61870 167.0
20.62070 160.0
20.62270 163.0
20.62470 169.0
20.62670 168.0
20.62870 188.0
20.63070 189.0
20.63270 167.0
20.63470 182.0
20.63670 162.0
20.63870 153.0
20.64070 166.0
20.64270 158.0
20.64470 166.0
20.64670 153.0
20.64870 169.0
20.65070 160.0
20.65270 160.0
20.65470 160.0
20.65670 154.0
20.65870 169.0
20.66070 164.0
20.66270 148.0
20.66470 176.0
20.66670 162.0
20.66870 163.0
20.67070 158.0
20.67270 165.0
20.67470 169.0
20.67670 164.0
20.67870 170.0
20.68070 152.0
20.68270 149.0
20.68470 173.0
20.68670 140.0
20.68870 171.0
20.69070 172.0
20.69270 129.0
20.69470 187.0
20.69670 153.0
20.69870 166.0
20.70070 149.0
20.70270 154.0
20.70470 148.0
20.70670 163.0
20.70870 168.0
20.71070 156.0