File: data/W6815c1/XRD_Omega/scan_omega_4deg_step_0.005deg0_C2.xy
17.52360 38.0
17.52860 36.0
17.53360 26.0
17.53860 37.0
17.54360 34.0
17.54860 33.0
17.55360 40.0
17.55860 33.0
17.56360 38.0
17.56860 28.0
17.57360 28.0
17.57860 29.0
17.58360 33.0
17.58860 36.0
17.59360 30.0
17.59860 24.0
17.60360 32.0
17.60860 43.0
17.61360 37.0
17.61860 38.0
17.62360 34.0
17.62860 25.0
17.63360 30.0
17.63860 23.0
17.64360 25.0
17.64860 29.0
17.65360 33.0
17.65860 21.0
17.66360 30.0
17.66860 29.0
17.67360 29.0
17.67860 23.0
17.68360 27.0
17.68860 29.0
17.69360 34.0
17.69860 34.0
17.70360 45.0
17.70860 26.0
17.71360 26.0
17.71860 40.0
17.72360 29.0
17.72860 30.0
17.73360 38.0
17.73860 36.0
17.74360 30.0
17.74860 27.0
17.75360 25.0
17.75860 24.0
17.76360 27.0
17.76860 35.0
17.77360 29.0
17.77860 25.0
17.78360 28.0
17.78860 36.0
17.79360 45.0
17.79860 33.0
17.80360 28.0
17.80860 30.0
17.81360 35.0
17.81860 34.0
17.82360 28.0
17.82860 43.0
17.83360 34.0
17.83860 22.0
17.84360 28.0
17.84860 30.0
17.85360 37.0
17.85860 39.0
17.86360 27.0
17.86860 36.0
17.87360 34.0
17.87860 30.0
17.88360 23.0
17.88860 36.0
17.89360 36.0
17.89860 49.0
17.90360 33.0
17.90860 35.0
17.91360 23.0
17.91860 40.0
17.92360 33.0
17.92860 34.0
17.93360 42.0
17.93860 35.0
17.94360 37.0
17.94860 41.0
17.95360 40.0
17.95860 29.0
17.96360 36.0
17.96860 27.0
17.97360 29.0
17.97860 38.0
17.98360 34.0
17.98860 37.0
17.99360 33.0
17.99860 33.0
18.00360 45.0
18.00860 40.0
18.01360 38.0
18.01860 40.0
18.02360 37.0
18.02860 41.0
18.03360 51.0
18.03860 42.0
18.04360 42.0
18.04860 29.0
18.05360 41.0
18.05860 36.0
18.06360 31.0
18.06860 30.0
18.07360 29.0
18.07860 44.0
18.08360 31.0
18.08860 36.0
18.09360 45.0
18.09860 41.0
18.10360 37.0
18.10860 44.0
18.11360 30.0
18.11860 42.0
18.12360 43.0
18.12860 38.0
18.13360 35.0
18.13860 34.0
18.14360 35.0
18.14860 36.0
18.15360 34.0
18.15860 41.0
18.16360 39.0
18.16860 33.0
18.17360 47.0
18.17860 41.0
18.18360 23.0
18.18860 45.0
18.19360 35.0
18.19860 30.0
18.20360 52.0
18.20860 48.0
18.21360 33.0
18.21860 32.0
18.22360 49.0
18.22860 36.0
18.23360 47.0
18.23860 41.0
18.24360 38.0
18.24860 41.0
18.25360 41.0
18.25860 46.0
18.26360 37.0
18.26860 37.0
18.27360 43.0
18.27860 45.0
18.28360 56.0
18.28860 45.0
18.29360 47.0
18.29860 42.0
18.30360 40.0
18.30860 38.0
18.31360 32.0
18.31860 29.0
18.32360 45.0
18.32860 39.0
18.33360 51.0
18.33860 38.0
18.34360 42.0
18.34860 33.0
18.35360 47.0
18.35860 44.0
18.36360 55.0
18.36860 36.0
18.37360 48.0
18.37860 53.0
18.38360 36.0
18.38860 52.0
18.39360 45.0
18.39860 47.0
18.40360 38.0
18.40860 50.0
18.41360 48.0
18.41860 44.0
18.42360 30.0
18.42860 38.0
18.43360 54.0
18.43860 46.0
18.44360 56.0
18.44860 45.0
18.45360 47.0
18.45860 55.0
18.46360 43.0
18.46860 34.0
18.47360 55.0
18.47860 51.0
18.48360 45.0
18.48860 49.0
18.49360 62.0
18.49860 56.0
18.50360 62.0
18.50860 56.0
18.51360 56.0
18.51860 56.0
18.52360 56.0
18.52860 45.0
18.53360 56.0
18.53860 68.0
18.54360 75.0
18.54860 38.0
18.55360 52.0
18.55860 55.0
18.56360 71.0
18.56860 66.0
18.57360 62.0
18.57860 73.0
18.58360 61.0
18.58860 48.0
18.59360 75.0
18.59860 51.0
18.60360 59.0
18.60860 64.0
18.61360 50.0
18.61860 55.0
18.62360 43.0
18.62860 70.0
18.63360 72.0
18.63860 64.0
18.64360 73.0
18.64860 58.0
18.65360 64.0
18.65860 62.0
18.66360 70.0
18.66860 64.0
18.67360 54.0
18.67860 79.0
18.68360 68.0
18.68860 56.0
18.69360 68.0
18.69860 83.0
18.70360 65.0
18.70860 76.0
18.71360 80.0
18.71860 82.0
18.72360 71.0
18.72860 82.0
18.73360 64.0
18.73860 88.0
18.74360 73.0
18.74860 75.0
18.75360 62.0
18.75860 87.0
18.76360 82.0
18.76860 70.0
18.77360 79.0
18.77860 78.0
18.78360 87.0
18.78860 89.0
18.79360 105.0
18.79860 87.0
18.80360 99.0
18.80860 101.0
18.81360 91.0
18.81860 97.0
18.82360 102.0
18.82860 95.0
18.83360 94.0
18.83860 93.0
18.84360 103.0
18.84860 112.0
18.85360 101.0
18.85860 127.0
18.86360 94.0
18.86860 120.0
18.87360 108.0
18.87860 118.0
18.88360 124.0
18.88860 122.0
18.89360 106.0
18.89860 124.0
18.90360 126.0
18.90860 101.0
18.91360 111.0
18.91860 94.0
18.92360 108.0
18.92860 141.0
18.93360 133.0
18.93860 134.0
18.94360 137.0
18.94860 115.0
18.95360 141.0
18.95860 150.0
18.96360 151.0
18.96860 133.0
18.97360 140.0
18.97860 139.0
18.98360 160.0
18.98860 162.0
18.99360 167.0
18.99860 143.0
19.00360 164.0
19.00860 165.0
19.01360 170.0
19.01860 166.0
19.02360 167.0
19.02860 188.0
19.03360 184.0
19.03860 195.0
19.04360 183.0
19.04860 195.0
19.05360 213.0
19.05860 198.0
19.06360 211.0
19.06860 192.0
19.07360 205.0
19.07860 204.0
19.08360 232.0
19.08860 240.0
19.09360 205.0
19.09860 252.0
19.10360 263.0
19.10860 206.0
19.11360 250.0
19.11860 250.0
19.12360 237.0
19.12860 237.0
19.13360 247.0
19.13860 275.0
19.14360 289.0
19.14860 299.0
19.15360 258.0
19.15860 296.0
19.16360 285.0
19.16860 338.0
19.17360 284.0
19.17860 339.0
19.18360 309.0
19.18860 318.0
19.19360 347.0
19.19860 365.0
19.20360 328.0
19.20860 325.0
19.21360 392.0
19.21860 385.0
19.22360 442.0
19.22860 392.0
19.23360 410.0
19.23860 425.0
19.24360 447.0
19.24860 426.0
19.25360 426.0
19.25860 451.0
19.26360 404.0
19.26860 497.0
19.27360 467.0
19.27860 463.0
19.28360 515.0
19.28860 509.0
19.29360 473.0
19.29860 566.0
19.30360 526.0
19.30860 527.0
19.31360 568.0
19.31860 593.0
19.32360 604.0
19.32860 612.0
19.33360 630.0
19.33860 615.0
19.34360 604.0
19.34860 659.0
19.35360 685.0
19.35860 726.0
19.36360 679.0
19.36860 800.0
19.37360 766.0
19.37860 838.0
19.38360 829.0
19.38860 837.0
19.39360 965.0
19.39860 990.0
19.40360 951.0
19.40860 970.0
19.41360 1020.0
19.41860 1020.0
19.42360 1027.0
19.42860 1102.0
19.43360 990.0
19.43860 1033.0
19.44360 1017.0
19.44860 1018.0
19.45360 1022.0
19.45860 1072.0
19.46360 1113.0
19.46860 1050.0
19.47360 1112.0
19.47860 1034.0
19.48360 1085.0
19.48860 1026.0
19.49360 1084.0
19.49860 1023.0
19.50360 1032.0
19.50860 1010.0
19.51360 1001.0
19.51860 1035.0
19.52360 1016.0
19.52860 929.0
19.53360 962.0
19.53860 949.0
19.54360 986.0
19.54860 981.0
19.55360 915.0
19.55860 935.0
19.56360 942.0
19.56860 863.0
19.57360 944.0
19.57860 931.0
19.58360 877.0
19.58860 869.0
19.59360 817.0
19.59860 877.0
19.60360 850.0
19.60860 858.0
19.61360 803.0
19.61860 825.0
19.62360 826.0
19.62860 783.0
19.63360 761.0
19.63860 786.0
19.64360 716.0
19.64860 744.0
19.65360 694.0
19.65860 656.0
19.66360 683.0
19.66860 645.0
19.67360 673.0
19.67860 603.0
19.68360 628.0
19.68860 598.0
19.69360 627.0
19.69860 607.0
19.70360 543.0
19.70860 573.0
19.71360 555.0
19.71860 511.0
19.72360 498.0
19.72860 543.0
19.73360 520.0
19.73860 477.0
19.74360 522.0
19.74860 500.0
19.75360 473.0
19.75860 474.0
19.76360 472.0
19.76860 440.0
19.77360 452.0
19.77860 403.0
19.78360 398.0
19.78860 407.0
19.79360 420.0
19.79860 377.0
19.80360 386.0
19.80860 374.0
19.81360 351.0
19.81860 380.0
19.82360 373.0
19.82860 378.0
19.83360 376.0
19.83860 347.0
19.84360 330.0
19.84860 346.0
19.85360 334.0
19.85860 296.0
19.86360 325.0
19.86860 322.0
19.87360 288.0
19.87860 282.0
19.88360 299.0
19.88860 268.0
19.89360 309.0
19.89860 268.0
19.90360 280.0
19.90860 283.0
19.91360 274.0
19.91860 261.0
19.92360 243.0
19.92860 257.0
19.93360 254.0
19.93860 243.0
19.94360 253.0
19.94860 238.0
19.95360 222.0
19.95860 226.0
19.96360 218.0
19.96860 222.0
19.97360 236.0
19.97860 207.0
19.98360 203.0
19.98860 183.0
19.99360 188.0
19.99860 206.0
20.00360 198.0
20.00860 188.0
20.01360 200.0
20.01860 191.0
20.02360 200.0
20.02860 191.0
20.03360 178.0
20.03860 168.0
20.04360 167.0
20.04860 169.0
20.05360 165.0
20.05860 156.0
20.06360 173.0
20.06860 131.0
20.07360 161.0
20.07860 167.0
20.08360 155.0
20.08860 155.0
20.09360 133.0
20.09860 146.0
20.10360 145.0
20.10860 141.0
20.11360 125.0
20.11860 122.0
20.12360 121.0
20.12860 137.0
20.13360 130.0
20.13860 126.0
20.14360 124.0
20.14860 116.0
20.15360 120.0
20.15860 135.0
20.16360 103.0
20.16860 105.0
20.17360 104.0
20.17860 122.0
20.18360 102.0
20.18860 129.0
20.19360 112.0
20.19860 114.0
20.20360 103.0
20.20860 107.0
20.21360 104.0
20.21860 109.0
20.22360 91.0
20.22860 90.0
20.23360 81.0
20.23860 90.0
20.24360 65.0
20.24860 83.0
20.25360 78.0
20.25860 99.0
20.26360 100.0
20.26860 84.0
20.27360 89.0
20.27860 83.0
20.28360 88.0
20.28860 91.0
20.29360 82.0
20.29860 71.0
20.30360 69.0
20.30860 73.0
20.31360 69.0
20.31860 76.0
20.32360 74.0
20.32860 57.0
20.33360 75.0
20.33860 64.0
20.34360 63.0
20.34860 79.0
20.35360 85.0
20.35860 75.0
20.36360 65.0
20.36860 62.0
20.37360 65.0
20.37860 72.0
20.38360 63.0
20.38860 62.0
20.39360 54.0
20.39860 71.0
20.40360 61.0
20.40860 58.0
20.41360 46.0
20.41860 59.0
20.42360 56.0
20.42860 52.0
20.43360 70.0
20.43860 64.0
20.44360 58.0
20.44860 60.0
20.45360 60.0
20.45860 55.0
20.46360 73.0
20.46860 50.0
20.47360 55.0
20.47860 40.0
20.48360 54.0
20.48860 52.0
20.49360 58.0
20.49860 61.0
20.50360 46.0
20.50860 55.0
20.51360 40.0
20.51860 53.0
20.52360 52.0
20.52860 58.0
20.53360 59.0
20.53860 56.0
20.54360 49.0
20.54860 35.0
20.55360 49.0
20.55860 28.0
20.56360 47.0
20.56860 38.0
20.57360 56.0
20.57860 54.0
20.58360 60.0
20.58860 46.0
20.59360 50.0
20.59860 45.0
20.60360 39.0
20.60860 55.0
20.61360 43.0
20.61860 36.0
20.62360 37.0
20.62860 36.0
20.63360 50.0
20.63860 31.0
20.64360 50.0
20.64860 35.0
20.65360 49.0
20.65860 47.0
20.66360 35.0
20.66860 39.0
20.67360 37.0
20.67860 44.0
20.68360 36.0
20.68860 46.0
20.69360 43.0
20.69860 32.0
20.70360 43.0
20.70860 51.0
20.71360 32.0
20.71860 43.0
20.72360 47.0
20.72860 43.0
20.73360 40.0
20.73860 35.0
20.74360 36.0
20.74860 45.0
20.75360 43.0
20.75860 50.0
20.76360 41.0
20.76860 39.0
20.77360 37.0
20.77860 40.0
20.78360 36.0
20.78860 43.0
20.79360 43.0
20.79860 32.0
20.80360 35.0
20.80860 41.0
20.81360 39.0
20.81860 39.0
20.82360 37.0
20.82860 39.0
20.83360 39.0
20.83860 31.0
20.84360 40.0
20.84860 39.0
20.85360 33.0
20.85860 25.0
20.86360 46.0
20.86860 34.0
20.87360 42.0
20.87860 32.0
20.88360 39.0
20.88860 31.0
20.89360 33.0
20.89860 36.0
20.90360 33.0
20.90860 39.0
20.91360 39.0
20.91860 34.0
20.92360 31.0
20.92860 31.0
20.93360 42.0
20.93860 34.0
20.94360 27.0
20.94860 31.0
20.95360 30.0
20.95860 28.0
20.96360 32.0
20.96860 31.0
20.97360 30.0
20.97860 46.0
20.98360 35.0
20.98860 30.0
20.99360 36.0
20.99860 32.0
21.00360 26.0
21.00860 34.0
21.01360 31.0
21.01860 37.0
21.02360 33.0
21.02860 31.0
21.03360 21.0
21.03860 28.0
21.04360 30.0
21.04860 44.0
21.05360 47.0
21.05860 42.0
21.06360 35.0
21.06860 33.0
21.07360 30.0
21.07860 38.0
21.08360 46.0
21.08860 26.0
21.09360 33.0
21.09860 43.0
21.10360 38.0
21.10860 25.0
21.11360 38.0
21.11860 30.0
21.12360 33.0
21.12860 30.0
21.13360 33.0
21.13860 29.0
21.14360 30.0
21.14860 36.0
21.15360 39.0
21.15860 26.0
21.16360 32.0
21.16860 32.0
21.17360 29.0
21.17860 21.0
21.18360 37.0
21.18860 32.0
21.19360 29.0
21.19860 23.0
21.20360 32.0
21.20860 31.0
21.21360 42.0
21.21860 31.0
21.22360 26.0
21.22860 31.0
21.23360 40.0
21.23860 24.0
21.24360 16.0
21.24860 27.0
21.25360 26.0
21.25860 31.0
21.26360 22.0
21.26860 27.0
21.27360 31.0
21.27860 25.0
21.28360 27.0
21.28860 38.0
21.29360 32.0
21.29860 31.0
21.30360 38.0
21.30860 31.0
21.31360 33.0
21.31860 35.0
21.32360 33.0
21.32860 18.0
21.33360 36.0
21.33860 33.0
21.34360 30.0
21.34860 24.0
21.35360 28.0
21.35860 31.0
21.36360 35.0
21.36860 38.0
21.37360 28.0
21.37860 33.0
21.38360 31.0
21.38860 27.0
21.39360 22.0
21.39860 35.0
21.40360 35.0
21.40860 29.0
21.41360 30.0
21.41860 21.0
21.42360 28.0
21.42860 33.0
21.43360 30.0
21.43860 35.0
21.44360 34.0
21.44860 26.0
21.45360 32.0
21.45860 30.0
21.46360 33.0
21.46860 29.0
21.47360 26.0
21.47860 19.0
21.48360 29.0