File: data/W6901r/XRD_Omega/scan_omega_4deg_step_0.005deg0_C2.xy
23.05100 70.0
23.05600 55.0
23.06100 74.0
23.06600 70.0
23.07100 62.0
23.07600 83.0
23.08100 54.0
23.08600 63.0
23.09100 66.0
23.09600 65.0
23.10100 66.0
23.10600 67.0
23.11100 67.0
23.11600 63.0
23.12100 74.0
23.12600 59.0
23.13100 91.0
23.13600 68.0
23.14100 66.0
23.14600 71.0
23.15100 74.0
23.15600 79.0
23.16100 63.0
23.16600 61.0
23.17100 69.0
23.17600 78.0
23.18100 74.0
23.18600 63.0
23.19100 65.0
23.19600 55.0
23.20100 66.0
23.20600 64.0
23.21100 75.0
23.21600 65.0
23.22100 68.0
23.22600 63.0
23.23100 73.0
23.23600 66.0
23.24100 65.0
23.24600 53.0
23.25100 65.0
23.25600 65.0
23.26100 85.0
23.26600 56.0
23.27100 64.0
23.27600 70.0
23.28100 72.0
23.28600 62.0
23.29100 56.0
23.29600 68.0
23.30100 67.0
23.30600 73.0
23.31100 67.0
23.31600 65.0
23.32100 50.0
23.32600 69.0
23.33100 72.0
23.33600 77.0
23.34100 65.0
23.34600 69.0
23.35100 66.0
23.35600 73.0
23.36100 72.0
23.36600 77.0
23.37100 50.0
23.37600 59.0
23.38100 88.0
23.38600 74.0
23.39100 68.0
23.39600 75.0
23.40100 61.0
23.40600 63.0
23.41100 75.0
23.41600 61.0
23.42100 62.0
23.42600 62.0
23.43100 68.0
23.43600 68.0
23.44100 60.0
23.44600 87.0
23.45100 62.0
23.45600 72.0
23.46100 78.0
23.46600 64.0
23.47100 70.0
23.47600 63.0
23.48100 63.0
23.48600 72.0
23.49100 71.0
23.49600 70.0
23.50100 75.0
23.50600 68.0
23.51100 79.0
23.51600 77.0
23.52100 69.0
23.52600 62.0
23.53100 76.0
23.53600 78.0
23.54100 84.0
23.54600 63.0
23.55100 59.0
23.55600 70.0
23.56100 69.0
23.56600 69.0
23.57100 53.0
23.57600 83.0
23.58100 66.0
23.58600 73.0
23.59100 80.0
23.59600 77.0
23.60100 95.0
23.60600 72.0
23.61100 67.0
23.61600 89.0
23.62100 75.0
23.62600 59.0
23.63100 64.0
23.63600 81.0
23.64100 87.0
23.64600 70.0
23.65100 87.0
23.65600 76.0
23.66100 83.0
23.66600 77.0
23.67100 62.0
23.67600 96.0
23.68100 71.0
23.68600 75.0
23.69100 74.0
23.69600 68.0
23.70100 77.0
23.70600 87.0
23.71100 72.0
23.71600 88.0
23.72100 88.0
23.72600 79.0
23.73100 86.0
23.73600 74.0
23.74100 90.0
23.74600 69.0
23.75100 72.0
23.75600 69.0
23.76100 96.0
23.76600 82.0
23.77100 79.0
23.77600 73.0
23.78100 90.0
23.78600 80.0
23.79100 86.0
23.79600 84.0
23.80100 99.0
23.80600 85.0
23.81100 88.0
23.81600 87.0
23.82100 89.0
23.82600 93.0
23.83100 83.0
23.83600 91.0
23.84100 79.0
23.84600 101.0
23.85100 92.0
23.85600 85.0
23.86100 96.0
23.86600 86.0
23.87100 86.0
23.87600 74.0
23.88100 68.0
23.88600 97.0
23.89100 93.0
23.89600 88.0
23.90100 77.0
23.90600 100.0
23.91100 105.0
23.91600 75.0
23.92100 82.0
23.92600 81.0
23.93100 90.0
23.93600 88.0
23.94100 85.0
23.94600 81.0
23.95100 85.0
23.95600 79.0
23.96100 110.0
23.96600 92.0
23.97100 68.0
23.97600 106.0
23.98100 92.0
23.98600 96.0
23.99100 93.0
23.99600 101.0
24.00100 92.0
24.00600 89.0
24.01100 86.0
24.01600 97.0
24.02100 110.0
24.02600 83.0
24.03100 101.0
24.03600 102.0
24.04100 122.0
24.04600 111.0
24.05100 107.0
24.05600 97.0
24.06100 105.0
24.06600 104.0
24.07100 122.0
24.07600 111.0
24.08100 111.0
24.08600 98.0
24.09100 91.0
24.09600 108.0
24.10100 134.0
24.10600 103.0
24.11100 109.0
24.11600 114.0
24.12100 96.0
24.12600 104.0
24.13100 99.0
24.13600 137.0
24.14100 107.0
24.14600 137.0
24.15100 121.0
24.15600 105.0
24.16100 76.0
24.16600 104.0
24.17100 109.0
24.17600 98.0
24.18100 106.0
24.18600 127.0
24.19100 133.0
24.19600 123.0
24.20100 125.0
24.20600 128.0
24.21100 110.0
24.21600 129.0
24.22100 116.0
24.22600 109.0
24.23100 122.0
24.23600 112.0
24.24100 120.0
24.24600 118.0
24.25100 110.0
24.25600 122.0
24.26100 130.0
24.26600 107.0
24.27100 141.0
24.27600 123.0
24.28100 126.0
24.28600 125.0
24.29100 137.0
24.29600 121.0
24.30100 132.0
24.30600 127.0
24.31100 124.0
24.31600 125.0
24.32100 134.0
24.32600 138.0
24.33100 109.0
24.33600 129.0
24.34100 171.0
24.34600 144.0
24.35100 156.0
24.35600 120.0
24.36100 145.0
24.36600 157.0
24.37100 150.0
24.37600 152.0
24.38100 144.0
24.38600 152.0
24.39100 129.0
24.39600 134.0
24.40100 156.0
24.40600 127.0
24.41100 132.0
24.41600 151.0
24.42100 133.0
24.42600 146.0
24.43100 132.0
24.43600 127.0
24.44100 137.0
24.44600 173.0
24.45100 162.0
24.45600 132.0
24.46100 137.0
24.46600 143.0
24.47100 143.0
24.47600 170.0
24.48100 157.0
24.48600 167.0
24.49100 165.0
24.49600 131.0
24.50100 139.0
24.50600 131.0
24.51100 165.0
24.51600 170.0
24.52100 168.0
24.52600 149.0
24.53100 157.0
24.53600 145.0
24.54100 173.0
24.54600 181.0
24.55100 162.0
24.55600 159.0
24.56100 150.0
24.56600 143.0
24.57100 140.0
24.57600 154.0
24.58100 175.0
24.58600 161.0
24.59100 177.0
24.59600 152.0
24.60100 165.0
24.60600 173.0
24.61100 172.0
24.61600 182.0
24.62100 183.0
24.62600 176.0
24.63100 188.0
24.63600 180.0
24.64100 158.0
24.64600 191.0
24.65100 156.0
24.65600 177.0
24.66100 181.0
24.66600 172.0
24.67100 182.0
24.67600 173.0
24.68100 181.0
24.68600 177.0
24.69100 169.0
24.69600 182.0
24.70100 183.0
24.70600 210.0
24.71100 157.0
24.71600 187.0
24.72100 177.0
24.72600 189.0
24.73100 179.0
24.73600 190.0
24.74100 188.0
24.74600 162.0
24.75100 218.0
24.75600 199.0
24.76100 196.0
24.76600 214.0
24.77100 187.0
24.77600 176.0
24.78100 198.0
24.78600 212.0
24.79100 178.0
24.79600 212.0
24.80100 181.0
24.80600 186.0
24.81100 195.0
24.81600 231.0
24.82100 213.0
24.82600 195.0
24.83100 197.0
24.83600 209.0
24.84100 183.0
24.84600 230.0
24.85100 205.0
24.85600 195.0
24.86100 214.0
24.86600 219.0
24.87100 222.0
24.87600 217.0
24.88100 189.0
24.88600 237.0
24.89100 228.0
24.89600 235.0
24.90100 201.0
24.90600 233.0
24.91100 262.0
24.91600 272.0
24.92100 318.0
24.92600 276.0
24.93100 361.0
24.93600 308.0
24.94100 300.0
24.94600 339.0
24.95100 317.0
24.95600 311.0
24.96100 345.0
24.96600 312.0
24.97100 307.0
24.97600 307.0
24.98100 325.0
24.98600 293.0
24.99100 314.0
24.99600 302.0
25.00100 295.0
25.00600 323.0
25.01100 298.0
25.01600 316.0
25.02100 321.0
25.02600 316.0
25.03100 295.0
25.03600 338.0
25.04100 274.0
25.04600 290.0
25.05100 296.0
25.05600 313.0
25.06100 270.0
25.06600 318.0
25.07100 273.0
25.07600 307.0
25.08100 308.0
25.08600 281.0
25.09100 294.0
25.09600 298.0
25.10100 280.0
25.10600 302.0
25.11100 247.0
25.11600 256.0
25.12100 285.0
25.12600 247.0
25.13100 267.0
25.13600 259.0
25.14100 287.0
25.14600 266.0
25.15100 265.0
25.15600 243.0
25.16100 248.0
25.16600 298.0
25.17100 247.0
25.17600 258.0
25.18100 255.0
25.18600 227.0
25.19100 248.0
25.19600 213.0
25.20100 213.0
25.20600 213.0
25.21100 211.0
25.21600 218.0
25.22100 217.0
25.22600 196.0
25.23100 206.0
25.23600 194.0
25.24100 219.0
25.24600 194.0
25.25100 171.0
25.25600 205.0
25.26100 183.0
25.26600 214.0
25.27100 198.0
25.27600 210.0
25.28100 200.0
25.28600 195.0
25.29100 166.0
25.29600 185.0
25.30100 208.0
25.30600 201.0
25.31100 183.0
25.31600 209.0
25.32100 189.0
25.32600 157.0
25.33100 198.0
25.33600 175.0
25.34100 177.0
25.34600 168.0
25.35100 189.0
25.35600 179.0
25.36100 189.0
25.36600 156.0
25.37100 182.0
25.37600 195.0
25.38100 185.0
25.38600 168.0
25.39100 171.0
25.39600 201.0
25.40100 183.0
25.40600 174.0
25.41100 156.0
25.41600 161.0
25.42100 165.0
25.42600 169.0
25.43100 164.0
25.43600 162.0
25.44100 157.0
25.44600 141.0
25.45100 156.0
25.45600 162.0
25.46100 160.0
25.46600 158.0
25.47100 159.0
25.47600 156.0
25.48100 158.0
25.48600 146.0
25.49100 148.0
25.49600 148.0
25.50100 152.0
25.50600 155.0
25.51100 133.0
25.51600 165.0
25.52100 149.0
25.52600 164.0
25.53100 140.0
25.53600 151.0
25.54100 138.0
25.54600 135.0
25.55100 140.0
25.55600 151.0
25.56100 154.0
25.56600 148.0
25.57100 149.0
25.57600 155.0
25.58100 132.0
25.58600 143.0
25.59100 131.0
25.59600 135.0
25.60100 142.0
25.60600 148.0
25.61100 157.0
25.61600 137.0
25.62100 138.0
25.62600 158.0
25.63100 118.0
25.63600 149.0
25.64100 113.0
25.64600 121.0
25.65100 127.0
25.65600 146.0
25.66100 137.0
25.66600 120.0
25.67100 133.0
25.67600 137.0
25.68100 124.0
25.68600 124.0
25.69100 130.0
25.69600 135.0
25.70100 134.0
25.70600 118.0
25.71100 126.0
25.71600 137.0
25.72100 116.0
25.72600 124.0
25.73100 127.0
25.73600 115.0
25.74100 110.0
25.74600 124.0
25.75100 104.0
25.75600 124.0
25.76100 131.0
25.76600 115.0
25.77100 130.0
25.77600 115.0
25.78100 115.0
25.78600 122.0
25.79100 106.0
25.79600 128.0
25.80100 94.0
25.80600 124.0
25.81100 107.0
25.81600 112.0
25.82100 109.0
25.82600 103.0
25.83100 99.0
25.83600 111.0
25.84100 98.0
25.84600 94.0
25.85100 112.0
25.85600 112.0
25.86100 86.0
25.86600 129.0
25.87100 109.0
25.87600 101.0
25.88100 117.0
25.88600 131.0
25.89100 93.0
25.89600 117.0
25.90100 111.0
25.90600 112.0
25.91100 101.0
25.91600 106.0
25.92100 132.0
25.92600 121.0
25.93100 107.0
25.93600 102.0
25.94100 100.0
25.94600 113.0
25.95100 101.0
25.95600 108.0
25.96100 101.0
25.96600 89.0
25.97100 117.0
25.97600 80.0
25.98100 102.0
25.98600 107.0
25.99100 121.0
25.99600 115.0
26.00100 112.0
26.00600 92.0
26.01100 99.0
26.01600 96.0
26.02100 99.0
26.02600 84.0
26.03100 87.0
26.03600 90.0
26.04100 89.0
26.04600 97.0
26.05100 79.0
26.05600 96.0
26.06100 102.0
26.06600 87.0
26.07100 93.0
26.07600 99.0
26.08100 94.0
26.08600 86.0
26.09100 83.0
26.09600 74.0
26.10100 89.0
26.10600 85.0
26.11100 99.0
26.11600 79.0
26.12100 83.0
26.12600 98.0
26.13100 80.0
26.13600 96.0
26.14100 80.0
26.14600 87.0
26.15100 83.0
26.15600 72.0
26.16100 69.0
26.16600 78.0
26.17100 82.0
26.17600 82.0
26.18100 69.0
26.18600 81.0
26.19100 85.0
26.19600 86.0
26.20100 87.0
26.20600 80.0
26.21100 99.0
26.21600 86.0
26.22100 81.0
26.22600 65.0
26.23100 96.0
26.23600 90.0
26.24100 76.0
26.24600 67.0
26.25100 77.0
26.25600 84.0
26.26100 80.0
26.26600 93.0
26.27100 78.0
26.27600 87.0
26.28100 69.0
26.28600 71.0
26.29100 82.0
26.29600 75.0
26.30100 76.0
26.30600 79.0
26.31100 55.0
26.31600 80.0
26.32100 84.0
26.32600 110.0
26.33100 87.0
26.33600 73.0
26.34100 83.0
26.34600 62.0
26.35100 69.0
26.35600 77.0
26.36100 75.0
26.36600 76.0
26.37100 78.0
26.37600 76.0
26.38100 87.0
26.38600 61.0
26.39100 71.0
26.39600 65.0
26.40100 63.0
26.40600 78.0
26.41100 76.0
26.41600 71.0
26.42100 73.0
26.42600 75.0
26.43100 74.0
26.43600 59.0
26.44100 71.0
26.44600 58.0
26.45100 76.0
26.45600 85.0
26.46100 76.0
26.46600 76.0
26.47100 72.0
26.47600 75.0
26.48100 65.0
26.48600 69.0
26.49100 69.0
26.49600 72.0
26.50100 73.0
26.50600 54.0
26.51100 70.0
26.51600 60.0
26.52100 67.0
26.52600 44.0
26.53100 54.0
26.53600 62.0
26.54100 58.0
26.54600 56.0
26.55100 67.0
26.55600 69.0
26.56100 59.0
26.56600 65.0
26.57100 68.0
26.57600 57.0
26.58100 70.0
26.58600 65.0
26.59100 64.0
26.59600 70.0
26.60100 58.0
26.60600 74.0
26.61100 66.0
26.61600 62.0
26.62100 54.0
26.62600 60.0
26.63100 60.0
26.63600 62.0
26.64100 64.0
26.64600 64.0
26.65100 74.0
26.65600 62.0
26.66100 56.0
26.66600 77.0
26.67100 67.0
26.67600 57.0
26.68100 63.0
26.68600 61.0
26.69100 43.0
26.69600 60.0
26.70100 57.0
26.70600 69.0
26.71100 59.0
26.71600 55.0
26.72100 50.0
26.72600 60.0
26.73100 52.0
26.73600 67.0
26.74100 71.0
26.74600 48.0
26.75100 57.0
26.75600 55.0
26.76100 72.0
26.76600 64.0
26.77100 55.0
26.77600 63.0
26.78100 59.0
26.78600 56.0
26.79100 55.0
26.79600 46.0
26.80100 76.0
26.80600 56.0
26.81100 52.0
26.81600 52.0
26.82100 65.0
26.82600 53.0
26.83100 57.0
26.83600 46.0
26.84100 54.0
26.84600 55.0
26.85100 52.0
26.85600 45.0
26.86100 77.0
26.86600 60.0
26.87100 65.0
26.87600 54.0
26.88100 57.0
26.88600 58.0
26.89100 60.0
26.89600 61.0
26.90100 67.0
26.90600 42.0
26.91100 58.0
26.91600 55.0
26.92100 57.0
26.92600 63.0
26.93100 53.0
26.93600 63.0
26.94100 60.0
26.94600 72.0
26.95100 50.0
26.95600 58.0
26.96100 70.0
26.96600 54.0
26.97100 59.0
26.97600 55.0
26.98100 48.0
26.98600 56.0
26.99100 53.0
26.99600 65.0
27.00100 57.0
27.00600 52.0
27.01100 60.0