File: data/W6903c/XRD_Omega/scan_omega_4deg_step_0.005deg0_C4_3.xy
17.80590 81.0
17.81090 87.0
17.81590 71.0
17.82090 74.0
17.82590 84.0
17.83090 72.0
17.83590 75.0
17.84090 70.0
17.84590 80.0
17.85090 52.0
17.85590 93.0
17.86090 77.0
17.86590 74.0
17.87090 70.0
17.87590 86.0
17.88090 70.0
17.88590 73.0
17.89090 88.0
17.89590 65.0
17.90090 75.0
17.90590 82.0
17.91090 80.0
17.91590 66.0
17.92090 84.0
17.92590 81.0
17.93090 83.0
17.93590 84.0
17.94090 74.0
17.94590 84.0
17.95090 104.0
17.95590 75.0
17.96090 89.0
17.96590 71.0
17.97090 60.0
17.97590 84.0
17.98090 74.0
17.98590 84.0
17.99090 82.0
17.99590 84.0
18.00090 60.0
18.00590 78.0
18.01090 71.0
18.01590 85.0
18.02090 79.0
18.02590 79.0
18.03090 75.0
18.03590 72.0
18.04090 90.0
18.04590 63.0
18.05090 76.0
18.05590 98.0
18.06090 76.0
18.06590 58.0
18.07090 54.0
18.07590 55.0
18.08090 73.0
18.08590 87.0
18.09090 76.0
18.09590 68.0
18.10090 88.0
18.10590 60.0
18.11090 71.0
18.11590 80.0
18.12090 81.0
18.12590 70.0
18.13090 92.0
18.13590 76.0
18.14090 93.0
18.14590 90.0
18.15090 65.0
18.15590 72.0
18.16090 81.0
18.16590 89.0
18.17090 74.0
18.17590 77.0
18.18090 93.0
18.18590 61.0
18.19090 79.0
18.19590 78.0
18.20090 70.0
18.20590 78.0
18.21090 92.0
18.21590 88.0
18.22090 82.0
18.22590 90.0
18.23090 68.0
18.23590 89.0
18.24090 70.0
18.24590 93.0
18.25090 80.0
18.25590 91.0
18.26090 97.0
18.26590 72.0
18.27090 90.0
18.27590 79.0
18.28090 72.0
18.28590 89.0
18.29090 88.0
18.29590 72.0
18.30090 83.0
18.30590 83.0
18.31090 84.0
18.31590 84.0
18.32090 88.0
18.32590 91.0
18.33090 80.0
18.33590 90.0
18.34090 80.0
18.34590 100.0
18.35090 86.0
18.35590 77.0
18.36090 96.0
18.36590 98.0
18.37090 93.0
18.37590 72.0
18.38090 102.0
18.38590 87.0
18.39090 83.0
18.39590 93.0
18.40090 105.0
18.40590 98.0
18.41090 75.0
18.41590 97.0
18.42090 79.0
18.42590 80.0
18.43090 83.0
18.43590 83.0
18.44090 89.0
18.44590 89.0
18.45090 82.0
18.45590 99.0
18.46090 105.0
18.46590 73.0
18.47090 102.0
18.47590 78.0
18.48090 92.0
18.48590 91.0
18.49090 99.0
18.49590 117.0
18.50090 100.0
18.50590 90.0
18.51090 97.0
18.51590 115.0
18.52090 104.0
18.52590 97.0
18.53090 92.0
18.53590 95.0
18.54090 98.0
18.54590 115.0
18.55090 107.0
18.55590 93.0
18.56090 119.0
18.56590 88.0
18.57090 107.0
18.57590 98.0
18.58090 88.0
18.58590 102.0
18.59090 100.0
18.59590 100.0
18.60090 114.0
18.60590 123.0
18.61090 93.0
18.61590 104.0
18.62090 116.0
18.62590 131.0
18.63090 103.0
18.63590 103.0
18.64090 108.0
18.64590 114.0
18.65090 128.0
18.65590 121.0
18.66090 127.0
18.66590 125.0
18.67090 82.0
18.67590 112.0
18.68090 130.0
18.68590 116.0
18.69090 125.0
18.69590 116.0
18.70090 133.0
18.70590 132.0
18.71090 120.0
18.71590 153.0
18.72090 152.0
18.72590 113.0
18.73090 120.0
18.73590 130.0
18.74090 142.0
18.74590 128.0
18.75090 124.0
18.75590 136.0
18.76090 150.0
18.76590 124.0
18.77090 140.0
18.77590 144.0
18.78090 123.0
18.78590 153.0
18.79090 129.0
18.79590 149.0
18.80090 173.0
18.80590 145.0
18.81090 153.0
18.81590 143.0
18.82090 152.0
18.82590 156.0
18.83090 183.0
18.83590 159.0
18.84090 170.0
18.84590 164.0
18.85090 180.0
18.85590 190.0
18.86090 181.0
18.86590 160.0
18.87090 152.0
18.87590 183.0
18.88090 182.0
18.88590 155.0
18.89090 174.0
18.89590 162.0
18.90090 184.0
18.90590 194.0
18.91090 197.0
18.91590 200.0
18.92090 218.0
18.92590 211.0
18.93090 203.0
18.93590 222.0
18.94090 208.0
18.94590 226.0
18.95090 243.0
18.95590 229.0
18.96090 234.0
18.96590 234.0
18.97090 229.0
18.97590 244.0
18.98090 239.0
18.98590 254.0
18.99090 258.0
18.99590 236.0
19.00090 278.0
19.00590 261.0
19.01090 244.0
19.01590 297.0
19.02090 265.0
19.02590 239.0
19.03090 275.0
19.03590 273.0
19.04090 290.0
19.04590 293.0
19.05090 279.0
19.05590 286.0
19.06090 304.0
19.06590 322.0
19.07090 325.0
19.07590 323.0
19.08090 310.0
19.08590 354.0
19.09090 381.0
19.09590 347.0
19.10090 399.0
19.10590 344.0
19.11090 377.0
19.11590 357.0
19.12090 382.0
19.12590 361.0
19.13090 449.0
19.13590 401.0
19.14090 423.0
19.14590 390.0
19.15090 423.0
19.15590 423.0
19.16090 438.0
19.16590 454.0
19.17090 415.0
19.17590 474.0
19.18090 437.0
19.18590 436.0
19.19090 493.0
19.19590 489.0
19.20090 530.0
19.20590 538.0
19.21090 523.0
19.21590 559.0
19.22090 551.0
19.22590 567.0
19.23090 566.0
19.23590 622.0
19.24090 591.0
19.24590 558.0
19.25090 589.0
19.25590 667.0
19.26090 651.0
19.26590 669.0
19.27090 622.0
19.27590 692.0
19.28090 665.0
19.28590 706.0
19.29090 729.0
19.29590 787.0
19.30090 753.0
19.30590 711.0
19.31090 735.0
19.31590 723.0
19.32090 768.0
19.32590 854.0
19.33090 808.0
19.33590 897.0
19.34090 895.0
19.34590 920.0
19.35090 930.0
19.35590 876.0
19.36090 948.0
19.36590 919.0
19.37090 1037.0
19.37590 1050.0
19.38090 1003.0
19.38590 1012.0
19.39090 1025.0
19.39590 1073.0
19.40090 1106.0
19.40590 1080.0
19.41090 1086.0
19.41590 1194.0
19.42090 1204.0
19.42590 1207.0
19.43090 1187.0
19.43590 1216.0
19.44090 1243.0
19.44590 1303.0
19.45090 1298.0
19.45590 1362.0
19.46090 1324.0
19.46590 1395.0
19.47090 1429.0
19.47590 1496.0
19.48090 1459.0
19.48590 1492.0
19.49090 1576.0
19.49590 1575.0
19.50090 1589.0
19.50590 1576.0
19.51090 1628.0
19.51590 1638.0
19.52090 1707.0
19.52590 1703.0
19.53090 1743.0
19.53590 1759.0
19.54090 1815.0
19.54590 1879.0
19.55090 1811.0
19.55590 1867.0
19.56090 1895.0
19.56590 1866.0
19.57090 1886.0
19.57590 1974.0
19.58090 1964.0
19.58590 2093.0
19.59090 2136.0
19.59590 2104.0
19.60090 2091.0
19.60590 2157.0
19.61090 2128.0
19.61590 2141.0
19.62090 2185.0
19.62590 2325.0
19.63090 2327.0
19.63590 2356.0
19.64090 2361.0
19.64590 2275.0
19.65090 2396.0
19.65590 2408.0
19.66090 2481.0
19.66590 2388.0
19.67090 2437.0
19.67590 2516.0
19.68090 2523.0
19.68590 2533.0
19.69090 2581.0
19.69590 2641.0
19.70090 2591.0
19.70590 2630.0
19.71090 2743.0
19.71590 2689.0
19.72090 2655.0
19.72590 2710.0
19.73090 2716.0
19.73590 2735.0
19.74090 2732.0
19.74590 2754.0
19.75090 2797.0
19.75590 2871.0
19.76090 2819.0
19.76590 2834.0
19.77090 2868.0
19.77590 2930.0
19.78090 2847.0
19.78590 2908.0
19.79090 2940.0
19.79590 2977.0
19.80090 2838.0
19.80590 2916.0
19.81090 2852.0
19.81590 2803.0
19.82090 2887.0
19.82590 2931.0
19.83090 2830.0
19.83590 2859.0
19.84090 2843.0
19.84590 2744.0
19.85090 2777.0
19.85590 2759.0
19.86090 2675.0
19.86590 2661.0
19.87090 2716.0
19.87590 2700.0
19.88090 2683.0
19.88590 2563.0
19.89090 2599.0
19.89590 2735.0
19.90090 2579.0
19.90590 2595.0
19.91090 2536.0
19.91590 2470.0
19.92090 2483.0
19.92590 2374.0
19.93090 2420.0
19.93590 2353.0
19.94090 2414.0
19.94590 2328.0
19.95090 2317.0
19.95590 2290.0
19.96090 2293.0
19.96590 2156.0
19.97090 2173.0
19.97590 2154.0
19.98090 2084.0
19.98590 2047.0
19.99090 2025.0
19.99590 1990.0
20.00090 2020.0
20.00590 2011.0
20.01090 1915.0
20.01590 1875.0
20.02090 1854.0
20.02590 1872.0
20.03090 1839.0
20.03590 1790.0
20.04090 1809.0
20.04590 1661.0
20.05090 1631.0
20.05590 1647.0
20.06090 1618.0
20.06590 1610.0
20.07090 1572.0
20.07590 1543.0
20.08090 1548.0
20.08590 1497.0
20.09090 1498.0
20.09590 1438.0
20.10090 1448.0
20.10590 1475.0
20.11090 1416.0
20.11590 1264.0
20.12090 1311.0
20.12590 1285.0
20.13090 1274.0
20.13590 1185.0
20.14090 1236.0
20.14590 1217.0
20.15090 1164.0
20.15590 1147.0
20.16090 1102.0
20.16590 1103.0
20.17090 1122.0
20.17590 1148.0
20.18090 1062.0
20.18590 1014.0
20.19090 1010.0
20.19590 973.0
20.20090 921.0
20.20590 933.0
20.21090 899.0
20.21590 914.0
20.22090 848.0
20.22590 874.0
20.23090 820.0
20.23590 867.0
20.24090 791.0
20.24590 835.0
20.25090 792.0
20.25590 768.0
20.26090 729.0
20.26590 761.0
20.27090 758.0
20.27590 696.0
20.28090 631.0
20.28590 692.0
20.29090 664.0
20.29590 644.0
20.30090 621.0
20.30590 682.0
20.31090 595.0
20.31590 599.0
20.32090 592.0
20.32590 534.0
20.33090 592.0
20.33590 525.0
20.34090 596.0
20.34590 557.0
20.35090 499.0
20.35590 489.0
20.36090 518.0
20.36590 467.0
20.37090 497.0
20.37590 486.0
20.38090 444.0
20.38590 459.0
20.39090 469.0
20.39590 455.0
20.40090 430.0
20.40590 392.0
20.41090 441.0
20.41590 393.0
20.42090 395.0
20.42590 396.0
20.43090 373.0
20.43590 393.0
20.44090 355.0
20.44590 342.0
20.45090 367.0
20.45590 331.0
20.46090 349.0
20.46590 350.0
20.47090 324.0
20.47590 319.0
20.48090 330.0
20.48590 365.0
20.49090 322.0
20.49590 271.0
20.50090 320.0
20.50590 316.0
20.51090 282.0
20.51590 292.0
20.52090 266.0
20.52590 273.0
20.53090 277.0
20.53590 288.0
20.54090 266.0
20.54590 254.0
20.55090 247.0
20.55590 268.0
20.56090 260.0
20.56590 260.0
20.57090 240.0
20.57590 245.0
20.58090 219.0
20.58590 220.0
20.59090 212.0
20.59590 212.0
20.60090 223.0
20.60590 216.0
20.61090 206.0
20.61590 226.0
20.62090 193.0
20.62590 221.0
20.63090 218.0
20.63590 219.0
20.64090 194.0
20.64590 206.0
20.65090 173.0
20.65590 198.0
20.66090 183.0
20.66590 172.0
20.67090 194.0
20.67590 184.0
20.68090 169.0
20.68590 164.0
20.69090 181.0
20.69590 185.0
20.70090 190.0
20.70590 168.0
20.71090 138.0
20.71590 177.0
20.72090 197.0
20.72590 164.0
20.73090 146.0
20.73590 145.0
20.74090 131.0
20.74590 161.0
20.75090 151.0
20.75590 152.0
20.76090 156.0
20.76590 145.0
20.77090 131.0
20.77590 125.0
20.78090 125.0
20.78590 136.0
20.79090 135.0
20.79590 126.0
20.80090 129.0
20.80590 138.0
20.81090 131.0
20.81590 130.0
20.82090 113.0
20.82590 114.0
20.83090 128.0
20.83590 121.0
20.84090 125.0
20.84590 119.0
20.85090 120.0
20.85590 122.0
20.86090 100.0
20.86590 128.0
20.87090 132.0
20.87590 120.0
20.88090 116.0
20.88590 108.0
20.89090 121.0
20.89590 81.0
20.90090 102.0
20.90590 99.0
20.91090 101.0
20.91590 123.0
20.92090 91.0
20.92590 110.0
20.93090 112.0
20.93590 126.0
20.94090 102.0
20.94590 102.0
20.95090 111.0
20.95590 117.0
20.96090 100.0
20.96590 107.0
20.97090 93.0
20.97590 87.0
20.98090 112.0
20.98590 94.0
20.99090 100.0
20.99590 96.0
21.00090 95.0
21.00590 86.0
21.01090 97.0
21.01590 100.0
21.02090 98.0
21.02590 76.0
21.03090 105.0
21.03590 95.0
21.04090 90.0
21.04590 86.0
21.05090 91.0
21.05590 76.0
21.06090 86.0
21.06590 89.0
21.07090 91.0
21.07590 93.0
21.08090 85.0
21.08590 90.0
21.09090 61.0
21.09590 88.0
21.10090 79.0
21.10590 89.0
21.11090 77.0
21.11590 73.0
21.12090 104.0
21.12590 100.0
21.13090 87.0
21.13590 93.0
21.14090 88.0
21.14590 88.0
21.15090 75.0
21.15590 64.0
21.16090 92.0
21.16590 77.0
21.17090 76.0
21.17590 86.0
21.18090 74.0
21.18590 92.0
21.19090 78.0
21.19590 74.0
21.20090 75.0
21.20590 80.0
21.21090 74.0
21.21590 60.0
21.22090 80.0
21.22590 72.0
21.23090 64.0
21.23590 69.0
21.24090 89.0
21.24590 83.0
21.25090 80.0
21.25590 72.0
21.26090 83.0
21.26590 88.0
21.27090 61.0
21.27590 74.0
21.28090 88.0
21.28590 66.0
21.29090 83.0
21.29590 75.0
21.30090 79.0
21.30590 82.0
21.31090 66.0
21.31590 82.0
21.32090 83.0
21.32590 57.0
21.33090 64.0
21.33590 69.0
21.34090 74.0
21.34590 68.0
21.35090 75.0
21.35590 58.0
21.36090 72.0
21.36590 72.0
21.37090 69.0
21.37590 83.0
21.38090 85.0
21.38590 74.0
21.39090 58.0
21.39590 73.0
21.40090 80.0
21.40590 72.0
21.41090 62.0
21.41590 64.0
21.42090 76.0
21.42590 60.0
21.43090 69.0
21.43590 76.0
21.44090 58.0
21.44590 51.0
21.45090 59.0
21.45590 72.0
21.46090 82.0
21.46590 67.0
21.47090 53.0
21.47590 66.0
21.48090 58.0
21.48590 72.0
21.49090 71.0
21.49590 69.0
21.50090 83.0
21.50590 67.0
21.51090 58.0
21.51590 62.0
21.52090 60.0
21.52590 70.0
21.53090 63.0
21.53590 65.0
21.54090 62.0
21.54590 69.0
21.55090 73.0
21.55590 58.0
21.56090 49.0
21.56590 67.0
21.57090 70.0
21.57590 77.0
21.58090 50.0
21.58590 75.0
21.59090 68.0
21.59590 68.0
21.60090 72.0
21.60590 71.0
21.61090 68.0
21.61590 65.0
21.62090 78.0
21.62590 68.0
21.63090 61.0
21.63590 67.0
21.64090 88.0
21.64590 59.0
21.65090 79.0
21.65590 57.0
21.66090 68.0
21.66590 67.0
21.67090 70.0
21.67590 66.0
21.68090 66.0
21.68590 67.0
21.69090 63.0
21.69590 73.0
21.70090 78.0
21.70590 71.0
21.71090 67.0
21.71590 75.0
21.72090 55.0
21.72590 66.0
21.73090 76.0
21.73590 60.0
21.74090 66.0
21.74590 51.0
21.75090 76.0
21.75590 71.0
21.76090 69.0
21.76590 59.0