File: data/W6903r/XRD_2ThetaOmega/scan_2th-om_r2_Cr2O3_45-55deg_PIXscan_5min_C4.xy
45.0025 110.0
45.0123 122.0
45.0222 125.0
45.032 108.0
45.0419 131.0
45.0517 111.0
45.0615 115.0
45.0714 112.0
45.0812 114.0
45.0911 122.0
45.1009 118.0
45.1108 100.0
45.1206 115.0
45.1305 129.0
45.1403 100.0
45.1502 125.0
45.16 118.0
45.1699 117.0
45.1797 120.0
45.1896 137.0
45.1994 112.0
45.2093 108.0
45.2191 112.0
45.229 132.0
45.2388 121.0
45.2487 121.0
45.2585 105.0
45.2684 103.0
45.2782 104.0
45.288 120.0
45.2979 107.0
45.3077 120.0
45.3176 106.0
45.3274 105.0
45.3373 103.0
45.3471 122.0
45.357 126.0
45.3668 114.0
45.3767 108.0
45.3865 104.0
45.3964 96.0
45.4062 116.0
45.4161 98.0
45.4259 117.0
45.4358 98.0
45.4456 108.0
45.4555 113.0
45.4653 116.0
45.4752 107.0
45.485 119.0
45.4948 102.0
45.5047 98.0
45.5145 115.0
45.5244 108.0
45.5342 120.0
45.5441 108.0
45.5539 95.0
45.5638 106.0
45.5736 103.0
45.5835 98.0
45.5933 109.0
45.6032 112.0
45.613 102.0
45.6229 96.0
45.6327 99.0
45.6426 121.0
45.6524 102.0
45.6623 120.0
45.6721 106.0
45.682 110.0
45.6918 107.0
45.7016 100.0
45.7115 109.0
45.7213 105.0
45.7312 124.0
45.741 108.0
45.7509 113.0
45.7607 113.0
45.7706 96.0
45.7804 99.0
45.7903 116.0
45.8001 128.0
45.81 114.0
45.8198 112.0
45.8297 103.0
45.8395 99.0
45.8494 114.0
45.8592 120.0
45.8691 114.0
45.8789 134.0
45.8888 122.0
45.8986 95.0
45.9085 98.0
45.9183 105.0
45.9281 107.0
45.938 116.0
45.9478 108.0
45.9577 84.0
45.9675 116.0
45.9774 121.0
45.9872 111.0
45.9971 110.0
46.0069 109.0
46.0168 110.0
46.0266 102.0
46.0365 106.0
46.0463 107.0
46.0562 115.0
46.066 106.0
46.0759 122.0
46.0857 116.0
46.0956 121.0
46.1054 102.0
46.1153 95.0
46.1251 112.0
46.1349 91.0
46.1448 104.0
46.1546 108.0
46.1645 102.0
46.1743 115.0
46.1842 104.0
46.194 117.0
46.2039 112.0
46.2137 113.0
46.2236 127.0
46.2334 111.0
46.2433 128.0
46.2531 118.0
46.263 95.0
46.2728 112.0
46.2827 115.0
46.2925 102.0
46.3024 113.0
46.3122 114.0
46.3221 109.0
46.3319 111.0
46.3418 121.0
46.3516 107.0
46.3614 116.0
46.3713 97.0
46.3811 109.0
46.391 107.0
46.4008 95.0
46.4107 115.0
46.4205 114.0
46.4304 118.0
46.4402 97.0
46.4501 113.0
46.4599 123.0
46.4698 116.0
46.4796 126.0
46.4895 99.0
46.4993 119.0
46.5092 119.0
46.519 97.0
46.5289 126.0
46.5387 104.0
46.5486 110.0
46.5584 116.0
46.5682 116.0
46.5781 90.0
46.5879 110.0
46.5978 98.0
46.6076 106.0
46.6175 122.0
46.6273 108.0
46.6372 119.0
46.647 111.0
46.6569 128.0
46.6667 116.0
46.6766 121.0
46.6864 127.0
46.6963 98.0
46.7061 131.0
46.716 142.0
46.7258 127.0
46.7357 133.0
46.7455 162.0
46.7554 131.0
46.7652 139.0
46.7751 115.0
46.7849 122.0
46.7947 119.0
46.8046 123.0
46.8144 128.0
46.8243 138.0
46.8341 138.0
46.844 139.0
46.8538 121.0
46.8637 109.0
46.8735 118.0
46.8834 123.0
46.8932 153.0
46.9031 116.0
46.9129 127.0
46.9228 125.0
46.9326 131.0
46.9425 129.0
46.9523 132.0
46.9622 121.0
46.972 145.0
46.9819 142.0
46.9917 131.0
47.0015 128.0
47.0114 167.0
47.0212 180.0
47.0311 206.0
47.0409 210.0
47.0508 296.0
47.0606 377.0
47.0705 495.0
47.0803 749.0
47.0902 1101.0
47.1 1468.0
47.1099 1669.0
47.1197 1740.0
47.1296 1714.0
47.1394 1545.0
47.1493 1165.0
47.1591 938.0
47.169 697.0
47.1788 587.0
47.1887 509.0
47.1985 494.0
47.2083 499.0
47.2182 448.0
47.228 378.0
47.2379 313.0
47.2477 268.0
47.2576 210.0
47.2674 209.0
47.2773 184.0
47.2871 194.0
47.297 171.0
47.3068 177.0
47.3167 179.0
47.3265 146.0
47.3364 160.0
47.3462 174.0
47.3561 161.0
47.3659 154.0
47.3758 130.0
47.3856 151.0
47.3955 122.0
47.4053 147.0
47.4152 140.0
47.425 142.0
47.4348 154.0
47.4447 147.0
47.4545 145.0
47.4644 123.0
47.4742 143.0
47.4841 136.0
47.4939 125.0
47.5038 131.0
47.5136 133.0
47.5235 138.0
47.5333 154.0
47.5432 131.0
47.553 123.0
47.5629 125.0
47.5727 128.0
47.5826 122.0
47.5924 143.0
47.6023 124.0
47.6121 135.0
47.622 121.0
47.6318 139.0
47.6416 131.0
47.6515 113.0
47.6613 135.0
47.6712 125.0
47.681 132.0
47.6909 130.0
47.7007 128.0
47.7106 122.0
47.7204 138.0
47.7303 141.0
47.7401 148.0
47.75 125.0
47.7598 121.0
47.7697 123.0
47.7795 135.0
47.7894 117.0
47.7992 115.0
47.8091 119.0
47.8189 124.0
47.8288 121.0
47.8386 130.0
47.8485 117.0
47.8583 156.0
47.8681 131.0
47.878 133.0
47.8878 120.0
47.8977 147.0
47.9075 135.0
47.9174 115.0
47.9272 134.0
47.9371 137.0
47.9469 131.0
47.9568 148.0
47.9666 146.0
47.9765 144.0
47.9863 129.0
47.9962 138.0
48.006 145.0
48.0159 142.0
48.0257 136.0
48.0356 135.0
48.0454 141.0
48.0553 124.0
48.0651 132.0
48.0749 142.0
48.0848 131.0
48.0946 116.0
48.1045 127.0
48.1143 158.0
48.1242 162.0
48.134 136.0
48.1439 148.0
48.1537 149.0
48.1636 112.0
48.1734 148.0
48.1833 129.0
48.1931 128.0
48.203 128.0
48.2128 151.0
48.2227 130.0
48.2325 124.0
48.2424 134.0
48.2522 133.0
48.2621 132.0
48.2719 144.0
48.2818 136.0
48.2916 126.0
48.3014 149.0
48.3113 154.0
48.3211 142.0
48.331 142.0
48.3408 139.0
48.3507 150.0
48.3605 156.0
48.3704 154.0
48.3802 143.0
48.3901 146.0
48.3999 143.0
48.4098 155.0
48.4196 129.0
48.4295 153.0
48.4393 150.0
48.4492 151.0
48.459 148.0
48.4689 151.0
48.4787 157.0
48.4886 160.0
48.4984 141.0
48.5082 178.0
48.5181 164.0
48.5279 142.0
48.5378 179.0
48.5476 163.0
48.5575 141.0
48.5673 151.0
48.5772 159.0
48.587 148.0
48.5969 151.0
48.6067 165.0
48.6166 173.0
48.6264 158.0
48.6363 176.0
48.6461 149.0
48.656 155.0
48.6658 166.0
48.6757 166.0
48.6855 168.0
48.6954 147.0
48.7052 171.0
48.715 160.0
48.7249 171.0
48.7347 141.0
48.7446 169.0
48.7544 164.0
48.7643 198.0
48.7741 161.0
48.784 177.0
48.7938 186.0
48.8037 203.0
48.8135 170.0
48.8234 154.0
48.8332 171.0
48.8431 172.0
48.8529 163.0
48.8628 169.0
48.8726 172.0
48.8825 187.0
48.8923 191.0
48.9022 195.0
48.912 182.0
48.9219 201.0
48.9317 215.0
48.9415 203.0
48.9514 190.0
48.9612 189.0
48.9711 208.0
48.9809 208.0
48.9908 211.0
49.0006 243.0
49.0105 211.0
49.0203 216.0
49.0302 230.0
49.04 216.0
49.0499 219.0
49.0597 239.0
49.0696 249.0
49.0794 237.0
49.0893 222.0
49.0991 261.0
49.109 238.0
49.1188 263.0
49.1287 270.0
49.1385 249.0
49.1483 274.0
49.1582 278.0
49.168 262.0
49.1779 298.0
49.1877 289.0
49.1976 330.0
49.2074 271.0
49.2173 327.0
49.2271 309.0
49.237 326.0
49.2468 354.0
49.2567 353.0
49.2665 353.0
49.2764 352.0
49.2862 363.0
49.2961 377.0
49.3059 424.0
49.3158 398.0
49.3256 418.0
49.3355 449.0
49.3453 453.0
49.3552 492.0
49.365 455.0
49.3748 473.0
49.3847 504.0
49.3945 567.0
49.4044 605.0
49.4142 566.0
49.4241 615.0
49.4339 653.0
49.4438 728.0
49.4536 721.0
49.4635 757.0
49.4733 825.0
49.4832 841.0
49.493 925.0
49.5029 893.0
49.5127 1015.0
49.5226 1102.0
49.5324 1171.0
49.5423 1206.0
49.5521 1276.0
49.562 1378.0
49.5718 1470.0
49.5816 1628.0
49.5915 1656.0
49.6013 1818.0
49.6112 1960.0
49.621 2183.0
49.6309 2274.0
49.6407 2464.0
49.6506 2624.0
49.6604 2719.0
49.6703 2970.0
49.6801 3148.0
49.69 3305.0
49.6998 3522.0
49.7097 3622.0
49.7195 3931.0
49.7294 4061.0
49.7392 4238.0
49.7491 4369.0
49.7589 4477.0
49.7688 4696.0
49.7786 4739.0
49.7884 4889.0
49.7983 5040.0
49.8081 5093.0
49.818 5257.0
49.8278 5286.0
49.8377 5456.0
49.8475 5492.0
49.8574 5356.0
49.8672 5414.0
49.8771 5388.0
49.8869 5468.0
49.8968 5339.0
49.9066 5311.0
49.9165 5304.0
49.9263 5388.0
49.9362 5194.0
49.946 5209.0
49.9559 5111.0
49.9657 4904.0
49.9756 4809.0
49.9854 4716.0
49.9953 4645.0
50.0051 4350.0
50.0149 4306.0
50.0248 4089.0
50.0346 3946.0
50.0445 3990.0
50.0543 3816.0
50.0642 3573.0
50.074 3427.0
50.0839 3324.0
50.0937 3208.0
50.1036 3078.0
50.1134 2982.0
50.1233 2918.0
50.1331 2707.0
50.143 2638.0
50.1528 2523.0
50.1627 2370.0
50.1725 2271.0
50.1824 2127.0
50.1922 2011.0
50.2021 1982.0
50.2119 1843.0
50.2217 1688.0
50.2316 1672.0
50.2414 1572.0
50.2513 1501.0
50.2611 1479.0
50.271 1309.0
50.2808 1373.0
50.2907 1252.0
50.3005 1219.0
50.3104 1106.0
50.3202 1056.0
50.3301 952.0
50.3399 970.0
50.3498 894.0
50.3596 902.0
50.3695 892.0
50.3793 844.0
50.3892 808.0
50.399 758.0
50.4089 737.0
50.4187 725.0
50.4286 640.0
50.4384 700.0
50.4482 619.0
50.4581 643.0
50.4679 590.0
50.4778 572.0
50.4876 531.0
50.4975 529.0
50.5073 551.0
50.5172 472.0
50.527 463.0
50.5369 485.0
50.5467 444.0
50.5566 461.0
50.5664 437.0
50.5763 428.0
50.5861 477.0
50.596 428.0
50.6058 440.0
50.6157 374.0
50.6255 369.0
50.6354 335.0
50.6452 358.0
50.655 355.0
50.6649 370.0
50.6747 368.0
50.6846 397.0
50.6944 355.0
50.7043 329.0
50.7141 326.0
50.724 319.0
50.7338 330.0
50.7437 310.0
50.7535 304.0
50.7634 323.0
50.7732 312.0
50.7831 308.0
50.7929 296.0
50.8028 348.0
50.8126 302.0
50.8225 309.0
50.8323 299.0
50.8422 338.0
50.852 314.0
50.8619 306.0
50.8717 282.0
50.8815 309.0
50.8914 286.0
50.9012 325.0
50.9111 308.0
50.9209 341.0
50.9308 310.0
50.9406 282.0
50.9505 310.0
50.9603 266.0
50.9702 317.0
50.98 345.0
50.9899 295.0
50.9997 308.0
51.0096 335.0
51.0194 345.0
51.0293 349.0
51.0391 312.0
51.049 322.0
51.0588 315.0
51.0687 316.0
51.0785 341.0
51.0883 347.0
51.0982 352.0
51.108 382.0
51.1179 351.0
51.1277 350.0
51.1376 344.0
51.1474 341.0
51.1573 345.0
51.1671 372.0
51.177 334.0
51.1868 368.0
51.1967 383.0
51.2065 389.0
51.2164 380.0
51.2262 401.0
51.2361 362.0
51.2459 385.0
51.2558 359.0
51.2656 398.0
51.2755 388.0
51.2853 378.0
51.2951 405.0
51.305 412.0
51.3148 367.0
51.3247 420.0
51.3345 403.0
51.3444 402.0
51.3542 442.0
51.3641 405.0
51.3739 412.0
51.3838 427.0
51.3936 421.0
51.4035 438.0
51.4133 420.0
51.4232 425.0
51.433 465.0
51.4429 429.0
51.4527 473.0
51.4626 449.0
51.4724 514.0
51.4823 482.0
51.4921 533.0
51.502 489.0
51.5118 518.0
51.5216 481.0
51.5315 481.0
51.5413 519.0
51.5512 497.0
51.561 541.0
51.5709 545.0
51.5807 519.0
51.5906 540.0
51.6004 523.0
51.6103 528.0
51.6201 572.0
51.63 566.0
51.6398 583.0
51.6497 577.0
51.6595 598.0
51.6694 559.0
51.6792 617.0
51.6891 601.0
51.6989 597.0
51.7088 674.0
51.7186 625.0
51.7284 656.0
51.7383 625.0
51.7481 707.0
51.758 681.0
51.7678 680.0
51.7777 630.0
51.7875 733.0
51.7974 692.0
51.8072 721.0
51.8171 697.0
51.8269 735.0
51.8368 694.0
51.8466 784.0
51.8565 795.0
51.8663 767.0
51.8762 821.0
51.886 806.0
51.8959 821.0
51.9057 868.0
51.9156 847.0
51.9254 876.0
51.9353 888.0
51.9451 910.0
51.9549 850.0
51.9648 953.0
51.9746 959.0
51.9845 967.0
51.9943 970.0
52.0042 979.0
52.014 1041.0
52.0239 1075.0
52.0337 1110.0
52.0436 1191.0
52.0534 1174.0
52.0633 1171.0
52.0731 1192.0
52.083 1247.0
52.0928 1346.0
52.1027 1452.0
52.1125 1388.0
52.1224 1451.0
52.1322 1512.0
52.1421 1657.0
52.1519 1740.0
52.1617 1793.0
52.1716 1863.0
52.1814 2082.0
52.1913 2260.0
52.2011 2651.0
52.211 2872.0
52.2208 3325.0
52.2307 3766.0
52.2405 4145.0
52.2504 4612.0
52.2602 4981.0
52.2701 5213.0
52.2799 5383.0
52.2898 5427.0
52.2996 5429.0
52.3095 5338.0
52.3193 5232.0
52.3292 5246.0
52.339 5409.0
52.3489 5477.0
52.3587 5825.0
52.3686 6370.0
52.3784 6979.0
52.3882 8154.0
52.3981 9531.0
52.4079 11316.0
52.4178 13995.0
52.4276 17486.0
52.4375 23127.0
52.4473 31926.0
52.4572 49593.0
52.467 88410.0
52.4769 185414.0
52.4867 325110.0
52.4966 410382.0
52.5064 447864.0
52.5163 450892.0
52.5261 413451.0
52.536 295874.0
52.5458 160210.0
52.5557 87961.0
52.5655 53626.0
52.5754 39313.0
52.5852 34707.0
52.595 37441.0
52.6049 50752.0
52.6147 86818.0
52.6246 147622.0
52.6344 197690.0
52.6443 222341.0
52.6541 225820.0
52.664 209223.0
52.6738 164054.0
52.6837 100345.0
52.6935 54594.0
52.7034 32036.0
52.7132 20738.0
52.7231 14825.0
52.7329 11284.0
52.7428 9467.0
52.7526 7910.0
52.7625 6901.0
52.7723 6136.0
52.7822 5367.0
52.792 4833.0
52.8018 4417.0
52.8117 4053.0
52.8215 3879.0
52.8314 3498.0
52.8412 3180.0
52.8511 3023.0
52.8609 2809.0
52.8708 2767.0
52.8806 2513.0
52.8905 2398.0
52.9003 2314.0
52.9102 2129.0
52.92 2078.0
52.9299 2016.0
52.9397 1872.0
52.9496 1752.0
52.9594 1733.0
52.9693 1600.0
52.9791 1615.0
52.989 1537.0
52.9988 1462.0
53.0087 1360.0
53.0185 1315.0
53.0283 1246.0
53.0382 1247.0
53.048 1197.0
53.0579 1140.0
53.0677 1157.0
53.0776 1088.0
53.0874 1105.0
53.0973 1028.0
53.1071 1024.0
53.117 904.0
53.1268 919.0
53.1367 889.0
53.1465 900.0
53.1564 881.0
53.1662 835.0
53.1761 840.0
53.1859 774.0
53.1958 812.0
53.2056 775.0
53.2155 743.0
53.2253 779.0
53.2351 693.0
53.245 718.0
53.2548 709.0
53.2647 709.0
53.2745 701.0
53.2844 643.0
53.2942 630.0
53.3041 645.0
53.3139 613.0
53.3238 599.0
53.3336 603.0
53.3435 604.0
53.3533 590.0
53.3632 588.0
53.373 552.0
53.3829 509.0
53.3927 565.0
53.4026 485.0
53.4124 489.0
53.4223 493.0
53.4321 469.0
53.442 483.0
53.4518 448.0
53.4616 398.0
53.4715 445.0
53.4813 450.0
53.4912 445.0
53.501 428.0
53.5109 431.0
53.5207 385.0
53.5306 384.0
53.5404 384.0
53.5503 377.0
53.5601 359.0
53.57 367.0
53.5798 341.0
53.5897 331.0
53.5995 346.0
53.6094 323.0
53.6192 304.0
53.6291 376.0
53.6389 299.0
53.6488 295.0
53.6586 327.0
53.6684 287.0
53.6783 303.0
53.6881 339.0
53.698 292.0
53.7078 290.0
53.7177 261.0
53.7275 288.0
53.7374 285.0
53.7472 303.0
53.7571 275.0
53.7669 303.0
53.7768 224.0
53.7866 270.0
53.7965 272.0
53.8063 231.0
53.8162 225.0
53.826 259.0
53.8359 256.0
53.8457 259.0
53.8556 229.0
53.8654 265.0
53.8753 217.0
53.8851 232.0
53.8949 231.0
53.9048 236.0
53.9146 223.0
53.9245 215.0
53.9343 199.0
53.9442 231.0
53.954 218.0
53.9639 198.0
53.9737 209.0
53.9836 218.0
53.9934 220.0
54.0033 211.0
54.0131 202.0
54.023 196.0
54.0328 186.0
54.0427 217.0
54.0525 196.0
54.0624 180.0
54.0722 189.0
54.0821 187.0
54.0919 193.0
54.1017 172.0
54.1116 207.0
54.1214 170.0
54.1313 199.0
54.1411 220.0
54.151 205.0
54.1608 186.0
54.1707 191.0
54.1805 163.0
54.1904 160.0
54.2002 200.0
54.2101 173.0
54.2199 180.0
54.2298 184.0
54.2396 169.0
54.2495 196.0
54.2593 190.0
54.2692 177.0
54.279 196.0
54.2889 176.0
54.2987 162.0
54.3085 154.0
54.3184 174.0
54.3282 178.0
54.3381 166.0
54.3479 166.0
54.3578 167.0
54.3676 173.0
54.3775 171.0
54.3873 152.0
54.3972 153.0
54.407 156.0
54.4169 176.0
54.4267 164.0
54.4366 170.0
54.4464 152.0
54.4563 176.0
54.4661 186.0
54.476 157.0
54.4858 194.0
54.4957 151.0
54.5055 158.0
54.5154 165.0
54.5252 177.0
54.535 158.0
54.5449 183.0
54.5547 142.0
54.5646 176.0
54.5744 165.0
54.5843 148.0
54.5941 159.0
54.604 144.0
54.6138 150.0
54.6237 159.0
54.6335 160.0
54.6434 150.0
54.6532 153.0
54.6631 146.0
54.6729 161.0
54.6828 147.0
54.6926 163.0
54.7025 139.0
54.7123 146.0
54.7222 148.0
54.732 154.0
54.7418 153.0
54.7517 133.0
54.7615 155.0
54.7714 147.0
54.7812 146.0
54.7911 154.0
54.8009 143.0
54.8108 138.0
54.8206 138.0
54.8305 170.0
54.8403 138.0
54.8502 165.0
54.86 146.0
54.8699 148.0
54.8797 176.0
54.8896 132.0
54.8994 138.0
54.9093 146.0
54.9191 141.0
54.929 125.0
54.9388 136.0
54.9487 147.0
54.9585 134.0
54.9683 161.0
54.9782 118.0
54.988 159.0
54.9979 151.0