File: data/w6928r/XRD_Omega/film_r_scan_omega_4deg_step_0.005deg0_C1.xy
23.90020 40.0
23.90520 25.0
23.91020 48.0
23.91520 34.0
23.92020 37.0
23.92520 30.0
23.93020 38.0
23.93520 28.0
23.94020 39.0
23.94520 27.0
23.95020 36.0
23.95520 43.0
23.96020 24.0
23.96520 32.0
23.97020 35.0
23.97520 29.0
23.98020 38.0
23.98520 30.0
23.99020 35.0
23.99520 34.0
24.00020 31.0
24.00520 26.0
24.01020 24.0
24.01520 42.0
24.02020 30.0
24.02520 35.0
24.03020 43.0
24.03520 37.0
24.04020 38.0
24.04520 30.0
24.05020 40.0
24.05520 32.0
24.06020 37.0
24.06520 27.0
24.07020 30.0
24.07520 33.0
24.08020 40.0
24.08520 32.0
24.09020 46.0
24.09520 32.0
24.10020 40.0
24.10520 40.0
24.11020 36.0
24.11520 33.0
24.12020 34.0
24.12520 30.0
24.13020 39.0
24.13520 40.0
24.14020 33.0
24.14520 45.0
24.15020 28.0
24.15520 29.0
24.16020 37.0
24.16520 42.0
24.17020 38.0
24.17520 29.0
24.18020 44.0
24.18520 44.0
24.19020 39.0
24.19520 35.0
24.20020 38.0
24.20520 27.0
24.21020 34.0
24.21520 33.0
24.22020 36.0
24.22520 40.0
24.23020 39.0
24.23520 42.0
24.24020 32.0
24.24520 40.0
24.25020 37.0
24.25520 39.0
24.26020 48.0
24.26520 30.0
24.27020 61.0
24.27520 41.0
24.28020 41.0
24.28520 38.0
24.29020 42.0
24.29520 36.0
24.30020 33.0
24.30520 34.0
24.31020 49.0
24.31520 41.0
24.32020 55.0
24.32520 44.0
24.33020 44.0
24.33520 41.0
24.34020 51.0
24.34520 43.0
24.35020 53.0
24.35520 59.0
24.36020 60.0
24.36520 45.0
24.37020 50.0
24.37520 45.0
24.38020 59.0
24.38520 44.0
24.39020 50.0
24.39520 43.0
24.40020 61.0
24.40520 50.0
24.41020 50.0
24.41520 48.0
24.42020 50.0
24.42520 51.0
24.43020 57.0
24.43520 41.0
24.44020 59.0
24.44520 54.0
24.45020 50.0
24.45520 47.0
24.46020 54.0
24.46520 54.0
24.47020 62.0
24.47520 56.0
24.48020 45.0
24.48520 40.0
24.49020 47.0
24.49520 56.0
24.50020 62.0
24.50520 49.0
24.51020 67.0
24.51520 63.0
24.52020 42.0
24.52520 50.0
24.53020 51.0
24.53520 58.0
24.54020 67.0
24.54520 56.0
24.55020 67.0
24.55520 65.0
24.56020 62.0
24.56520 54.0
24.57020 71.0
24.57520 54.0
24.58020 57.0
24.58520 56.0
24.59020 63.0
24.59520 52.0
24.60020 63.0
24.60520 57.0
24.61020 70.0
24.61520 69.0
24.62020 63.0
24.62520 70.0
24.63020 63.0
24.63520 72.0
24.64020 76.0
24.64520 70.0
24.65020 75.0
24.65520 91.0
24.66020 85.0
24.66520 87.0
24.67020 76.0
24.67520 84.0
24.68020 81.0
24.68520 91.0
24.69020 82.0
24.69520 84.0
24.70020 76.0
24.70520 76.0
24.71020 83.0
24.71520 80.0
24.72020 80.0
24.72520 83.0
24.73020 89.0
24.73520 96.0
24.74020 94.0
24.74520 93.0
24.75020 102.0
24.75520 109.0
24.76020 70.0
24.76520 90.0
24.77020 90.0
24.77520 103.0
24.78020 98.0
24.78520 112.0
24.79020 98.0
24.79520 104.0
24.80020 92.0
24.80520 112.0
24.81020 115.0
24.81520 100.0
24.82020 110.0
24.82520 112.0
24.83020 118.0
24.83520 129.0
24.84020 113.0
24.84520 130.0
24.85020 113.0
24.85520 142.0
24.86020 143.0
24.86520 125.0
24.87020 129.0
24.87520 142.0
24.88020 154.0
24.88520 132.0
24.89020 129.0
24.89520 160.0
24.90020 147.0
24.90520 155.0
24.91020 142.0
24.91520 141.0
24.92020 157.0
24.92520 157.0
24.93020 185.0
24.93520 154.0
24.94020 147.0
24.94520 169.0
24.95020 184.0
24.95520 177.0
24.96020 180.0
24.96520 180.0
24.97020 179.0
24.97520 190.0
24.98020 194.0
24.98520 210.0
24.99020 217.0
24.99520 218.0
25.00020 196.0
25.00520 195.0
25.01020 252.0
25.01520 234.0
25.02020 248.0
25.02520 261.0
25.03020 230.0
25.03520 216.0
25.04020 229.0
25.04520 224.0
25.05020 264.0
25.05520 253.0
25.06020 252.0
25.06520 258.0
25.07020 264.0
25.07520 262.0
25.08020 298.0
25.08520 253.0
25.09020 268.0
25.09520 295.0
25.10020 286.0
25.10520 302.0
25.11020 316.0
25.11520 341.0
25.12020 327.0
25.12520 361.0
25.13020 337.0
25.13520 360.0
25.14020 387.0
25.14520 382.0
25.15020 381.0
25.15520 386.0
25.16020 393.0
25.16520 427.0
25.17020 433.0
25.17520 409.0
25.18020 391.0
25.18520 446.0
25.19020 434.0
25.19520 452.0
25.20020 470.0
25.20520 473.0
25.21020 479.0
25.21520 519.0
25.22020 521.0
25.22520 471.0
25.23020 529.0
25.23520 550.0
25.24020 519.0
25.24520 598.0
25.25020 555.0
25.25520 596.0
25.26020 595.0
25.26520 590.0
25.27020 621.0
25.27520 616.0
25.28020 658.0
25.28520 634.0
25.29020 694.0
25.29520 652.0
25.30020 723.0
25.30520 743.0
25.31020 732.0
25.31520 765.0
25.32020 734.0
25.32520 738.0
25.33020 791.0
25.33520 789.0
25.34020 780.0
25.34520 873.0
25.35020 898.0
25.35520 837.0
25.36020 931.0
25.36520 907.0
25.37020 932.0
25.37520 878.0
25.38020 926.0
25.38520 883.0
25.39020 897.0
25.39520 1029.0
25.40020 1021.0
25.40520 977.0
25.41020 991.0
25.41520 1084.0
25.42020 1009.0
25.42520 1077.0
25.43020 980.0
25.43520 1087.0
25.44020 1117.0
25.44520 1134.0
25.45020 1106.0
25.45520 1184.0
25.46020 1140.0
25.46520 1224.0
25.47020 1204.0
25.47520 1191.0
25.48020 1226.0
25.48520 1237.0
25.49020 1282.0
25.49520 1245.0
25.50020 1300.0
25.50520 1407.0
25.51020 1383.0
25.51520 1426.0
25.52020 1346.0
25.52520 1402.0
25.53020 1390.0
25.53520 1425.0
25.54020 1521.0
25.54520 1460.0
25.55020 1414.0
25.55520 1539.0
25.56020 1599.0
25.56520 1568.0
25.57020 1569.0
25.57520 1591.0
25.58020 1651.0
25.58520 1638.0
25.59020 1621.0
25.59520 1714.0
25.60020 1695.0
25.60520 1767.0
25.61020 1764.0
25.61520 1773.0
25.62020 1801.0
25.62520 1764.0
25.63020 1753.0
25.63520 1847.0
25.64020 1852.0
25.64520 1840.0
25.65020 1971.0
25.65520 1900.0
25.66020 1985.0
25.66520 1987.0
25.67020 1957.0
25.67520 2019.0
25.68020 2107.0
25.68520 2059.0
25.69020 2079.0
25.69520 2052.0
25.70020 2132.0
25.70520 2085.0
25.71020 2239.0
25.71520 2163.0
25.72020 2200.0
25.72520 2182.0
25.73020 2250.0
25.73520 2215.0
25.74020 2197.0
25.74520 2243.0
25.75020 2295.0
25.75520 2259.0
25.76020 2285.0
25.76520 2331.0
25.77020 2334.0
25.77520 2356.0
25.78020 2281.0
25.78520 2314.0
25.79020 2374.0
25.79520 2348.0
25.80020 2306.0
25.80520 2369.0
25.81020 2420.0
25.81520 2460.0
25.82020 2447.0
25.82520 2380.0
25.83020 2385.0
25.83520 2432.0
25.84020 2484.0
25.84520 2443.0
25.85020 2337.0
25.85520 2476.0
25.86020 2340.0
25.86520 2481.0
25.87020 2424.0
25.87520 2433.0
25.88020 2521.0
25.88520 2517.0
25.89020 2448.0
25.89520 2438.0
25.90020 2516.0
25.90520 2472.0
25.91020 2416.0
25.91520 2441.0
25.92020 2482.0
25.92520 2303.0
25.93020 2364.0
25.93520 2419.0
25.94020 2471.0
25.94520 2438.0
25.95020 2363.0
25.95520 2448.0
25.96020 2365.0
25.96520 2438.0
25.97020 2428.0
25.97520 2387.0
25.98020 2339.0
25.98520 2294.0
25.99020 2258.0
25.99520 2276.0
26.00020 2242.0
26.00520 2437.0
26.01020 2323.0
26.01520 2387.0
26.02020 2292.0
26.02520 2297.0
26.03020 2292.0
26.03520 2226.0
26.04020 2223.0
26.04520 2224.0
26.05020 2136.0
26.05520 2213.0
26.06020 2110.0
26.06520 2104.0
26.07020 2019.0
26.07520 2025.0
26.08020 2033.0
26.08520 2166.0
26.09020 2069.0
26.09520 2039.0
26.10020 2012.0
26.10520 1969.0
26.11020 1991.0
26.11520 1939.0
26.12020 1879.0
26.12520 1941.0
26.13020 1959.0
26.13520 1822.0
26.14020 1866.0
26.14520 1824.0
26.15020 1795.0
26.15520 1811.0
26.16020 1831.0
26.16520 1728.0
26.17020 1718.0
26.17520 1749.0
26.18020 1758.0
26.18520 1641.0
26.19020 1644.0
26.19520 1625.0
26.20020 1602.0
26.20520 1551.0
26.21020 1600.0
26.21520 1576.0
26.22020 1553.0
26.22520 1455.0
26.23020 1536.0
26.23520 1472.0
26.24020 1429.0
26.24520 1402.0
26.25020 1324.0
26.25520 1415.0
26.26020 1336.0
26.26520 1369.0
26.27020 1353.0
26.27520 1285.0
26.28020 1453.0
26.28520 1284.0
26.29020 1299.0
26.29520 1201.0
26.30020 1290.0
26.30520 1264.0
26.31020 1188.0
26.31520 1161.0
26.32020 1137.0
26.32520 1163.0
26.33020 1112.0
26.33520 1146.0
26.34020 1105.0
26.34520 1096.0
26.35020 1037.0
26.35520 1001.0
26.36020 1062.0
26.36520 1040.0
26.37020 980.0
26.37520 1058.0
26.38020 951.0
26.38520 915.0
26.39020 983.0
26.39520 934.0
26.40020 883.0
26.40520 922.0
26.41020 875.0
26.41520 920.0
26.42020 908.0
26.42520 798.0
26.43020 895.0
26.43520 865.0
26.44020 799.0
26.44520 815.0
26.45020 838.0
26.45520 806.0
26.46020 809.0
26.46520 785.0
26.47020 751.0
26.47520 696.0
26.48020 717.0
26.48520 697.0
26.49020 715.0
26.49520 709.0
26.50020 733.0
26.50520 678.0
26.51020 667.0
26.51520 625.0
26.52020 677.0
26.52520 617.0
26.53020 598.0
26.53520 587.0
26.54020 642.0
26.54520 628.0
26.55020 636.0
26.55520 571.0
26.56020 571.0
26.56520 504.0
26.57020 559.0
26.57520 524.0
26.58020 505.0
26.58520 527.0
26.59020 520.0
26.59520 461.0
26.60020 485.0
26.60520 501.0
26.61020 509.0
26.61520 500.0
26.62020 467.0
26.62520 500.0
26.63020 488.0
26.63520 443.0
26.64020 450.0
26.64520 422.0
26.65020 414.0
26.65520 400.0
26.66020 409.0
26.66520 404.0
26.67020 404.0
26.67520 386.0
26.68020 394.0
26.68520 424.0
26.69020 352.0
26.69520 396.0
26.70020 374.0
26.70520 344.0
26.71020 365.0
26.71520 337.0
26.72020 354.0
26.72520 355.0
26.73020 366.0
26.73520 315.0
26.74020 360.0
26.74520 308.0
26.75020 294.0
26.75520 337.0
26.76020 295.0
26.76520 304.0
26.77020 282.0
26.77520 299.0
26.78020 273.0
26.78520 287.0
26.79020 268.0
26.79520 240.0
26.80020 252.0
26.80520 259.0
26.81020 271.0
26.81520 227.0
26.82020 224.0
26.82520 258.0
26.83020 245.0
26.83520 226.0
26.84020 209.0
26.84520 243.0
26.85020 223.0
26.85520 216.0
26.86020 221.0
26.86520 213.0
26.87020 245.0
26.87520 209.0
26.88020 181.0
26.88520 180.0
26.89020 210.0
26.89520 206.0
26.90020 181.0
26.90520 201.0
26.91020 161.0
26.91520 175.0
26.92020 174.0
26.92520 179.0
26.93020 193.0
26.93520 172.0
26.94020 164.0
26.94520 172.0
26.95020 169.0
26.95520 167.0
26.96020 157.0
26.96520 171.0
26.97020 161.0
26.97520 161.0
26.98020 167.0
26.98520 165.0
26.99020 157.0
26.99520 153.0
27.00020 146.0
27.00520 144.0
27.01020 157.0
27.01520 145.0
27.02020 147.0
27.02520 149.0
27.03020 123.0
27.03520 129.0
27.04020 123.0
27.04520 134.0
27.05020 138.0
27.05520 127.0
27.06020 115.0
27.06520 141.0
27.07020 112.0
27.07520 153.0
27.08020 113.0
27.08520 117.0
27.09020 116.0
27.09520 114.0
27.10020 116.0
27.10520 101.0
27.11020 117.0
27.11520 104.0
27.12020 94.0
27.12520 102.0
27.13020 106.0
27.13520 97.0
27.14020 114.0
27.14520 78.0
27.15020 95.0
27.15520 87.0
27.16020 93.0
27.16520 102.0
27.17020 92.0
27.17520 94.0
27.18020 79.0
27.18520 84.0
27.19020 83.0
27.19520 85.0
27.20020 95.0
27.20520 80.0
27.21020 94.0
27.21520 83.0
27.22020 88.0
27.22520 72.0
27.23020 62.0
27.23520 103.0
27.24020 73.0
27.24520 89.0
27.25020 83.0
27.25520 63.0
27.26020 70.0
27.26520 80.0
27.27020 77.0
27.27520 64.0
27.28020 55.0
27.28520 73.0
27.29020 66.0
27.29520 66.0
27.30020 69.0
27.30520 79.0
27.31020 73.0
27.31520 74.0
27.32020 71.0
27.32520 77.0
27.33020 81.0
27.33520 64.0
27.34020 69.0
27.34520 65.0
27.35020 77.0
27.35520 64.0
27.36020 60.0
27.36520 52.0
27.37020 61.0
27.37520 58.0
27.38020 58.0
27.38520 58.0
27.39020 59.0
27.39520 67.0
27.40020 57.0
27.40520 60.0
27.41020 63.0
27.41520 51.0
27.42020 57.0
27.42520 42.0
27.43020 52.0
27.43520 44.0
27.44020 42.0
27.44520 57.0
27.45020 47.0
27.45520 51.0
27.46020 55.0
27.46520 47.0
27.47020 53.0
27.47520 43.0
27.48020 55.0
27.48520 51.0
27.49020 52.0
27.49520 76.0
27.50020 41.0
27.50520 45.0
27.51020 43.0
27.51520 49.0
27.52020 48.0
27.52520 50.0
27.53020 43.0
27.53520 47.0
27.54020 40.0
27.54520 42.0
27.55020 57.0
27.55520 45.0
27.56020 52.0
27.56520 35.0
27.57020 38.0
27.57520 57.0
27.58020 46.0
27.58520 50.0
27.59020 44.0
27.59520 47.0
27.60020 44.0
27.60520 38.0
27.61020 44.0
27.61520 49.0
27.62020 38.0
27.62520 33.0
27.63020 46.0
27.63520 61.0
27.64020 37.0
27.64520 31.0
27.65020 43.0
27.65520 40.0
27.66020 35.0
27.66520 33.0
27.67020 38.0
27.67520 27.0
27.68020 33.0
27.68520 35.0
27.69020 46.0
27.69520 31.0
27.70020 41.0
27.70520 31.0
27.71020 39.0
27.71520 37.0
27.72020 43.0
27.72520 35.0
27.73020 34.0
27.73520 33.0
27.74020 32.0
27.74520 37.0
27.75020 35.0
27.75520 37.0
27.76020 24.0
27.76520 33.0
27.77020 29.0
27.77520 23.0
27.78020 29.0
27.78520 36.0
27.79020 33.0
27.79520 27.0
27.80020 27.0
27.80520 34.0
27.81020 42.0
27.81520 32.0
27.82020 39.0
27.82520 35.0
27.83020 37.0
27.83520 32.0
27.84020 44.0
27.84520 38.0
27.85020 34.0
27.85520 27.0
27.86020 31.0