File: data/a-Al2O3/XRD_2ThetaOmega/scan_2th-om_a_Cr2O3_30-40deg_PIXscan_4min.xy
30.0025 46.0
30.0123 52.0
30.0222 48.0
30.032 58.0
30.0419 48.0
30.0517 44.0
30.0615 50.0
30.0714 44.0
30.0812 50.0
30.0911 43.0
30.1009 61.0
30.1108 47.0
30.1206 38.0
30.1305 50.0
30.1403 57.0
30.1502 60.0
30.16 52.0
30.1699 49.0
30.1797 58.0
30.1896 51.0
30.1994 39.0
30.2093 51.0
30.2191 49.0
30.229 54.0
30.2388 52.0
30.2487 59.0
30.2585 52.0
30.2684 64.0
30.2782 59.0
30.288 54.0
30.2979 55.0
30.3077 48.0
30.3176 54.0
30.3274 49.0
30.3373 47.0
30.3471 49.0
30.357 57.0
30.3668 55.0
30.3767 62.0
30.3865 56.0
30.3964 40.0
30.4062 43.0
30.4161 56.0
30.4259 65.0
30.4358 50.0
30.4456 49.0
30.4555 76.0
30.4653 51.0
30.4752 49.0
30.485 47.0
30.4948 54.0
30.5047 47.0
30.5145 44.0
30.5244 71.0
30.5342 53.0
30.5441 47.0
30.5539 62.0
30.5638 52.0
30.5736 65.0
30.5835 75.0
30.5933 70.0
30.6032 65.0
30.613 59.0
30.6229 50.0
30.6327 42.0
30.6426 49.0
30.6524 38.0
30.6623 55.0
30.6721 55.0
30.682 52.0
30.6918 53.0
30.7016 49.0
30.7115 51.0
30.7213 59.0
30.7312 46.0
30.741 61.0
30.7509 50.0
30.7607 57.0
30.7706 52.0
30.7804 64.0
30.7903 52.0
30.8001 58.0
30.81 58.0
30.8198 56.0
30.8297 51.0
30.8395 50.0
30.8494 53.0
30.8592 55.0
30.8691 59.0
30.8789 66.0
30.8888 58.0
30.8986 55.0
30.9085 67.0
30.9183 63.0
30.9281 60.0
30.938 49.0
30.9478 54.0
30.9577 47.0
30.9675 51.0
30.9774 50.0
30.9872 48.0
30.9971 56.0
31.0069 63.0
31.0168 44.0
31.0266 59.0
31.0365 63.0
31.0463 45.0
31.0562 62.0
31.066 66.0
31.0759 39.0
31.0857 52.0
31.0956 53.0
31.1054 60.0
31.1153 49.0
31.1251 57.0
31.1349 46.0
31.1448 45.0
31.1546 60.0
31.1645 55.0
31.1743 57.0
31.1842 42.0
31.194 65.0
31.2039 53.0
31.2137 58.0
31.2236 48.0
31.2334 55.0
31.2433 47.0
31.2531 53.0
31.263 52.0
31.2728 40.0
31.2827 58.0
31.2925 47.0
31.3024 48.0
31.3122 47.0
31.3221 56.0
31.3319 70.0
31.3418 60.0
31.3516 45.0
31.3614 49.0
31.3713 55.0
31.3811 59.0
31.391 69.0
31.4008 47.0
31.4107 49.0
31.4205 60.0
31.4304 55.0
31.4402 66.0
31.4501 34.0
31.4599 45.0
31.4698 55.0
31.4796 52.0
31.4895 40.0
31.4993 60.0
31.5092 60.0
31.519 50.0
31.5289 51.0
31.5387 40.0
31.5486 54.0
31.5584 48.0
31.5682 58.0
31.5781 58.0
31.5879 54.0
31.5978 48.0
31.6076 50.0
31.6175 66.0
31.6273 53.0
31.6372 57.0
31.647 42.0
31.6569 57.0
31.6667 52.0
31.6766 60.0
31.6864 60.0
31.6963 52.0
31.7061 53.0
31.716 45.0
31.7258 56.0
31.7357 61.0
31.7455 71.0
31.7554 39.0
31.7652 58.0
31.7751 66.0
31.7849 59.0
31.7947 59.0
31.8046 52.0
31.8144 48.0
31.8243 58.0
31.8341 61.0
31.844 40.0
31.8538 55.0
31.8637 45.0
31.8735 38.0
31.8834 59.0
31.8932 51.0
31.9031 37.0
31.9129 61.0
31.9228 60.0
31.9326 40.0
31.9425 60.0
31.9523 52.0
31.9622 55.0
31.972 51.0
31.9819 54.0
31.9917 44.0
32.0015 59.0
32.0114 48.0
32.0212 53.0
32.0311 54.0
32.0409 42.0
32.0508 50.0
32.0606 54.0
32.0705 43.0
32.0803 48.0
32.0902 52.0
32.1 53.0
32.1099 51.0
32.1197 31.0
32.1296 42.0
32.1394 48.0
32.1493 47.0
32.1591 55.0
32.169 56.0
32.1788 47.0
32.1887 59.0
32.1985 57.0
32.2083 53.0
32.2182 53.0
32.228 44.0
32.2379 61.0
32.2477 53.0
32.2576 63.0
32.2674 56.0
32.2773 44.0
32.2871 57.0
32.297 65.0
32.3068 51.0
32.3167 58.0
32.3265 50.0
32.3364 62.0
32.3462 43.0
32.3561 52.0
32.3659 70.0
32.3758 61.0
32.3856 80.0
32.3955 53.0
32.4053 52.0
32.4152 68.0
32.425 58.0
32.4348 63.0
32.4447 49.0
32.4545 48.0
32.4644 55.0
32.4742 44.0
32.4841 51.0
32.4939 47.0
32.5038 62.0
32.5136 46.0
32.5235 44.0
32.5333 58.0
32.5432 46.0
32.553 56.0
32.5629 63.0
32.5727 58.0
32.5826 53.0
32.5924 59.0
32.6023 38.0
32.6121 54.0
32.622 61.0
32.6318 71.0
32.6416 55.0
32.6515 47.0
32.6613 54.0
32.6712 46.0
32.681 58.0
32.6909 55.0
32.7007 57.0
32.7106 62.0
32.7204 47.0
32.7303 65.0
32.7401 54.0
32.75 58.0
32.7598 54.0
32.7697 52.0
32.7795 55.0
32.7894 48.0
32.7992 54.0
32.8091 45.0
32.8189 49.0
32.8288 45.0
32.8386 50.0
32.8485 57.0
32.8583 55.0
32.8681 45.0
32.878 46.0
32.8878 47.0
32.8977 46.0
32.9075 45.0
32.9174 52.0
32.9272 59.0
32.9371 60.0
32.9469 53.0
32.9568 60.0
32.9666 52.0
32.9765 51.0
32.9863 64.0
32.9962 42.0
33.006 60.0
33.0159 56.0
33.0257 49.0
33.0356 51.0
33.0454 52.0
33.0553 45.0
33.0651 66.0
33.0749 61.0
33.0848 54.0
33.0946 51.0
33.1045 38.0
33.1143 50.0
33.1242 52.0
33.134 49.0
33.1439 47.0
33.1537 46.0
33.1636 54.0
33.1734 61.0
33.1833 48.0
33.1931 48.0
33.203 60.0
33.2128 54.0
33.2227 57.0
33.2325 53.0
33.2424 54.0
33.2522 56.0
33.2621 43.0
33.2719 42.0
33.2818 61.0
33.2916 58.0
33.3014 55.0
33.3113 42.0
33.3211 56.0
33.331 38.0
33.3408 56.0
33.3507 59.0
33.3605 63.0
33.3704 58.0
33.3802 63.0
33.3901 51.0
33.3999 38.0
33.4098 53.0
33.4196 55.0
33.4295 56.0
33.4393 42.0
33.4492 48.0
33.459 59.0
33.4689 67.0
33.4787 37.0
33.4886 66.0
33.4984 70.0
33.5082 41.0
33.5181 48.0
33.5279 55.0
33.5378 58.0
33.5476 43.0
33.5575 59.0
33.5673 60.0
33.5772 59.0
33.587 48.0
33.5969 51.0
33.6067 47.0
33.6166 46.0
33.6264 45.0
33.6363 56.0
33.6461 48.0
33.656 60.0
33.6658 54.0
33.6757 50.0
33.6855 54.0
33.6954 62.0
33.7052 68.0
33.715 48.0
33.7249 58.0
33.7347 63.0
33.7446 51.0
33.7544 56.0
33.7643 59.0
33.7741 54.0
33.784 64.0
33.7938 70.0
33.8037 56.0
33.8135 65.0
33.8234 52.0
33.8332 56.0
33.8431 55.0
33.8529 68.0
33.8628 65.0
33.8726 75.0
33.8825 68.0
33.8923 73.0
33.9022 62.0
33.912 86.0
33.9219 133.0
33.9317 161.0
33.9415 371.0
33.9514 644.0
33.9612 981.0
33.9711 920.0
33.9809 776.0
33.9908 496.0
34.0006 308.0
34.0105 216.0
34.0203 169.0
34.0302 121.0
34.04 114.0
34.0499 101.0
34.0597 77.0
34.0696 77.0
34.0794 72.0
34.0893 73.0
34.0991 84.0
34.109 77.0
34.1188 53.0
34.1287 60.0
34.1385 63.0
34.1483 55.0
34.1582 66.0
34.168 68.0
34.1779 62.0
34.1877 64.0
34.1976 59.0
34.2074 64.0
34.2173 71.0
34.2271 57.0
34.237 52.0
34.2468 46.0
34.2567 75.0
34.2665 64.0
34.2764 63.0
34.2862 81.0
34.2961 64.0
34.3059 70.0
34.3158 57.0
34.3256 61.0
34.3355 59.0
34.3453 52.0
34.3552 69.0
34.365 73.0
34.3748 74.0
34.3847 67.0
34.3945 71.0
34.4044 56.0
34.4142 65.0
34.4241 55.0
34.4339 66.0
34.4438 44.0
34.4536 65.0
34.4635 46.0
34.4733 71.0
34.4832 66.0
34.493 59.0
34.5029 58.0
34.5127 58.0
34.5226 62.0
34.5324 74.0
34.5423 54.0
34.5521 53.0
34.562 73.0
34.5718 67.0
34.5816 51.0
34.5915 75.0
34.6013 52.0
34.6112 74.0
34.621 55.0
34.6309 56.0
34.6407 65.0
34.6506 52.0
34.6604 67.0
34.6703 57.0
34.6801 53.0
34.69 54.0
34.6998 74.0
34.7097 53.0
34.7195 60.0
34.7294 53.0
34.7392 53.0
34.7491 56.0
34.7589 56.0
34.7688 55.0
34.7786 62.0
34.7884 55.0
34.7983 48.0
34.8081 57.0
34.818 57.0
34.8278 68.0
34.8377 70.0
34.8475 68.0
34.8574 61.0
34.8672 60.0
34.8771 75.0
34.8869 65.0
34.8968 64.0
34.9066 56.0
34.9165 64.0
34.9263 59.0
34.9362 50.0
34.946 58.0
34.9559 57.0
34.9657 64.0
34.9756 69.0
34.9854 67.0
34.9953 67.0
35.0051 66.0
35.0149 62.0
35.0248 66.0
35.0346 63.0
35.0445 54.0
35.0543 75.0
35.0642 59.0
35.074 86.0
35.0839 61.0
35.0937 70.0
35.1036 65.0
35.1134 68.0
35.1233 56.0
35.1331 62.0
35.143 53.0
35.1528 52.0
35.1627 63.0
35.1725 58.0
35.1824 64.0
35.1922 56.0
35.2021 62.0
35.2119 63.0
35.2217 71.0
35.2316 71.0
35.2414 78.0
35.2513 57.0
35.2611 57.0
35.271 52.0
35.2808 66.0
35.2907 65.0
35.3005 74.0
35.3104 66.0
35.3202 73.0
35.3301 47.0
35.3399 53.0
35.3498 55.0
35.3596 54.0
35.3695 73.0
35.3793 63.0
35.3892 70.0
35.399 57.0
35.4089 49.0
35.4187 60.0
35.4286 49.0
35.4384 59.0
35.4482 67.0
35.4581 66.0
35.4679 75.0
35.4778 63.0
35.4876 71.0
35.4975 64.0
35.5073 59.0
35.5172 58.0
35.527 63.0
35.5369 71.0
35.5467 74.0
35.5566 60.0
35.5664 53.0
35.5763 76.0
35.5861 71.0
35.596 63.0
35.6058 69.0
35.6157 51.0
35.6255 62.0
35.6354 61.0
35.6452 66.0
35.655 51.0
35.6649 66.0
35.6747 59.0
35.6846 54.0
35.6944 59.0
35.7043 52.0
35.7141 60.0
35.724 47.0
35.7338 62.0
35.7437 77.0
35.7535 63.0
35.7634 57.0
35.7732 51.0
35.7831 65.0
35.7929 61.0
35.8028 70.0
35.8126 66.0
35.8225 64.0
35.8323 59.0
35.8422 77.0
35.852 62.0
35.8619 63.0
35.8717 68.0
35.8815 62.0
35.8914 71.0
35.9012 71.0
35.9111 93.0
35.9209 70.0
35.9308 66.0
35.9406 72.0
35.9505 54.0
35.9603 69.0
35.9702 68.0
35.98 51.0
35.9899 62.0
35.9997 70.0
36.0096 72.0
36.0194 75.0
36.0293 72.0
36.0391 73.0
36.049 68.0
36.0588 71.0
36.0687 86.0
36.0785 93.0
36.0883 108.0
36.0982 97.0
36.108 101.0
36.1179 88.0
36.1277 105.0
36.1376 77.0
36.1474 77.0
36.1573 83.0
36.1671 68.0
36.177 76.0
36.1868 79.0
36.1967 75.0
36.2065 61.0
36.2164 81.0
36.2262 70.0
36.2361 74.0
36.2459 71.0
36.2558 63.0
36.2656 89.0
36.2755 89.0
36.2853 87.0
36.2951 76.0
36.305 62.0
36.3148 80.0
36.3247 73.0
36.3345 81.0
36.3444 70.0
36.3542 82.0
36.3641 93.0
36.3739 80.0
36.3838 96.0
36.3936 108.0
36.4035 88.0
36.4133 100.0
36.4232 92.0
36.433 88.0
36.4429 84.0
36.4527 98.0
36.4626 82.0
36.4724 69.0
36.4823 73.0
36.4921 78.0
36.502 93.0
36.5118 98.0
36.5216 80.0
36.5315 89.0
36.5413 100.0
36.5512 112.0
36.561 114.0
36.5709 104.0
36.5807 99.0
36.5906 102.0
36.6004 110.0
36.6103 112.0
36.6201 108.0
36.63 86.0
36.6398 101.0
36.6497 122.0
36.6595 122.0
36.6694 113.0
36.6792 121.0
36.6891 116.0
36.6989 133.0
36.7088 113.0
36.7186 113.0
36.7284 140.0
36.7383 103.0
36.7481 123.0
36.758 145.0
36.7678 155.0
36.7777 125.0
36.7875 128.0
36.7974 154.0
36.8072 169.0
36.8171 125.0
36.8269 132.0
36.8368 154.0
36.8466 137.0
36.8565 163.0
36.8663 158.0
36.8762 150.0
36.886 173.0
36.8959 154.0
36.9057 179.0
36.9156 154.0
36.9254 162.0
36.9353 193.0
36.9451 183.0
36.9549 192.0
36.9648 205.0
36.9746 170.0
36.9845 163.0
36.9943 194.0
37.0042 191.0
37.014 207.0
37.0239 188.0
37.0337 206.0
37.0436 255.0
37.0534 263.0
37.0633 269.0
37.0731 212.0
37.083 301.0
37.0928 260.0
37.1027 299.0
37.1125 280.0
37.1224 307.0
37.1322 301.0
37.1421 292.0
37.1519 310.0
37.1617 310.0
37.1716 318.0
37.1814 320.0
37.1913 309.0
37.2011 322.0
37.211 313.0
37.2208 350.0
37.2307 381.0
37.2405 351.0
37.2504 368.0
37.2602 375.0
37.2701 379.0
37.2799 389.0
37.2898 383.0
37.2996 420.0
37.3095 418.0
37.3193 459.0
37.3292 467.0
37.339 495.0
37.3489 526.0
37.3587 493.0
37.3686 512.0
37.3784 521.0
37.3882 562.0
37.3981 566.0
37.4079 609.0
37.4178 657.0
37.4276 686.0
37.4375 633.0
37.4473 689.0
37.4572 768.0
37.467 785.0
37.4769 857.0
37.4867 828.0
37.4966 1017.0
37.5064 1155.0
37.5163 1441.0
37.5261 1741.0
37.536 2040.0
37.5458 2382.0
37.5557 2654.0
37.5655 2737.0
37.5754 2708.0
37.5852 2668.0
37.595 2527.0
37.6049 2572.0
37.6147 2692.0
37.6246 3075.0
37.6344 3648.0
37.6443 4408.0
37.6541 5728.0
37.664 7783.0
37.6738 11200.0
37.6837 18398.0
37.6935 35273.0
37.7034 93492.0
37.7132 222123.0
37.7231 279739.0
37.7329 245684.0
37.7428 128570.0
37.7526 51481.0
37.7625 24975.0
37.7723 17136.0
37.7822 17174.0
37.792 25702.0
37.8018 57691.0
37.8117 114502.0
37.8215 137997.0
37.8314 115946.0
37.8412 62386.0
37.8511 26160.0
37.8609 12987.0
37.8708 7905.0
37.8806 5509.0
37.8905 4298.0
37.9003 3436.0
37.9102 2820.0
37.92 2514.0
37.9299 2169.0
37.9397 1833.0
37.9496 1723.0
37.9594 1550.0
37.9693 1404.0
37.9791 1322.0
37.989 1281.0
37.9988 1076.0
38.0087 1025.0
38.0185 953.0
38.0283 919.0
38.0382 842.0
38.048 813.0
38.0579 779.0
38.0677 737.0
38.0776 774.0
38.0874 666.0
38.0973 673.0
38.1071 664.0
38.117 624.0
38.1268 551.0
38.1367 607.0
38.1465 517.0
38.1564 529.0
38.1662 502.0
38.1761 471.0
38.1859 455.0
38.1958 457.0
38.2056 445.0
38.2155 434.0
38.2253 394.0
38.2351 344.0
38.245 361.0
38.2548 328.0
38.2647 359.0
38.2745 344.0
38.2844 293.0
38.2942 302.0
38.3041 317.0
38.3139 257.0
38.3238 281.0
38.3336 210.0
38.3435 287.0
38.3533 271.0
38.3632 273.0
38.373 212.0
38.3829 199.0
38.3927 196.0
38.4026 170.0
38.4124 172.0
38.4223 170.0
38.4321 178.0
38.442 174.0
38.4518 161.0
38.4616 169.0
38.4715 176.0
38.4813 153.0
38.4912 149.0
38.501 148.0
38.5109 134.0
38.5207 149.0
38.5306 144.0
38.5404 165.0
38.5503 157.0
38.5601 134.0
38.57 141.0
38.5798 120.0
38.5897 134.0
38.5995 145.0
38.6094 131.0
38.6192 130.0
38.6291 126.0
38.6389 111.0
38.6488 134.0
38.6586 111.0
38.6684 121.0
38.6783 109.0
38.6881 117.0
38.698 108.0
38.7078 110.0
38.7177 112.0
38.7275 115.0
38.7374 117.0
38.7472 126.0
38.7571 101.0
38.7669 127.0
38.7768 81.0
38.7866 106.0
38.7965 93.0
38.8063 117.0
38.8162 85.0
38.826 103.0
38.8359 109.0
38.8457 92.0
38.8556 89.0
38.8654 98.0
38.8753 83.0
38.8851 95.0
38.8949 84.0
38.9048 82.0
38.9146 88.0
38.9245 82.0
38.9343 91.0
38.9442 80.0
38.954 89.0
38.9639 74.0
38.9737 76.0
38.9836 82.0
38.9934 85.0
39.0033 96.0
39.0131 87.0
39.023 96.0
39.0328 77.0
39.0427 90.0
39.0525 86.0
39.0624 84.0
39.0722 104.0
39.0821 79.0
39.0919 81.0
39.1017 76.0
39.1116 79.0
39.1214 81.0
39.1313 76.0
39.1411 82.0
39.151 77.0
39.1608 73.0
39.1707 89.0
39.1805 66.0
39.1904 85.0
39.2002 67.0
39.2101 81.0
39.2199 74.0
39.2298 84.0
39.2396 80.0
39.2495 60.0
39.2593 92.0
39.2692 76.0
39.279 71.0
39.2889 67.0
39.2987 78.0
39.3085 69.0
39.3184 63.0
39.3282 74.0
39.3381 62.0
39.3479 82.0
39.3578 61.0
39.3676 68.0
39.3775 71.0
39.3873 66.0
39.3972 58.0
39.407 71.0
39.4169 67.0
39.4267 69.0
39.4366 77.0
39.4464 66.0
39.4563 69.0
39.4661 79.0
39.476 50.0
39.4858 76.0
39.4957 77.0
39.5055 69.0
39.5154 67.0
39.5252 73.0
39.535 58.0
39.5449 70.0
39.5547 67.0
39.5646 63.0
39.5744 70.0
39.5843 77.0
39.5941 78.0
39.604 72.0
39.6138 66.0
39.6237 65.0
39.6335 63.0
39.6434 63.0
39.6532 65.0
39.6631 72.0
39.6729 66.0
39.6828 53.0
39.6926 68.0
39.7025 66.0
39.7123 55.0
39.7222 63.0
39.732 75.0
39.7418 69.0
39.7517 68.0
39.7615 63.0
39.7714 69.0
39.7812 65.0
39.7911 51.0
39.8009 72.0
39.8108 70.0
39.8206 67.0
39.8305 66.0
39.8403 65.0
39.8502 61.0
39.86 64.0
39.8699 67.0
39.8797 69.0
39.8896 63.0
39.8994 68.0
39.9093 73.0
39.9191 62.0
39.929 63.0
39.9388 67.0
39.9487 61.0
39.9585 69.0
39.9683 70.0
39.9782 75.0
39.988 60.0
39.9979 68.0