File: data/w6928m/XRD_Omega/film_m_can_omega_4deg_step_0.005deg0_C1.xy
29.68460 31.0
29.68960 56.0
29.69460 47.0
29.69960 39.0
29.70460 43.0
29.70960 35.0
29.71460 36.0
29.71960 41.0
29.72460 41.0
29.72960 36.0
29.73460 36.0
29.73960 43.0
29.74460 36.0
29.74960 43.0
29.75460 47.0
29.75960 40.0
29.76460 29.0
29.76960 39.0
29.77460 32.0
29.77960 48.0
29.78460 41.0
29.78960 37.0
29.79460 25.0
29.79960 41.0
29.80460 38.0
29.80960 34.0
29.81460 34.0
29.81960 35.0
29.82460 38.0
29.82960 36.0
29.83460 38.0
29.83960 49.0
29.84460 38.0
29.84960 40.0
29.85460 40.0
29.85960 40.0
29.86460 44.0
29.86960 47.0
29.87460 46.0
29.87960 42.0
29.88460 45.0
29.88960 45.0
29.89460 37.0
29.89960 47.0
29.90460 53.0
29.90960 41.0
29.91460 36.0
29.91960 48.0
29.92460 38.0
29.92960 44.0
29.93460 49.0
29.93960 50.0
29.94460 50.0
29.94960 36.0
29.95460 39.0
29.95960 46.0
29.96460 32.0
29.96960 48.0
29.97460 35.0
29.97960 52.0
29.98460 40.0
29.98960 45.0
29.99460 39.0
29.99960 41.0
30.00460 32.0
30.00960 48.0
30.01460 51.0
30.01960 46.0
30.02460 39.0
30.02960 46.0
30.03460 45.0
30.03960 43.0
30.04460 46.0
30.04960 46.0
30.05460 41.0
30.05960 37.0
30.06460 46.0
30.06960 40.0
30.07460 38.0
30.07960 45.0
30.08460 47.0
30.08960 48.0
30.09460 44.0
30.09960 53.0
30.10460 38.0
30.10960 39.0
30.11460 35.0
30.11960 45.0
30.12460 49.0
30.12960 40.0
30.13460 43.0
30.13960 31.0
30.14460 49.0
30.14960 55.0
30.15460 40.0
30.15960 33.0
30.16460 51.0
30.16960 44.0
30.17460 44.0
30.17960 42.0
30.18460 39.0
30.18960 52.0
30.19460 33.0
30.19960 45.0
30.20460 48.0
30.20960 48.0
30.21460 47.0
30.21960 45.0
30.22460 43.0
30.22960 41.0
30.23460 51.0
30.23960 57.0
30.24460 53.0
30.24960 37.0
30.25460 47.0
30.25960 56.0
30.26460 56.0
30.26960 43.0
30.27460 52.0
30.27960 38.0
30.28460 56.0
30.28960 46.0
30.29460 37.0
30.29960 47.0
30.30460 46.0
30.30960 48.0
30.31460 54.0
30.31960 46.0
30.32460 57.0
30.32960 41.0
30.33460 44.0
30.33960 40.0
30.34460 50.0
30.34960 48.0
30.35460 54.0
30.35960 45.0
30.36460 62.0
30.36960 53.0
30.37460 51.0
30.37960 67.0
30.38460 67.0
30.38960 57.0
30.39460 41.0
30.39960 59.0
30.40460 58.0
30.40960 62.0
30.41460 60.0
30.41960 56.0
30.42460 41.0
30.42960 51.0
30.43460 54.0
30.43960 57.0
30.44460 45.0
30.44960 69.0
30.45460 52.0
30.45960 79.0
30.46460 67.0
30.46960 68.0
30.47460 79.0
30.47960 72.0
30.48460 68.0
30.48960 51.0
30.49460 58.0
30.49960 77.0
30.50460 52.0
30.50960 58.0
30.51460 66.0
30.51960 66.0
30.52460 59.0
30.52960 71.0
30.53460 65.0
30.53960 84.0
30.54460 60.0
30.54960 66.0
30.55460 78.0
30.55960 60.0
30.56460 72.0
30.56960 73.0
30.57460 69.0
30.57960 83.0
30.58460 82.0
30.58960 70.0
30.59460 62.0
30.59960 78.0
30.60460 92.0
30.60960 77.0
30.61460 65.0
30.61960 83.0
30.62460 74.0
30.62960 85.0
30.63460 80.0
30.63960 62.0
30.64460 79.0
30.64960 84.0
30.65460 72.0
30.65960 86.0
30.66460 92.0
30.66960 74.0
30.67460 84.0
30.67960 65.0
30.68460 83.0
30.68960 82.0
30.69460 86.0
30.69960 70.0
30.70460 76.0
30.70960 84.0
30.71460 77.0
30.71960 83.0
30.72460 73.0
30.72960 105.0
30.73460 89.0
30.73960 85.0
30.74460 105.0
30.74960 101.0
30.75460 98.0
30.75960 101.0
30.76460 113.0
30.76960 89.0
30.77460 102.0
30.77960 89.0
30.78460 106.0
30.78960 112.0
30.79460 109.0
30.79960 116.0
30.80460 108.0
30.80960 110.0
30.81460 111.0
30.81960 121.0
30.82460 126.0
30.82960 136.0
30.83460 130.0
30.83960 135.0
30.84460 137.0
30.84960 143.0
30.85460 126.0
30.85960 137.0
30.86460 127.0
30.86960 149.0
30.87460 155.0
30.87960 139.0
30.88460 132.0
30.88960 151.0
30.89460 158.0
30.89960 170.0
30.90460 130.0
30.90960 147.0
30.91460 154.0
30.91960 160.0
30.92460 148.0
30.92960 181.0
30.93460 170.0
30.93960 166.0
30.94460 176.0
30.94960 169.0
30.95460 162.0
30.95960 160.0
30.96460 192.0
30.96960 194.0
30.97460 187.0
30.97960 198.0
30.98460 213.0
30.98960 213.0
30.99460 210.0
30.99960 254.0
31.00460 232.0
31.00960 246.0
31.01460 234.0
31.01960 243.0
31.02460 230.0
31.02960 223.0
31.03460 232.0
31.03960 257.0
31.04460 284.0
31.04960 288.0
31.05460 287.0
31.05960 265.0
31.06460 298.0
31.06960 307.0
31.07460 298.0
31.07960 314.0
31.08460 307.0
31.08960 340.0
31.09460 330.0
31.09960 317.0
31.10460 355.0
31.10960 359.0
31.11460 348.0
31.11960 380.0
31.12460 348.0
31.12960 416.0
31.13460 379.0
31.13960 399.0
31.14460 423.0
31.14960 429.0
31.15460 426.0
31.15960 487.0
31.16460 468.0
31.16960 452.0
31.17460 509.0
31.17960 487.0
31.18460 554.0
31.18960 596.0
31.19460 592.0
31.19960 595.0
31.20460 585.0
31.20960 625.0
31.21460 684.0
31.21960 662.0
31.22460 672.0
31.22960 732.0
31.23460 665.0
31.23960 773.0
31.24460 729.0
31.24960 746.0
31.25460 837.0
31.25960 882.0
31.26460 876.0
31.26960 865.0
31.27460 914.0
31.27960 961.0
31.28460 990.0
31.28960 1050.0
31.29460 1024.0
31.29960 1005.0
31.30460 1065.0
31.30960 1162.0
31.31460 1233.0
31.31960 1229.0
31.32460 1303.0
31.32960 1327.0
31.33460 1302.0
31.33960 1423.0
31.34460 1456.0
31.34960 1511.0
31.35460 1548.0
31.35960 1470.0
31.36460 1553.0
31.36960 1722.0
31.37460 1681.0
31.37960 1820.0
31.38460 1846.0
31.38960 1889.0
31.39460 1952.0
31.39960 1974.0
31.40460 2106.0
31.40960 2120.0
31.41460 2208.0
31.41960 2362.0
31.42460 2372.0
31.42960 2449.0
31.43460 2430.0
31.43960 2503.0
31.44460 2623.0
31.44960 2854.0
31.45460 2773.0
31.45960 2875.0
31.46460 2962.0
31.46960 2972.0
31.47460 3088.0
31.47960 3026.0
31.48460 3190.0
31.48960 3285.0
31.49460 3269.0
31.49960 3349.0
31.50460 3424.0
31.50960 3507.0
31.51460 3592.0
31.51960 3695.0
31.52460 3780.0
31.52960 3783.0
31.53460 3808.0
31.53960 3867.0
31.54460 4093.0
31.54960 4069.0
31.55460 4027.0
31.55960 4224.0
31.56460 4229.0
31.56960 4296.0
31.57460 4366.0
31.57960 4357.0
31.58460 4520.0
31.58960 4276.0
31.59460 4511.0
31.59960 4478.0
31.60460 4530.0
31.60960 4490.0
31.61460 4631.0
31.61960 4611.0
31.62460 4775.0
31.62960 4701.0
31.63460 4658.0
31.63960 4760.0
31.64460 4892.0
31.64960 4842.0
31.65460 4757.0
31.65960 4818.0
31.66460 4722.0
31.66960 4805.0
31.67460 4734.0
31.67960 4786.0
31.68460 4750.0
31.68960 4698.0
31.69460 4735.0
31.69960 4746.0
31.70460 4721.0
31.70960 4691.0
31.71460 4838.0
31.71960 4665.0
31.72460 4589.0
31.72960 4579.0
31.73460 4555.0
31.73960 4569.0
31.74460 4444.0
31.74960 4494.0
31.75460 4399.0
31.75960 4351.0
31.76460 4389.0
31.76960 4387.0
31.77460 4292.0
31.77960 4258.0
31.78460 4209.0
31.78960 4158.0
31.79460 4237.0
31.79960 4244.0
31.80460 4067.0
31.80960 4123.0
31.81460 3969.0
31.81960 3981.0
31.82460 3988.0
31.82960 3750.0
31.83460 3887.0
31.83960 3736.0
31.84460 3694.0
31.84960 3735.0
31.85460 3642.0
31.85960 3564.0
31.86460 3457.0
31.86960 3511.0
31.87460 3492.0
31.87960 3368.0
31.88460 3293.0
31.88960 3303.0
31.89460 3165.0
31.89960 3166.0
31.90460 3146.0
31.90960 3034.0
31.91460 2888.0
31.91960 2883.0
31.92460 2869.0
31.92960 2794.0
31.93460 2793.0
31.93960 2682.0
31.94460 2786.0
31.94960 2659.0
31.95460 2497.0
31.95960 2455.0
31.96460 2456.0
31.96960 2442.0
31.97460 2331.0
31.97960 2302.0
31.98460 2347.0
31.98960 2204.0
31.99460 2155.0
31.99960 2116.0
32.00460 2181.0
32.00960 2101.0
32.01460 2031.0
32.01960 2000.0
32.02460 1892.0
32.02960 1827.0
32.03460 1786.0
32.03960 1778.0
32.04460 1745.0
32.04960 1682.0
32.05460 1657.0
32.05960 1573.0
32.06460 1579.0
32.06960 1553.0
32.07460 1487.0
32.07960 1568.0
32.08460 1417.0
32.08960 1394.0
32.09460 1417.0
32.09960 1285.0
32.10460 1306.0
32.10960 1315.0
32.11460 1262.0
32.11960 1209.0
32.12460 1215.0
32.12960 1229.0
32.13460 1161.0
32.13960 1080.0
32.14460 1112.0
32.14960 1127.0
32.15460 1051.0
32.15960 996.0
32.16460 1009.0
32.16960 979.0
32.17460 959.0
32.17960 899.0
32.18460 899.0
32.18960 908.0
32.19460 841.0
32.19960 859.0
32.20460 863.0
32.20960 806.0
32.21460 761.0
32.21960 781.0
32.22460 761.0
32.22960 731.0
32.23460 725.0
32.23960 757.0
32.24460 721.0
32.24960 686.0
32.25460 651.0
32.25960 648.0
32.26460 604.0
32.26960 656.0
32.27460 613.0
32.27960 606.0
32.28460 611.0
32.28960 567.0
32.29460 627.0
32.29960 602.0
32.30460 602.0
32.30960 526.0
32.31460 536.0
32.31960 542.0
32.32460 528.0
32.32960 479.0
32.33460 492.0
32.33960 468.0
32.34460 464.0
32.34960 455.0
32.35460 449.0
32.35960 394.0
32.36460 401.0
32.36960 403.0
32.37460 415.0
32.37960 382.0
32.38460 333.0
32.38960 325.0
32.39460 366.0
32.39960 313.0
32.40460 324.0
32.40960 342.0
32.41460 323.0
32.41960 288.0
32.42460 319.0
32.42960 300.0
32.43460 293.0
32.43960 281.0
32.44460 278.0
32.44960 257.0
32.45460 263.0
32.45960 251.0
32.46460 246.0
32.46960 262.0
32.47460 246.0
32.47960 246.0
32.48460 210.0
32.48960 199.0
32.49460 226.0
32.49960 239.0
32.50460 191.0
32.50960 206.0
32.51460 200.0
32.51960 179.0
32.52460 194.0
32.52960 179.0
32.53460 187.0
32.53960 183.0
32.54460 193.0
32.54960 182.0
32.55460 167.0
32.55960 187.0
32.56460 162.0
32.56960 164.0
32.57460 166.0
32.57960 138.0
32.58460 161.0
32.58960 143.0
32.59460 141.0
32.59960 173.0
32.60460 166.0
32.60960 175.0
32.61460 148.0
32.61960 177.0
32.62460 168.0
32.62960 162.0
32.63460 140.0
32.63960 125.0
32.64460 145.0
32.64960 143.0
32.65460 142.0
32.65960 134.0
32.66460 115.0
32.66960 131.0
32.67460 102.0
32.67960 107.0
32.68460 112.0
32.68960 117.0
32.69460 125.0
32.69960 103.0
32.70460 99.0
32.70960 129.0
32.71460 120.0
32.71960 120.0
32.72460 116.0
32.72960 94.0
32.73460 101.0
32.73960 108.0
32.74460 139.0
32.74960 103.0
32.75460 87.0
32.75960 94.0
32.76460 92.0
32.76960 96.0
32.77460 102.0
32.77960 92.0
32.78460 89.0
32.78960 106.0
32.79460 75.0
32.79960 94.0
32.80460 89.0
32.80960 84.0
32.81460 98.0
32.81960 93.0
32.82460 79.0
32.82960 93.0
32.83460 78.0
32.83960 86.0
32.84460 76.0
32.84960 87.0
32.85460 93.0
32.85960 86.0
32.86460 87.0
32.86960 78.0
32.87460 66.0
32.87960 70.0
32.88460 94.0
32.88960 78.0
32.89460 76.0
32.89960 83.0
32.90460 86.0
32.90960 70.0
32.91460 69.0
32.91960 70.0
32.92460 68.0
32.92960 73.0
32.93460 70.0
32.93960 71.0
32.94460 79.0
32.94960 64.0
32.95460 76.0
32.95960 81.0
32.96460 72.0
32.96960 48.0
32.97460 56.0
32.97960 59.0
32.98460 65.0
32.98960 77.0
32.99460 71.0
32.99960 62.0
33.00460 68.0
33.00960 64.0
33.01460 80.0
33.01960 59.0
33.02460 64.0
33.02960 58.0
33.03460 50.0
33.03960 48.0
33.04460 68.0
33.04960 46.0
33.05460 39.0
33.05960 67.0
33.06460 51.0
33.06960 40.0
33.07460 64.0
33.07960 50.0
33.08460 71.0
33.08960 45.0
33.09460 51.0
33.09960 77.0
33.10460 68.0
33.10960 57.0
33.11460 51.0
33.11960 59.0
33.12460 60.0
33.12960 57.0
33.13460 54.0
33.13960 55.0
33.14460 51.0
33.14960 59.0
33.15460 52.0
33.15960 46.0
33.16460 35.0
33.16960 69.0
33.17460 62.0
33.17960 59.0
33.18460 59.0
33.18960 47.0
33.19460 50.0
33.19960 49.0
33.20460 46.0
33.20960 56.0
33.21460 52.0
33.21960 49.0
33.22460 53.0
33.22960 31.0
33.23460 58.0
33.23960 47.0
33.24460 38.0
33.24960 50.0
33.25460 53.0
33.25960 47.0
33.26460 45.0
33.26960 67.0
33.27460 51.0
33.27960 52.0
33.28460 46.0
33.28960 42.0
33.29460 45.0
33.29960 27.0
33.30460 51.0
33.30960 49.0
33.31460 46.0
33.31960 41.0
33.32460 42.0
33.32960 50.0
33.33460 60.0
33.33960 47.0
33.34460 46.0
33.34960 52.0
33.35460 46.0
33.35960 46.0
33.36460 51.0
33.36960 57.0
33.37460 41.0
33.37960 56.0
33.38460 47.0
33.38960 43.0
33.39460 55.0
33.39960 45.0
33.40460 61.0
33.40960 50.0
33.41460 38.0
33.41960 50.0
33.42460 37.0
33.42960 42.0
33.43460 49.0
33.43960 63.0
33.44460 49.0
33.44960 48.0
33.45460 42.0
33.45960 41.0
33.46460 46.0
33.46960 41.0
33.47460 39.0
33.47960 41.0
33.48460 45.0
33.48960 41.0
33.49460 40.0
33.49960 43.0
33.50460 48.0
33.50960 49.0
33.51460 37.0
33.51960 45.0
33.52460 43.0
33.52960 38.0
33.53460 52.0
33.53960 46.0
33.54460 44.0
33.54960 36.0
33.55460 33.0
33.55960 38.0
33.56460 42.0
33.56960 59.0
33.57460 41.0
33.57960 41.0
33.58460 39.0
33.58960 49.0
33.59460 49.0
33.59960 41.0
33.60460 43.0
33.60960 43.0
33.61460 40.0
33.61960 44.0
33.62460 49.0
33.62960 37.0
33.63460 29.0
33.63960 35.0
33.64460 37.0