File: data/W6906m/XRD_Omega/scan_omega_4deg_step_0.005deg0_C7_2.xy
30.58020 63.0
30.58520 79.0
30.59020 81.0
30.59520 81.0
30.60020 71.0
30.60520 78.0
30.61020 70.0
30.61520 66.0
30.62020 71.0
30.62520 76.0
30.63020 68.0
30.63520 77.0
30.64020 75.0
30.64520 77.0
30.65020 71.0
30.65520 69.0
30.66020 82.0
30.66520 75.0
30.67020 68.0
30.67520 81.0
30.68020 79.0
30.68520 92.0
30.69020 63.0
30.69520 88.0
30.70020 92.0
30.70520 81.0
30.71020 101.0
30.71520 75.0
30.72020 77.0
30.72520 83.0
30.73020 68.0
30.73520 84.0
30.74020 87.0
30.74520 76.0
30.75020 80.0
30.75520 83.0
30.76020 72.0
30.76520 66.0
30.77020 85.0
30.77520 80.0
30.78020 88.0
30.78520 78.0
30.79020 88.0
30.79520 97.0
30.80020 75.0
30.80520 88.0
30.81020 74.0
30.81520 75.0
30.82020 71.0
30.82520 74.0
30.83020 65.0
30.83520 80.0
30.84020 82.0
30.84520 74.0
30.85020 77.0
30.85520 82.0
30.86020 77.0
30.86520 65.0
30.87020 61.0
30.87520 86.0
30.88020 80.0
30.88520 96.0
30.89020 87.0
30.89520 77.0
30.90020 79.0
30.90520 69.0
30.91020 85.0
30.91520 74.0
30.92020 75.0
30.92520 87.0
30.93020 90.0
30.93520 87.0
30.94020 73.0
30.94520 80.0
30.95020 83.0
30.95520 84.0
30.96020 76.0
30.96520 81.0
30.97020 96.0
30.97520 85.0
30.98020 72.0
30.98520 71.0
30.99020 92.0
30.99520 77.0
31.00020 88.0
31.00520 97.0
31.01020 74.0
31.01520 77.0
31.02020 85.0
31.02520 77.0
31.03020 92.0
31.03520 91.0
31.04020 100.0
31.04520 95.0
31.05020 87.0
31.05520 94.0
31.06020 77.0
31.06520 93.0
31.07020 82.0
31.07520 80.0
31.08020 68.0
31.08520 87.0
31.09020 95.0
31.09520 79.0
31.10020 79.0
31.10520 82.0
31.11020 81.0
31.11520 92.0
31.12020 96.0
31.12520 75.0
31.13020 63.0
31.13520 88.0
31.14020 82.0
31.14520 74.0
31.15020 76.0
31.15520 68.0
31.16020 76.0
31.16520 93.0
31.17020 117.0
31.17520 97.0
31.18020 92.0
31.18520 73.0
31.19020 87.0
31.19520 68.0
31.20020 82.0
31.20520 82.0
31.21020 91.0
31.21520 77.0
31.22020 81.0
31.22520 83.0
31.23020 89.0
31.23520 88.0
31.24020 76.0
31.24520 87.0
31.25020 85.0
31.25520 78.0
31.26020 77.0
31.26520 78.0
31.27020 95.0
31.27520 83.0
31.28020 78.0
31.28520 96.0
31.29020 90.0
31.29520 93.0
31.30020 75.0
31.30520 106.0
31.31020 86.0
31.31520 75.0
31.32020 90.0
31.32520 81.0
31.33020 66.0
31.33520 89.0
31.34020 102.0
31.34520 89.0
31.35020 91.0
31.35520 95.0
31.36020 103.0
31.36520 88.0
31.37020 81.0
31.37520 101.0
31.38020 96.0
31.38520 86.0
31.39020 102.0
31.39520 100.0
31.40020 107.0
31.40520 92.0
31.41020 99.0
31.41520 93.0
31.42020 85.0
31.42520 95.0
31.43020 88.0
31.43520 113.0
31.44020 119.0
31.44520 82.0
31.45020 86.0
31.45520 99.0
31.46020 107.0
31.46520 121.0
31.47020 107.0
31.47520 104.0
31.48020 119.0
31.48520 95.0
31.49020 108.0
31.49520 98.0
31.50020 96.0
31.50520 84.0
31.51020 101.0
31.51520 93.0
31.52020 90.0
31.52520 97.0
31.53020 89.0
31.53520 102.0
31.54020 101.0
31.54520 95.0
31.55020 105.0
31.55520 98.0
31.56020 103.0
31.56520 96.0
31.57020 102.0
31.57520 118.0
31.58020 105.0
31.58520 104.0
31.59020 99.0
31.59520 109.0
31.60020 92.0
31.60520 120.0
31.61020 112.0
31.61520 107.0
31.62020 97.0
31.62520 107.0
31.63020 104.0
31.63520 124.0
31.64020 98.0
31.64520 124.0
31.65020 104.0
31.65520 110.0
31.66020 124.0
31.66520 107.0
31.67020 104.0
31.67520 115.0
31.68020 127.0
31.68520 121.0
31.69020 123.0
31.69520 138.0
31.70020 111.0
31.70520 122.0
31.71020 135.0
31.71520 130.0
31.72020 110.0
31.72520 136.0
31.73020 148.0
31.73520 113.0
31.74020 124.0
31.74520 120.0
31.75020 130.0
31.75520 142.0
31.76020 129.0
31.76520 124.0
31.77020 129.0
31.77520 134.0
31.78020 142.0
31.78520 138.0
31.79020 124.0
31.79520 146.0
31.80020 133.0
31.80520 131.0
31.81020 133.0
31.81520 126.0
31.82020 145.0
31.82520 126.0
31.83020 137.0
31.83520 167.0
31.84020 136.0
31.84520 147.0
31.85020 145.0
31.85520 147.0
31.86020 144.0
31.86520 154.0
31.87020 148.0
31.87520 139.0
31.88020 146.0
31.88520 141.0
31.89020 172.0
31.89520 159.0
31.90020 150.0
31.90520 150.0
31.91020 169.0
31.91520 168.0
31.92020 161.0
31.92520 172.0
31.93020 186.0
31.93520 182.0
31.94020 187.0
31.94520 165.0
31.95020 167.0
31.95520 176.0
31.96020 171.0
31.96520 183.0
31.97020 153.0
31.97520 199.0
31.98020 203.0
31.98520 188.0
31.99020 176.0
31.99520 188.0
32.00020 173.0
32.00520 173.0
32.01020 191.0
32.01520 193.0
32.02020 173.0
32.02520 182.0
32.03020 196.0
32.03520 208.0
32.04020 208.0
32.04520 205.0
32.05020 201.0
32.05520 213.0
32.06020 204.0
32.06520 226.0
32.07020 232.0
32.07520 227.0
32.08020 221.0
32.08520 216.0
32.09020 216.0
32.09520 247.0
32.10020 227.0
32.10520 243.0
32.11020 220.0
32.11520 246.0
32.12020 257.0
32.12520 221.0
32.13020 254.0
32.13520 253.0
32.14020 206.0
32.14520 249.0
32.15020 271.0
32.15520 243.0
32.16020 272.0
32.16520 276.0
32.17020 246.0
32.17520 250.0
32.18020 296.0
32.18520 263.0
32.19020 260.0
32.19520 263.0
32.20020 249.0
32.20520 273.0
32.21020 291.0
32.21520 298.0
32.22020 270.0
32.22520 306.0
32.23020 265.0
32.23520 310.0
32.24020 298.0
32.24520 321.0
32.25020 297.0
32.25520 312.0
32.26020 298.0
32.26520 292.0
32.27020 305.0
32.27520 296.0
32.28020 297.0
32.28520 312.0
32.29020 324.0
32.29520 311.0
32.30020 302.0
32.30520 304.0
32.31020 309.0
32.31520 320.0
32.32020 328.0
32.32520 335.0
32.33020 326.0
32.33520 351.0
32.34020 350.0
32.34520 352.0
32.35020 350.0
32.35520 302.0
32.36020 357.0
32.36520 342.0
32.37020 345.0
32.37520 371.0
32.38020 399.0
32.38520 385.0
32.39020 418.0
32.39520 353.0
32.40020 357.0
32.40520 384.0
32.41020 372.0
32.41520 397.0
32.42020 409.0
32.42520 375.0
32.43020 407.0
32.43520 413.0
32.44020 412.0
32.44520 447.0
32.45020 403.0
32.45520 435.0
32.46020 459.0
32.46520 459.0
32.47020 423.0
32.47520 449.0
32.48020 463.0
32.48520 472.0
32.49020 466.0
32.49520 466.0
32.50020 483.0
32.50520 468.0
32.51020 451.0
32.51520 466.0
32.52020 448.0
32.52520 444.0
32.53020 436.0
32.53520 456.0
32.54020 449.0
32.54520 436.0
32.55020 451.0
32.55520 487.0
32.56020 469.0
32.56520 484.0
32.57020 464.0
32.57520 470.0
32.58020 433.0
32.58520 421.0
32.59020 470.0
32.59520 484.0
32.60020 479.0
32.60520 433.0
32.61020 457.0
32.61520 444.0
32.62020 469.0
32.62520 480.0
32.63020 488.0
32.63520 422.0
32.64020 475.0
32.64520 457.0
32.65020 417.0
32.65520 451.0
32.66020 470.0
32.66520 487.0
32.67020 427.0
32.67520 403.0
32.68020 423.0
32.68520 455.0
32.69020 413.0
32.69520 405.0
32.70020 414.0
32.70520 410.0
32.71020 422.0
32.71520 370.0
32.72020 373.0
32.72520 406.0
32.73020 408.0
32.73520 406.0
32.74020 425.0
32.74520 416.0
32.75020 372.0
32.75520 374.0
32.76020 410.0
32.76520 381.0
32.77020 401.0
32.77520 350.0
32.78020 364.0
32.78520 378.0
32.79020 364.0
32.79520 391.0
32.80020 383.0
32.80520 356.0
32.81020 397.0
32.81520 382.0
32.82020 351.0
32.82520 347.0
32.83020 408.0
32.83520 403.0
32.84020 364.0
32.84520 386.0
32.85020 341.0
32.85520 345.0
32.86020 324.0
32.86520 396.0
32.87020 352.0
32.87520 359.0
32.88020 354.0
32.88520 328.0
32.89020 338.0
32.89520 340.0
32.90020 322.0
32.90520 309.0
32.91020 304.0
32.91520 333.0
32.92020 323.0
32.92520 337.0
32.93020 329.0
32.93520 321.0
32.94020 310.0
32.94520 277.0
32.95020 304.0
32.95520 291.0
32.96020 328.0
32.96520 273.0
32.97020 309.0
32.97520 279.0
32.98020 320.0
32.98520 296.0
32.99020 287.0
32.99520 246.0
33.00020 285.0
33.00520 291.0
33.01020 276.0
33.01520 282.0
33.02020 276.0
33.02520 292.0
33.03020 283.0
33.03520 289.0
33.04020 239.0
33.04520 270.0
33.05020 258.0
33.05520 271.0
33.06020 230.0
33.06520 261.0
33.07020 243.0
33.07520 235.0
33.08020 245.0
33.08520 242.0
33.09020 257.0
33.09520 270.0
33.10020 253.0
33.10520 258.0
33.11020 241.0
33.11520 246.0
33.12020 205.0
33.12520 231.0
33.13020 218.0
33.13520 239.0
33.14020 223.0
33.14520 192.0
33.15020 200.0
33.15520 225.0
33.16020 223.0
33.16520 192.0
33.17020 203.0
33.17520 207.0
33.18020 177.0
33.18520 214.0
33.19020 208.0
33.19520 192.0
33.20020 177.0
33.20520 200.0
33.21020 215.0
33.21520 181.0
33.22020 176.0
33.22520 161.0
33.23020 188.0
33.23520 190.0
33.24020 189.0
33.24520 171.0
33.25020 173.0
33.25520 191.0
33.26020 164.0
33.26520 189.0
33.27020 153.0
33.27520 130.0
33.28020 159.0
33.28520 171.0
33.29020 145.0
33.29520 170.0
33.30020 120.0
33.30520 144.0
33.31020 143.0
33.31520 147.0
33.32020 163.0
33.32520 155.0
33.33020 146.0
33.33520 146.0
33.34020 131.0
33.34520 133.0
33.35020 122.0
33.35520 127.0
33.36020 129.0
33.36520 140.0
33.37020 138.0
33.37520 137.0
33.38020 139.0
33.38520 124.0
33.39020 127.0
33.39520 139.0
33.40020 132.0
33.40520 129.0
33.41020 126.0
33.41520 127.0
33.42020 114.0
33.42520 134.0
33.43020 115.0
33.43520 116.0
33.44020 119.0
33.44520 121.0
33.45020 114.0
33.45520 125.0
33.46020 110.0
33.46520 114.0
33.47020 107.0
33.47520 114.0
33.48020 120.0
33.48520 107.0
33.49020 96.0
33.49520 143.0
33.50020 122.0
33.50520 118.0
33.51020 114.0
33.51520 111.0
33.52020 113.0
33.52520 96.0
33.53020 118.0
33.53520 104.0
33.54020 99.0
33.54520 113.0
33.55020 106.0
33.55520 98.0
33.56020 102.0
33.56520 113.0
33.57020 105.0
33.57520 87.0
33.58020 101.0
33.58520 109.0
33.59020 103.0
33.59520 92.0
33.60020 102.0
33.60520 91.0
33.61020 105.0
33.61520 115.0
33.62020 113.0
33.62520 87.0
33.63020 105.0
33.63520 94.0
33.64020 100.0
33.64520 108.0
33.65020 113.0
33.65520 88.0
33.66020 98.0
33.66520 101.0
33.67020 91.0
33.67520 82.0
33.68020 92.0
33.68520 91.0
33.69020 103.0
33.69520 95.0
33.70020 85.0
33.70520 90.0
33.71020 105.0
33.71520 89.0
33.72020 109.0
33.72520 78.0
33.73020 91.0
33.73520 82.0
33.74020 81.0
33.74520 87.0
33.75020 94.0
33.75520 74.0
33.76020 83.0
33.76520 81.0
33.77020 80.0
33.77520 65.0
33.78020 85.0
33.78520 92.0
33.79020 68.0
33.79520 84.0
33.80020 86.0
33.80520 99.0
33.81020 81.0
33.81520 90.0
33.82020 81.0
33.82520 79.0
33.83020 67.0
33.83520 90.0
33.84020 95.0
33.84520 75.0
33.85020 86.0
33.85520 97.0
33.86020 83.0
33.86520 86.0
33.87020 85.0
33.87520 84.0
33.88020 86.0
33.88520 69.0
33.89020 77.0
33.89520 79.0
33.90020 80.0
33.90520 95.0
33.91020 89.0
33.91520 79.0
33.92020 83.0
33.92520 78.0
33.93020 81.0
33.93520 71.0
33.94020 98.0
33.94520 85.0
33.95020 85.0
33.95520 75.0
33.96020 77.0
33.96520 94.0
33.97020 75.0
33.97520 88.0
33.98020 78.0
33.98520 91.0
33.99020 76.0
33.99520 78.0
34.00020 79.0
34.00520 79.0
34.01020 81.0
34.01520 90.0
34.02020 81.0
34.02520 80.0
34.03020 81.0
34.03520 80.0
34.04020 68.0
34.04520 74.0
34.05020 75.0
34.05520 70.0
34.06020 61.0
34.06520 86.0
34.07020 80.0
34.07520 77.0
34.08020 88.0
34.08520 82.0
34.09020 79.0
34.09520 82.0
34.10020 91.0
34.10520 71.0
34.11020 67.0
34.11520 82.0
34.12020 91.0
34.12520 70.0
34.13020 79.0
34.13520 68.0
34.14020 80.0
34.14520 64.0
34.15020 84.0
34.15520 72.0
34.16020 77.0
34.16520 82.0
34.17020 96.0
34.17520 79.0
34.18020 76.0
34.18520 84.0
34.19020 69.0
34.19520 87.0
34.20020 79.0
34.20520 89.0
34.21020 76.0
34.21520 70.0
34.22020 83.0
34.22520 71.0
34.23020 74.0
34.23520 64.0
34.24020 78.0
34.24520 72.0
34.25020 87.0
34.25520 70.0
34.26020 72.0
34.26520 69.0
34.27020 80.0
34.27520 82.0
34.28020 71.0
34.28520 83.0
34.29020 78.0
34.29520 73.0
34.30020 66.0
34.30520 66.0
34.31020 85.0
34.31520 78.0
34.32020 70.0
34.32520 68.0
34.33020 64.0
34.33520 79.0
34.34020 86.0
34.34520 85.0
34.35020 68.0
34.35520 76.0
34.36020 74.0
34.36520 70.0
34.37020 76.0
34.37520 71.0
34.38020 73.0
34.38520 69.0
34.39020 69.0
34.39520 69.0
34.40020 72.0
34.40520 72.0
34.41020 76.0
34.41520 73.0
34.42020 86.0
34.42520 84.0
34.43020 76.0
34.43520 82.0
34.44020 68.0
34.44520 69.0
34.45020 83.0
34.45520 94.0
34.46020 78.0
34.46520 73.0
34.47020 68.0
34.47520 65.0
34.48020 73.0
34.48520 64.0
34.49020 73.0
34.49520 79.0
34.50020 82.0
34.50520 53.0
34.51020 76.0
34.51520 75.0
34.52020 61.0
34.52520 72.0
34.53020 75.0
34.53520 69.0
34.54020 79.0