File: data/W6716/XRD_Omega/W6716_Cr2O3_scan_omega_2deg_step_0.002deg0_2.xy
30.70410 625.0
30.70610 661.0
30.70810 728.0
30.71010 613.0
30.71210 652.0
30.71410 616.0
30.71610 665.0
30.71810 645.0
30.72010 664.0
30.72210 692.0
30.72410 647.0
30.72610 634.0
30.72810 633.0
30.73010 669.0
30.73210 692.0
30.73410 714.0
30.73610 672.0
30.73810 706.0
30.74010 668.0
30.74210 697.0
30.74410 688.0
30.74610 770.0
30.74810 671.0
30.75010 742.0
30.75210 702.0
30.75410 690.0
30.75610 737.0
30.75810 727.0
30.76010 741.0
30.76210 703.0
30.76410 771.0
30.76610 708.0
30.76810 718.0
30.77010 698.0
30.77210 760.0
30.77410 724.0
30.77610 743.0
30.77810 750.0
30.78010 752.0
30.78210 777.0
30.78410 772.0
30.78610 809.0
30.78810 781.0
30.79010 786.0
30.79210 817.0
30.79410 827.0
30.79610 799.0
30.79810 799.0
30.80010 829.0
30.80210 811.0
30.80410 848.0
30.80610 846.0
30.80810 891.0
30.81010 849.0
30.81210 884.0
30.81410 838.0
30.81610 833.0
30.81810 905.0
30.82010 879.0
30.82210 841.0
30.82410 866.0
30.82610 864.0
30.82810 871.0
30.83010 845.0
30.83210 885.0
30.83410 907.0
30.83610 916.0
30.83810 906.0
30.84010 923.0
30.84210 952.0
30.84410 921.0
30.84610 974.0
30.84810 937.0
30.85010 1008.0
30.85210 930.0
30.85410 972.0
30.85610 963.0
30.85810 957.0
30.86010 1028.0
30.86210 994.0
30.86410 979.0
30.86610 979.0
30.86810 959.0
30.87010 951.0
30.87210 1007.0
30.87410 975.0
30.87610 969.0
30.87810 1029.0
30.88010 1023.0
30.88210 1058.0
30.88410 1038.0
30.88610 1087.0
30.88810 1097.0
30.89010 1002.0
30.89210 993.0
30.89410 1069.0
30.89610 1037.0
30.89810 1070.0
30.90010 1057.0
30.90210 1082.0
30.90410 1111.0
30.90610 1104.0
30.90810 1097.0
30.91010 1113.0
30.91210 1086.0
30.91410 1148.0
30.91610 1144.0
30.91810 1169.0
30.92010 1135.0
30.92210 1231.0
30.92410 1186.0
30.92610 1166.0
30.92810 1142.0
30.93010 1183.0
30.93210 1157.0
30.93410 1186.0
30.93610 1229.0
30.93810 1169.0
30.94010 1222.0
30.94210 1229.0
30.94410 1274.0
30.94610 1186.0
30.94810 1256.0
30.95010 1208.0
30.95210 1214.0
30.95410 1163.0
30.95610 1298.0
30.95810 1313.0
30.96010 1328.0
30.96210 1288.0
30.96410 1263.0
30.96610 1373.0
30.96810 1302.0
30.97010 1318.0
30.97210 1300.0
30.97410 1326.0
30.97610 1314.0
30.97810 1400.0
30.98010 1346.0
30.98210 1401.0
30.98410 1389.0
30.98610 1408.0
30.98810 1430.0
30.99010 1412.0
30.99210 1428.0
30.99410 1425.0
30.99610 1474.0
30.99810 1433.0
31.00010 1401.0
31.00210 1489.0
31.00410 1473.0
31.00610 1485.0
31.00810 1522.0
31.01010 1538.0
31.01210 1645.0
31.01410 1504.0
31.01610 1575.0
31.01810 1582.0
31.02010 1548.0
31.02210 1629.0
31.02410 1590.0
31.02610 1591.0
31.02810 1553.0
31.03010 1639.0
31.03210 1597.0
31.03410 1689.0
31.03610 1678.0
31.03810 1633.0
31.04010 1628.0
31.04210 1670.0
31.04410 1677.0
31.04610 1728.0
31.04810 1757.0
31.05010 1765.0
31.05210 1734.0
31.05410 1764.0
31.05610 1704.0
31.05810 1832.0
31.06010 1779.0
31.06210 1892.0
31.06410 1840.0
31.06610 1865.0
31.06810 1992.0
31.07010 1902.0
31.07210 1939.0
31.07410 1981.0
31.07610 1813.0
31.07810 1874.0
31.08010 1964.0
31.08210 1941.0
31.08410 2022.0
31.08610 1995.0
31.08810 1920.0
31.09010 2040.0
31.09210 1965.0
31.09410 1992.0
31.09610 2121.0
31.09810 2035.0
31.10010 2060.0
31.10210 2112.0
31.10410 2120.0
31.10610 2085.0
31.10810 2124.0
31.11010 2208.0
31.11210 2255.0
31.11410 2161.0
31.11610 2355.0
31.11810 2302.0
31.12010 2229.0
31.12210 2338.0
31.12410 2328.0
31.12610 2364.0
31.12810 2285.0
31.13010 2355.0
31.13210 2406.0
31.13410 2462.0
31.13610 2371.0
31.13810 2370.0
31.14010 2402.0
31.14210 2500.0
31.14410 2539.0
31.14610 2512.0
31.14810 2505.0
31.15010 2612.0
31.15210 2628.0
31.15410 2613.0
31.15610 2637.0
31.15810 2635.0
31.16010 2680.0
31.16210 2571.0
31.16410 2696.0
31.16610 2701.0
31.16810 2778.0
31.17010 2709.0
31.17210 2780.0
31.17410 2806.0
31.17610 2871.0
31.17810 2899.0
31.18010 2973.0
31.18210 2929.0
31.18410 2879.0
31.18610 2982.0
31.18810 3029.0
31.19010 2940.0
31.19210 3015.0
31.19410 3019.0
31.19610 3051.0
31.19810 3242.0
31.20010 3073.0
31.20210 3152.0
31.20410 3195.0
31.20610 3224.0
31.20810 3202.0
31.21010 3205.0
31.21210 3382.0
31.21410 3325.0
31.21610 3424.0
31.21810 3302.0
31.22010 3370.0
31.22210 3438.0
31.22410 3476.0
31.22610 3534.0
31.22810 3513.0
31.23010 3572.0
31.23210 3609.0
31.23410 3658.0
31.23610 3563.0
31.23810 3594.0
31.24010 3664.0
31.24210 3777.0
31.24410 3842.0
31.24610 3918.0
31.24810 3875.0
31.25010 3833.0
31.25210 4003.0
31.25410 3955.0
31.25610 3925.0
31.25810 4057.0
31.26010 4000.0
31.26210 4076.0
31.26410 4262.0
31.26610 4242.0
31.26810 4318.0
31.27010 4269.0
31.27210 4354.0
31.27410 4420.0
31.27610 4391.0
31.27810 4496.0
31.28010 4453.0
31.28210 4468.0
31.28410 4399.0
31.28610 4536.0
31.28810 4557.0
31.29010 4703.0
31.29210 4697.0
31.29410 4762.0
31.29610 4686.0
31.29810 4777.0
31.30010 4837.0
31.30210 4907.0
31.30410 4968.0
31.30610 4991.0
31.30810 5223.0
31.31010 5093.0
31.31210 5089.0
31.31410 5163.0
31.31610 5260.0
31.31810 5148.0
31.32010 5325.0
31.32210 5379.0
31.32410 5457.0
31.32610 5360.0
31.32810 5512.0
31.33010 5475.0
31.33210 5695.0
31.33410 5540.0
31.33610 5778.0
31.33810 5705.0
31.34010 5734.0
31.34210 5850.0
31.34410 5885.0
31.34610 5984.0
31.34810 5977.0
31.35010 6094.0
31.35210 6133.0
31.35410 6288.0
31.35610 6249.0
31.35810 6343.0
31.36010 6430.0
31.36210 6419.0
31.36410 6426.0
31.36610 6441.0
31.36810 6511.0
31.37010 6656.0
31.37210 6656.0
31.37410 6738.0
31.37610 6754.0
31.37810 6794.0
31.38010 7002.0
31.38210 6857.0
31.38410 7060.0
31.38610 7154.0
31.38810 7170.0
31.39010 7159.0
31.39210 7286.0
31.39410 7275.0
31.39610 7371.0
31.39810 7446.0
31.40010 7588.0
31.40210 7650.0
31.40410 7711.0
31.40610 7922.0
31.40810 7704.0
31.41010 7824.0
31.41210 8003.0
31.41410 7970.0
31.41610 7969.0
31.41810 8198.0
31.42010 8070.0
31.42210 8348.0
31.42410 8373.0
31.42610 8321.0
31.42810 8556.0
31.43010 8657.0
31.43210 8689.0
31.43410 8668.0
31.43610 8692.0
31.43810 8778.0
31.44010 8887.0
31.44210 8888.0
31.44410 9115.0
31.44610 9161.0
31.44810 9201.0
31.45010 9325.0
31.45210 9320.0
31.45410 9434.0
31.45610 9479.0
31.45810 9350.0
31.46010 9700.0
31.46210 9499.0
31.46410 9696.0
31.46610 9715.0
31.46810 9762.0
31.47010 9743.0
31.47210 9901.0
31.47410 9961.0
31.47610 10045.0
31.47810 10009.0
31.48010 10185.0
31.48210 10077.0
31.48410 10398.0
31.48610 10324.0
31.48810 10704.0
31.49010 10632.0
31.49210 10443.0
31.49410 10805.0
31.49610 10912.0
31.49810 10924.0
31.50010 11161.0
31.50210 10733.0
31.50410 10886.0
31.50610 11017.0
31.50810 11072.0
31.51010 11171.0
31.51210 11298.0
31.51410 11208.0
31.51610 11354.0
31.51810 11494.0
31.52010 11548.0
31.52210 11603.0
31.52410 11751.0
31.52610 11607.0
31.52810 11736.0
31.53010 11642.0
31.53210 11993.0
31.53410 11742.0
31.53610 11796.0
31.53810 11977.0
31.54010 12006.0
31.54210 12080.0
31.54410 12328.0
31.54610 11953.0
31.54810 12272.0
31.55010 12267.0
31.55210 12547.0
31.55410 12462.0
31.55610 12556.0
31.55810 12752.0
31.56010 12439.0
31.56210 12734.0
31.56410 12865.0
31.56610 12940.0
31.56810 13221.0
31.57010 13130.0
31.57210 12885.0
31.57410 13155.0
31.57610 13168.0
31.57810 13172.0
31.58010 13468.0
31.58210 13234.0
31.58410 13425.0
31.58610 13366.0
31.58810 13391.0
31.59010 13397.0
31.59210 13590.0
31.59410 13610.0
31.59610 13658.0
31.59810 13645.0
31.60010 13596.0
31.60210 13542.0
31.60410 13943.0
31.60610 13680.0
31.60810 13863.0
31.61010 13745.0
31.61210 14271.0
31.61410 14209.0
31.61610 13983.0
31.61810 14114.0
31.62010 14135.0
31.62210 14477.0
31.62410 14297.0
31.62610 14190.0
31.62810 14250.0
31.63010 14121.0
31.63210 14218.0
31.63410 14221.0
31.63610 14321.0
31.63810 14449.0
31.64010 14278.0
31.64210 14491.0
31.64410 14249.0
31.64610 14510.0
31.64810 14172.0
31.65010 14099.0
31.65210 14602.0
31.65410 14566.0
31.65610 14471.0
31.65810 14338.0
31.66010 14726.0
31.66210 14499.0
31.66410 14735.0
31.66610 14500.0
31.66810 14587.0
31.67010 14560.0
31.67210 14810.0
31.67410 14861.0
31.67610 14765.0
31.67810 14931.0
31.68010 14599.0
31.68210 14721.0
31.68410 14974.0
31.68610 14822.0
31.68810 14876.0
31.69010 15019.0
31.69210 14883.0
31.69410 15114.0
31.69610 15031.0
31.69810 14829.0
31.70010 14980.0
31.70210 15181.0
31.70410 14988.0
31.70610 15039.0
31.70810 15186.0
31.71010 15067.0
31.71210 15335.0
31.71410 14906.0
31.71610 15018.0
31.71810 15011.0
31.72010 15081.0
31.72210 14992.0
31.72410 15045.0
31.72610 15122.0
31.72810 15039.0
31.73010 14982.0
31.73210 15237.0
31.73410 15057.0
31.73610 15266.0
31.73810 15136.0
31.74010 14976.0
31.74210 15229.0
31.74410 15122.0
31.74610 15227.0
31.74810 15325.0
31.75010 15222.0
31.75210 14947.0
31.75410 15126.0
31.75610 14888.0
31.75810 15026.0
31.76010 15038.0
31.76210 15215.0
31.76410 15368.0
31.76610 15054.0
31.76810 15098.0
31.77010 15210.0
31.77210 14895.0
31.77410 15057.0
31.77610 15104.0
31.77810 15007.0
31.78010 14776.0
31.78210 14887.0
31.78410 14963.0
31.78610 14759.0
31.78810 14683.0
31.79010 14905.0
31.79210 15076.0
31.79410 14879.0
31.79610 14609.0
31.79810 14281.0
31.80010 14646.0
31.80210 14883.0
31.80410 14698.0
31.80610 14633.0
31.80810 14197.0
31.81010 14406.0
31.81210 14657.0
31.81410 14236.0
31.81610 14283.0
31.81810 14493.0
31.82010 14352.0
31.82210 14226.0
31.82410 14116.0
31.82610 13876.0
31.82810 14207.0
31.83010 13991.0
31.83210 14008.0
31.83410 13764.0
31.83610 13613.0
31.83810 13988.0
31.84010 13715.0
31.84210 13880.0
31.84410 13860.0
31.84610 13975.0
31.84810 13903.0
31.85010 13886.0
31.85210 13805.0
31.85410 13766.0
31.85610 13368.0
31.85810 13630.0
31.86010 13377.0
31.86210 13445.0
31.86410 13365.0
31.86610 13131.0
31.86810 13127.0
31.87010 13240.0
31.87210 13072.0
31.87410 13182.0
31.87610 12965.0
31.87810 12825.0
31.88010 13017.0
31.88210 12775.0
31.88410 12936.0
31.88610 12979.0
31.88810 12719.0
31.89010 12634.0
31.89210 12709.0
31.89410 12602.0
31.89610 12799.0
31.89810 12720.0
31.90010 12268.0
31.90210 12349.0
31.90410 12231.0
31.90610 12184.0
31.90810 12025.0
31.91010 12315.0
31.91210 12394.0
31.91410 12058.0
31.91610 12066.0
31.91810 11988.0
31.92010 12129.0
31.92210 11845.0
31.92410 11709.0
31.92610 11665.0
31.92810 11544.0
31.93010 11492.0
31.93210 11610.0
31.93410 11536.0
31.93610 11608.0
31.93810 11329.0
31.94010 11291.0
31.94210 11385.0
31.94410 11361.0
31.94610 11209.0
31.94810 11017.0
31.95010 11065.0
31.95210 11181.0
31.95410 11015.0
31.95610 11108.0
31.95810 10873.0
31.96010 10877.0
31.96210 10689.0
31.96410 10697.0
31.96610 10725.0
31.96810 10357.0
31.97010 10492.0
31.97210 10428.0
31.97410 10309.0
31.97610 10461.0
31.97810 10309.0
31.98010 10166.0
31.98210 9944.0
31.98410 10150.0
31.98610 10016.0
31.98810 10120.0
31.99010 9866.0
31.99210 9875.0
31.99410 9987.0
31.99610 9836.0
31.99810 9732.0
32.00010 9713.0
32.00210 9840.0
32.00410 9538.0
32.00610 9454.0
32.00810 9655.0
32.01010 9280.0
32.01210 9445.0
32.01410 9255.0
32.01610 9238.0
32.01810 9191.0
32.02010 9341.0
32.02210 9219.0
32.02410 9048.0
32.02610 9191.0
32.02810 8966.0
32.03010 8860.0
32.03210 8870.0
32.03410 8999.0
32.03610 8909.0
32.03810 8604.0
32.04010 8602.0
32.04210 8438.0
32.04410 8727.0
32.04610 8504.0
32.04810 8412.0
32.05010 8507.0
32.05210 8417.0
32.05410 8233.0
32.05610 8185.0
32.05810 8148.0
32.06010 8078.0
32.06210 8043.0
32.06410 8156.0
32.06610 8120.0
32.06810 7844.0
32.07010 7966.0
32.07210 7646.0
32.07410 7672.0
32.07610 7664.0
32.07810 7577.0
32.08010 7517.0
32.08210 7522.0
32.08410 7457.0
32.08610 7477.0
32.08810 7413.0
32.09010 7254.0
32.09210 7225.0
32.09410 7308.0
32.09610 7234.0
32.09810 7090.0
32.10010 7069.0
32.10210 7034.0
32.10410 7053.0
32.10610 6820.0
32.10810 6891.0
32.11010 6763.0
32.11210 6794.0
32.11410 6710.0
32.11610 6670.0
32.11810 6610.0
32.12010 6681.0
32.12210 6627.0
32.12410 6488.0
32.12610 6421.0
32.12810 6532.0
32.13010 6337.0
32.13210 6360.0
32.13410 6333.0
32.13610 6238.0
32.13810 6316.0
32.14010 6138.0
32.14210 6013.0
32.14410 6205.0
32.14610 5932.0
32.14810 6092.0
32.15010 5919.0
32.15210 5797.0
32.15410 5835.0
32.15610 5814.0
32.15810 5805.0
32.16010 5633.0
32.16210 5714.0
32.16410 5617.0
32.16610 5514.0
32.16810 5640.0
32.17010 5601.0
32.17210 5362.0
32.17410 5486.0
32.17610 5413.0
32.17810 5367.0
32.18010 5324.0
32.18210 5318.0
32.18410 5142.0
32.18610 5249.0
32.18810 5193.0
32.19010 5162.0
32.19210 5109.0
32.19410 5173.0
32.19610 5103.0
32.19810 4958.0
32.20010 4952.0
32.20210 4887.0
32.20410 4924.0
32.20610 4827.0
32.20810 4741.0
32.21010 4835.0
32.21210 4676.0
32.21410 4820.0
32.21610 4711.0
32.21810 4693.0
32.22010 4611.0
32.22210 4640.0
32.22410 4579.0
32.22610 4617.0
32.22810 4541.0
32.23010 4514.0
32.23210 4584.0
32.23410 4397.0
32.23610 4200.0
32.23810 4238.0
32.24010 4293.0
32.24210 4169.0
32.24410 4217.0
32.24610 4127.0
32.24810 4149.0
32.25010 4243.0
32.25210 4107.0
32.25410 4114.0
32.25610 4116.0
32.25810 4039.0
32.26010 3982.0
32.26210 4012.0
32.26410 3938.0
32.26610 3983.0
32.26810 3864.0
32.27010 3849.0
32.27210 3887.0
32.27410 3805.0
32.27610 3841.0
32.27810 3884.0
32.28010 3751.0
32.28210 3750.0
32.28410 3633.0
32.28610 3620.0
32.28810 3619.0
32.29010 3723.0
32.29210 3555.0
32.29410 3589.0
32.29610 3534.0
32.29810 3403.0
32.30010 3413.0
32.30210 3398.0
32.30410 3398.0
32.30610 3410.0
32.30810 3336.0
32.31010 3396.0
32.31210 3360.0
32.31410 3220.0
32.31610 3300.0
32.31810 3327.0
32.32010 3297.0
32.32210 3283.0
32.32410 3200.0
32.32610 3154.0
32.32810 3085.0
32.33010 3058.0
32.33210 3135.0
32.33410 3016.0
32.33610 3003.0
32.33810 2917.0
32.34010 3074.0
32.34210 3021.0
32.34410 2930.0
32.34610 3018.0
32.34810 2927.0
32.35010 2877.0
32.35210 3020.0
32.35410 2892.0
32.35610 2782.0
32.35810 2867.0
32.36010 2740.0
32.36210 2818.0
32.36410 2784.0
32.36610 2734.0
32.36810 2784.0
32.37010 2668.0
32.37210 2592.0
32.37410 2581.0
32.37610 2647.0
32.37810 2604.0
32.38010 2656.0
32.38210 2597.0
32.38410 2458.0
32.38610 2583.0
32.38810 2575.0
32.39010 2496.0
32.39210 2482.0
32.39410 2522.0
32.39610 2451.0
32.39810 2495.0
32.40010 2401.0
32.40210 2429.0
32.40410 2419.0
32.40610 2444.0
32.40810 2316.0
32.41010 2316.0
32.41210 2365.0
32.41410 2326.0
32.41610 2430.0
32.41810 2341.0
32.42010 2273.0
32.42210 2308.0
32.42410 2283.0
32.42610 2282.0
32.42810 2216.0
32.43010 2198.0
32.43210 2219.0
32.43410 2236.0
32.43610 2205.0
32.43810 2151.0
32.44010 2165.0
32.44210 2113.0
32.44410 2089.0
32.44610 2096.0
32.44810 2045.0
32.45010 2106.0
32.45210 2104.0
32.45410 2100.0
32.45610 2049.0
32.45810 2129.0
32.46010 1991.0
32.46210 2035.0
32.46410 1997.0
32.46610 1946.0
32.46810 1952.0
32.47010 1923.0
32.47210 1922.0
32.47410 1968.0
32.47610 1982.0
32.47810 1881.0
32.48010 1884.0
32.48210 1936.0
32.48410 1928.0
32.48610 1819.0
32.48810 1793.0
32.49010 1805.0
32.49210 1792.0
32.49410 1873.0
32.49610 1850.0
32.49810 1767.0
32.50010 1741.0
32.50210 1771.0
32.50410 1805.0
32.50610 1798.0
32.50810 1674.0
32.51010 1718.0
32.51210 1662.0
32.51410 1643.0
32.51610 1686.0
32.51810 1662.0
32.52010 1683.0
32.52210 1637.0
32.52410 1607.0
32.52610 1685.0
32.52810 1620.0
32.53010 1637.0
32.53210 1656.0
32.53410 1712.0
32.53610 1568.0
32.53810 1558.0
32.54010 1572.0
32.54210 1666.0
32.54410 1651.0
32.54610 1631.0
32.54810 1536.0
32.55010 1509.0
32.55210 1493.0
32.55410 1573.0
32.55610 1500.0
32.55810 1548.0
32.56010 1489.0
32.56210 1472.0
32.56410 1576.0
32.56610 1521.0
32.56810 1499.0
32.57010 1428.0
32.57210 1556.0
32.57410 1478.0
32.57610 1392.0
32.57810 1399.0
32.58010 1408.0
32.58210 1438.0
32.58410 1409.0
32.58610 1353.0
32.58810 1400.0
32.59010 1365.0
32.59210 1415.0
32.59410 1303.0
32.59610 1411.0
32.59810 1374.0
32.60010 1402.0
32.60210 1385.0
32.60410 1344.0
32.60610 1402.0
32.60810 1339.0
32.61010 1347.0
32.61210 1316.0
32.61410 1352.0
32.61610 1306.0
32.61810 1330.0
32.62010 1351.0
32.62210 1320.0
32.62410 1242.0
32.62610 1285.0
32.62810 1301.0
32.63010 1346.0
32.63210 1305.0
32.63410 1278.0
32.63610 1254.0
32.63810 1193.0
32.64010 1331.0
32.64210 1240.0
32.64410 1260.0
32.64610 1282.0
32.64810 1266.0
32.65010 1302.0
32.65210 1271.0
32.65410 1215.0
32.65610 1230.0
32.65810 1213.0
32.66010 1167.0
32.66210 1206.0
32.66410 1180.0
32.66610 1200.0
32.66810 1198.0
32.67010 1125.0
32.67210 1197.0
32.67410 1181.0
32.67610 1172.0
32.67810 1164.0
32.68010 1167.0
32.68210 1154.0
32.68410 1161.0
32.68610 1136.0
32.68810 1154.0