File: data/W6906r/XRD_2ThetaOmega/scan_2th-om_r2_Cr2O3_45-55deg_PIXscan_5min_C7.xy
45.0025 139.0
45.0123 113.0
45.0222 106.0
45.032 114.0
45.0419 117.0
45.0517 131.0
45.0615 125.0
45.0714 128.0
45.0812 127.0
45.0911 118.0
45.1009 111.0
45.1108 131.0
45.1206 116.0
45.1305 120.0
45.1403 131.0
45.1502 102.0
45.16 118.0
45.1699 114.0
45.1797 120.0
45.1896 98.0
45.1994 123.0
45.2093 104.0
45.2191 105.0
45.229 128.0
45.2388 102.0
45.2487 124.0
45.2585 121.0
45.2684 127.0
45.2782 120.0
45.288 106.0
45.2979 117.0
45.3077 113.0
45.3176 110.0
45.3274 123.0
45.3373 98.0
45.3471 112.0
45.357 126.0
45.3668 117.0
45.3767 113.0
45.3865 116.0
45.3964 96.0
45.4062 138.0
45.4161 102.0
45.4259 108.0
45.4358 98.0
45.4456 107.0
45.4555 109.0
45.4653 105.0
45.4752 117.0
45.485 98.0
45.4948 111.0
45.5047 112.0
45.5145 114.0
45.5244 119.0
45.5342 104.0
45.5441 101.0
45.5539 126.0
45.5638 115.0
45.5736 118.0
45.5835 103.0
45.5933 108.0
45.6032 118.0
45.613 102.0
45.6229 105.0
45.6327 111.0
45.6426 114.0
45.6524 109.0
45.6623 126.0
45.6721 98.0
45.682 100.0
45.6918 115.0
45.7016 104.0
45.7115 107.0
45.7213 109.0
45.7312 134.0
45.741 123.0
45.7509 108.0
45.7607 115.0
45.7706 123.0
45.7804 95.0
45.7903 96.0
45.8001 84.0
45.81 113.0
45.8198 111.0
45.8297 115.0
45.8395 104.0
45.8494 97.0
45.8592 116.0
45.8691 119.0
45.8789 116.0
45.8888 117.0
45.8986 103.0
45.9085 106.0
45.9183 98.0
45.9281 110.0
45.938 119.0
45.9478 92.0
45.9577 103.0
45.9675 121.0
45.9774 99.0
45.9872 112.0
45.9971 112.0
46.0069 88.0
46.0168 118.0
46.0266 127.0
46.0365 106.0
46.0463 111.0
46.0562 137.0
46.066 115.0
46.0759 116.0
46.0857 91.0
46.0956 100.0
46.1054 127.0
46.1153 106.0
46.1251 122.0
46.1349 122.0
46.1448 116.0
46.1546 114.0
46.1645 112.0
46.1743 87.0
46.1842 120.0
46.194 113.0
46.2039 104.0
46.2137 109.0
46.2236 122.0
46.2334 99.0
46.2433 104.0
46.2531 103.0
46.263 108.0
46.2728 108.0
46.2827 115.0
46.2925 94.0
46.3024 95.0
46.3122 107.0
46.3221 106.0
46.3319 112.0
46.3418 111.0
46.3516 108.0
46.3614 110.0
46.3713 108.0
46.3811 114.0
46.391 106.0
46.4008 111.0
46.4107 112.0
46.4205 90.0
46.4304 114.0
46.4402 100.0
46.4501 120.0
46.4599 109.0
46.4698 115.0
46.4796 129.0
46.4895 102.0
46.4993 111.0
46.5092 104.0
46.519 109.0
46.5289 106.0
46.5387 119.0
46.5486 129.0
46.5584 112.0
46.5682 119.0
46.5781 105.0
46.5879 110.0
46.5978 102.0
46.6076 125.0
46.6175 100.0
46.6273 116.0
46.6372 101.0
46.647 115.0
46.6569 118.0
46.6667 111.0
46.6766 125.0
46.6864 109.0
46.6963 137.0
46.7061 121.0
46.716 138.0
46.7258 132.0
46.7357 125.0
46.7455 142.0
46.7554 143.0
46.7652 110.0
46.7751 122.0
46.7849 108.0
46.7947 134.0
46.8046 124.0
46.8144 126.0
46.8243 106.0
46.8341 107.0
46.844 130.0
46.8538 102.0
46.8637 132.0
46.8735 120.0
46.8834 137.0
46.8932 124.0
46.9031 123.0
46.9129 119.0
46.9228 113.0
46.9326 129.0
46.9425 104.0
46.9523 131.0
46.9622 145.0
46.972 106.0
46.9819 150.0
46.9917 148.0
47.0015 159.0
47.0114 153.0
47.0212 168.0
47.0311 204.0
47.0409 262.0
47.0508 333.0
47.0606 403.0
47.0705 634.0
47.0803 923.0
47.0902 1186.0
47.1 1459.0
47.1099 1703.0
47.1197 1559.0
47.1296 1512.0
47.1394 1208.0
47.1493 941.0
47.1591 670.0
47.169 498.0
47.1788 415.0
47.1887 390.0
47.1985 306.0
47.2083 314.0
47.2182 269.0
47.228 210.0
47.2379 205.0
47.2477 190.0
47.2576 190.0
47.2674 166.0
47.2773 147.0
47.2871 152.0
47.297 163.0
47.3068 133.0
47.3167 147.0
47.3265 148.0
47.3364 149.0
47.3462 142.0
47.3561 149.0
47.3659 156.0
47.3758 144.0
47.3856 154.0
47.3955 148.0
47.4053 144.0
47.4152 140.0
47.425 125.0
47.4348 140.0
47.4447 127.0
47.4545 141.0
47.4644 140.0
47.4742 118.0
47.4841 135.0
47.4939 130.0
47.5038 146.0
47.5136 142.0
47.5235 119.0
47.5333 126.0
47.5432 111.0
47.553 125.0
47.5629 121.0
47.5727 134.0
47.5826 135.0
47.5924 94.0
47.6023 122.0
47.6121 138.0
47.622 125.0
47.6318 131.0
47.6416 124.0
47.6515 138.0
47.6613 148.0
47.6712 117.0
47.681 115.0
47.6909 121.0
47.7007 111.0
47.7106 141.0
47.7204 163.0
47.7303 122.0
47.7401 139.0
47.75 130.0
47.7598 140.0
47.7697 129.0
47.7795 114.0
47.7894 136.0
47.7992 126.0
47.8091 120.0
47.8189 110.0
47.8288 115.0
47.8386 130.0
47.8485 124.0
47.8583 112.0
47.8681 140.0
47.878 142.0
47.8878 116.0
47.8977 135.0
47.9075 112.0
47.9174 149.0
47.9272 105.0
47.9371 135.0
47.9469 129.0
47.9568 121.0
47.9666 117.0
47.9765 118.0
47.9863 134.0
47.9962 141.0
48.006 132.0
48.0159 125.0
48.0257 120.0
48.0356 119.0
48.0454 121.0
48.0553 114.0
48.0651 140.0
48.0749 121.0
48.0848 122.0
48.0946 120.0
48.1045 116.0
48.1143 133.0
48.1242 131.0
48.134 150.0
48.1439 129.0
48.1537 120.0
48.1636 128.0
48.1734 117.0
48.1833 120.0
48.1931 117.0
48.203 147.0
48.2128 109.0
48.2227 138.0
48.2325 129.0
48.2424 129.0
48.2522 129.0
48.2621 144.0
48.2719 126.0
48.2818 141.0
48.2916 119.0
48.3014 136.0
48.3113 118.0
48.3211 132.0
48.331 133.0
48.3408 133.0
48.3507 120.0
48.3605 133.0
48.3704 134.0
48.3802 120.0
48.3901 154.0
48.3999 136.0
48.4098 135.0
48.4196 132.0
48.4295 140.0
48.4393 126.0
48.4492 127.0
48.459 122.0
48.4689 128.0
48.4787 136.0
48.4886 124.0
48.4984 121.0
48.5082 134.0
48.5181 134.0
48.5279 112.0
48.5378 130.0
48.5476 112.0
48.5575 137.0
48.5673 129.0
48.5772 132.0
48.587 145.0
48.5969 153.0
48.6067 118.0
48.6166 144.0
48.6264 113.0
48.6363 133.0
48.6461 126.0
48.656 135.0
48.6658 139.0
48.6757 132.0
48.6855 144.0
48.6954 139.0
48.7052 119.0
48.715 127.0
48.7249 134.0
48.7347 136.0
48.7446 127.0
48.7544 128.0
48.7643 102.0
48.7741 139.0
48.784 126.0
48.7938 153.0
48.8037 129.0
48.8135 130.0
48.8234 126.0
48.8332 145.0
48.8431 114.0
48.8529 133.0
48.8628 136.0
48.8726 121.0
48.8825 130.0
48.8923 117.0
48.9022 131.0
48.912 136.0
48.9219 116.0
48.9317 139.0
48.9415 159.0
48.9514 157.0
48.9612 154.0
48.9711 120.0
48.9809 155.0
48.9908 132.0
49.0006 140.0
49.0105 113.0
49.0203 113.0
49.0302 135.0
49.04 135.0
49.0499 136.0
49.0597 132.0
49.0696 122.0
49.0794 150.0
49.0893 148.0
49.0991 138.0
49.109 141.0
49.1188 147.0
49.1287 144.0
49.1385 127.0
49.1483 166.0
49.1582 169.0
49.168 132.0
49.1779 142.0
49.1877 140.0
49.1976 143.0
49.2074 168.0
49.2173 135.0
49.2271 151.0
49.237 161.0
49.2468 150.0
49.2567 129.0
49.2665 149.0
49.2764 154.0
49.2862 158.0
49.2961 135.0
49.3059 141.0
49.3158 168.0
49.3256 162.0
49.3355 142.0
49.3453 161.0
49.3552 171.0
49.365 162.0
49.3748 183.0
49.3847 161.0
49.3945 173.0
49.4044 163.0
49.4142 206.0
49.4241 160.0
49.4339 177.0
49.4438 163.0
49.4536 174.0
49.4635 169.0
49.4733 168.0
49.4832 199.0
49.493 174.0
49.5029 156.0
49.5127 186.0
49.5226 195.0
49.5324 184.0
49.5423 191.0
49.5521 188.0
49.562 219.0
49.5718 204.0
49.5816 206.0
49.5915 234.0
49.6013 203.0
49.6112 206.0
49.621 193.0
49.6309 259.0
49.6407 219.0
49.6506 219.0
49.6604 238.0
49.6703 269.0
49.6801 240.0
49.69 274.0
49.6998 291.0
49.7097 263.0
49.7195 242.0
49.7294 272.0
49.7392 289.0
49.7491 281.0
49.7589 284.0
49.7688 270.0
49.7786 319.0
49.7884 312.0
49.7983 358.0
49.8081 305.0
49.818 368.0
49.8278 347.0
49.8377 320.0
49.8475 345.0
49.8574 319.0
49.8672 335.0
49.8771 407.0
49.8869 373.0
49.8968 378.0
49.9066 361.0
49.9165 414.0
49.9263 434.0
49.9362 418.0
49.946 420.0
49.9559 443.0
49.9657 468.0
49.9756 439.0
49.9854 453.0
49.9953 493.0
50.0051 450.0
50.0149 483.0
50.0248 478.0
50.0346 482.0
50.0445 518.0
50.0543 511.0
50.0642 470.0
50.074 476.0
50.0839 517.0
50.0937 505.0
50.1036 529.0
50.1134 529.0
50.1233 552.0
50.1331 526.0
50.143 565.0
50.1528 579.0
50.1627 585.0
50.1725 591.0
50.1824 582.0
50.1922 571.0
50.2021 560.0
50.2119 585.0
50.2217 566.0
50.2316 554.0
50.2414 542.0
50.2513 543.0
50.2611 536.0
50.271 540.0
50.2808 530.0
50.2907 548.0
50.3005 510.0
50.3104 532.0
50.3202 528.0
50.3301 469.0
50.3399 553.0
50.3498 504.0
50.3596 516.0
50.3695 497.0
50.3793 502.0
50.3892 565.0
50.399 483.0
50.4089 491.0
50.4187 438.0
50.4286 440.0
50.4384 476.0
50.4482 428.0
50.4581 452.0
50.4679 444.0
50.4778 449.0
50.4876 459.0
50.4975 389.0
50.5073 405.0
50.5172 392.0
50.527 417.0
50.5369 373.0
50.5467 406.0
50.5566 377.0
50.5664 347.0
50.5763 351.0
50.5861 377.0
50.596 338.0
50.6058 324.0
50.6157 348.0
50.6255 373.0
50.6354 336.0
50.6452 323.0
50.655 333.0
50.6649 329.0
50.6747 347.0
50.6846 296.0
50.6944 301.0
50.7043 297.0
50.7141 320.0
50.724 310.0
50.7338 288.0
50.7437 294.0
50.7535 272.0
50.7634 287.0
50.7732 290.0
50.7831 287.0
50.7929 282.0
50.8028 270.0
50.8126 300.0
50.8225 267.0
50.8323 293.0
50.8422 294.0
50.852 291.0
50.8619 276.0
50.8717 286.0
50.8815 288.0
50.8914 280.0
50.9012 283.0
50.9111 279.0
50.9209 282.0
50.9308 277.0
50.9406 276.0
50.9505 287.0
50.9603 290.0
50.9702 292.0
50.98 303.0
50.9899 287.0
50.9997 316.0
51.0096 317.0
51.0194 314.0
51.0293 300.0
51.0391 310.0
51.049 301.0
51.0588 294.0
51.0687 325.0
51.0785 331.0
51.0883 273.0
51.0982 328.0
51.108 323.0
51.1179 316.0
51.1277 323.0
51.1376 327.0
51.1474 322.0
51.1573 326.0
51.1671 326.0
51.177 352.0
51.1868 345.0
51.1967 351.0
51.2065 371.0
51.2164 339.0
51.2262 334.0
51.2361 358.0
51.2459 367.0
51.2558 341.0
51.2656 390.0
51.2755 352.0
51.2853 361.0
51.2951 416.0
51.305 375.0
51.3148 372.0
51.3247 433.0
51.3345 413.0
51.3444 398.0
51.3542 420.0
51.3641 426.0
51.3739 420.0
51.3838 388.0
51.3936 432.0
51.4035 430.0
51.4133 425.0
51.4232 408.0
51.433 466.0
51.4429 438.0
51.4527 441.0
51.4626 429.0
51.4724 459.0
51.4823 464.0
51.4921 450.0
51.502 444.0
51.5118 451.0
51.5216 446.0
51.5315 526.0
51.5413 528.0
51.5512 480.0
51.561 557.0
51.5709 518.0
51.5807 526.0
51.5906 517.0
51.6004 549.0
51.6103 538.0
51.6201 530.0
51.63 515.0
51.6398 559.0
51.6497 558.0
51.6595 547.0
51.6694 591.0
51.6792 604.0
51.6891 600.0
51.6989 572.0
51.7088 623.0
51.7186 627.0
51.7284 600.0
51.7383 672.0
51.7481 609.0
51.758 648.0
51.7678 669.0
51.7777 670.0
51.7875 687.0
51.7974 693.0
51.8072 708.0
51.8171 691.0
51.8269 726.0
51.8368 725.0
51.8466 698.0
51.8565 737.0
51.8663 704.0
51.8762 762.0
51.886 775.0
51.8959 767.0
51.9057 779.0
51.9156 830.0
51.9254 732.0
51.9353 844.0
51.9451 893.0
51.9549 910.0
51.9648 872.0
51.9746 931.0
51.9845 921.0
51.9943 942.0
52.0042 921.0
52.014 1006.0
52.0239 1010.0
52.0337 1046.0
52.0436 1122.0
52.0534 1122.0
52.0633 1144.0
52.0731 1228.0
52.083 1237.0
52.0928 1254.0
52.1027 1338.0
52.1125 1350.0
52.1224 1483.0
52.1322 1452.0
52.1421 1579.0
52.1519 1657.0
52.1617 1746.0
52.1716 1878.0
52.1814 2023.0
52.1913 2302.0
52.2011 2548.0
52.211 2916.0
52.2208 3212.0
52.2307 3811.0
52.2405 4214.0
52.2504 4552.0
52.2602 4848.0
52.2701 4875.0
52.2799 5052.0
52.2898 5012.0
52.2996 4921.0
52.3095 4772.0
52.3193 4709.0
52.3292 4915.0
52.339 5095.0
52.3489 5326.0
52.3587 5785.0
52.3686 6231.0
52.3784 7046.0
52.3882 8089.0
52.3981 9686.0
52.4079 11982.0
52.4178 14522.0
52.4276 19162.0
52.4375 26376.0
52.4473 38738.0
52.4572 63839.0
52.467 129388.0
52.4769 259113.0
52.4867 363469.0
52.4966 409753.0
52.5064 425335.0
52.5163 407270.0
52.5261 329709.0
52.536 188626.0
52.5458 98695.0
52.5557 58091.0
52.5655 39674.0
52.5754 32308.0
52.5852 32550.0
52.595 41128.0
52.6049 65485.0
52.6147 116795.0
52.6246 171554.0
52.6344 201999.0
52.6443 211558.0
52.6541 206230.0
52.664 175020.0
52.6738 116668.0
52.6837 64672.0
52.6935 36403.0
52.7034 22590.0
52.7132 15543.0
52.7231 11524.0
52.7329 9367.0
52.7428 7788.0
52.7526 6698.0
52.7625 5905.0
52.7723 5306.0
52.7822 4903.0
52.792 4291.0
52.8018 3928.0
52.8117 3671.0
52.8215 3384.0
52.8314 3176.0
52.8412 3062.0
52.8511 2736.0
52.8609 2562.0
52.8708 2500.0
52.8806 2320.0
52.8905 2216.0
52.9003 2188.0
52.9102 1963.0
52.92 1788.0
52.9299 1824.0
52.9397 1725.0
52.9496 1566.0
52.9594 1541.0
52.9693 1516.0
52.9791 1432.0
52.989 1363.0
52.9988 1266.0
53.0087 1294.0
53.0185 1268.0
53.0283 1136.0
53.0382 1165.0
53.048 1130.0
53.0579 1089.0
53.0677 1034.0
53.0776 1066.0
53.0874 1013.0
53.0973 997.0
53.1071 939.0
53.117 909.0
53.1268 877.0
53.1367 845.0
53.1465 845.0
53.1564 826.0
53.1662 844.0
53.1761 809.0
53.1859 721.0
53.1958 742.0
53.2056 736.0
53.2155 748.0
53.2253 661.0
53.2351 662.0
53.245 673.0
53.2548 682.0
53.2647 626.0
53.2745 585.0
53.2844 630.0
53.2942 629.0
53.3041 573.0
53.3139 564.0
53.3238 558.0
53.3336 552.0
53.3435 522.0
53.3533 547.0
53.3632 511.0
53.373 514.0
53.3829 505.0
53.3927 486.0
53.4026 518.0
53.4124 483.0
53.4223 445.0
53.4321 474.0
53.442 442.0
53.4518 457.0
53.4616 425.0
53.4715 394.0
53.4813 426.0
53.4912 373.0
53.501 393.0
53.5109 369.0
53.5207 355.0
53.5306 360.0
53.5404 394.0
53.5503 331.0
53.5601 357.0
53.57 362.0
53.5798 347.0
53.5897 326.0
53.5995 381.0
53.6094 335.0
53.6192 316.0
53.6291 340.0
53.6389 351.0
53.6488 300.0
53.6586 313.0
53.6684 282.0
53.6783 277.0
53.6881 300.0
53.698 280.0
53.7078 290.0
53.7177 287.0
53.7275 288.0
53.7374 267.0
53.7472 294.0
53.7571 286.0
53.7669 273.0
53.7768 227.0
53.7866 295.0
53.7965 203.0
53.8063 224.0
53.8162 232.0
53.826 203.0
53.8359 226.0
53.8457 226.0
53.8556 178.0
53.8654 256.0
53.8753 256.0
53.8851 208.0
53.8949 202.0
53.9048 204.0
53.9146 189.0
53.9245 207.0
53.9343 199.0
53.9442 194.0
53.954 200.0
53.9639 192.0
53.9737 188.0
53.9836 197.0
53.9934 200.0
54.0033 205.0
54.0131 212.0
54.023 191.0
54.0328 187.0
54.0427 210.0
54.0525 193.0
54.0624 183.0
54.0722 196.0
54.0821 177.0
54.0919 181.0
54.1017 191.0
54.1116 185.0
54.1214 169.0
54.1313 175.0
54.1411 174.0
54.151 189.0
54.1608 162.0
54.1707 186.0
54.1805 190.0
54.1904 178.0
54.2002 214.0
54.2101 168.0
54.2199 176.0
54.2298 166.0
54.2396 213.0
54.2495 175.0
54.2593 145.0
54.2692 163.0
54.279 148.0
54.2889 160.0
54.2987 185.0
54.3085 152.0
54.3184 177.0
54.3282 143.0
54.3381 165.0
54.3479 179.0
54.3578 153.0
54.3676 168.0
54.3775 179.0
54.3873 160.0
54.3972 145.0
54.407 170.0
54.4169 172.0
54.4267 164.0
54.4366 169.0
54.4464 170.0
54.4563 165.0
54.4661 171.0
54.476 167.0
54.4858 142.0
54.4957 166.0
54.5055 158.0
54.5154 156.0
54.5252 153.0
54.535 168.0
54.5449 150.0
54.5547 164.0
54.5646 156.0
54.5744 158.0
54.5843 142.0
54.5941 168.0
54.604 151.0
54.6138 141.0
54.6237 165.0
54.6335 146.0
54.6434 151.0
54.6532 164.0
54.6631 163.0
54.6729 149.0
54.6828 155.0
54.6926 154.0
54.7025 167.0
54.7123 158.0
54.7222 152.0
54.732 166.0
54.7418 138.0
54.7517 149.0
54.7615 156.0
54.7714 136.0
54.7812 137.0
54.7911 127.0
54.8009 127.0
54.8108 148.0
54.8206 142.0
54.8305 166.0
54.8403 141.0
54.8502 119.0
54.86 138.0
54.8699 142.0
54.8797 166.0
54.8896 140.0
54.8994 136.0
54.9093 142.0
54.9191 138.0
54.929 135.0
54.9388 144.0
54.9487 143.0
54.9585 154.0
54.9683 138.0
54.9782 136.0
54.988 147.0
54.9979 168.0