File: data/W6904c/XRD_Omega/scan_omega_4deg_step_0.005deg0_C5_3.xy
17.43020 93.0
17.43520 89.0
17.44020 80.0
17.44520 81.0
17.45020 76.0
17.45520 77.0
17.46020 73.0
17.46520 64.0
17.47020 88.0
17.47520 84.0
17.48020 74.0
17.48520 85.0
17.49020 90.0
17.49520 90.0
17.50020 110.0
17.50520 93.0
17.51020 85.0
17.51520 78.0
17.52020 81.0
17.52520 81.0
17.53020 101.0
17.53520 64.0
17.54020 84.0
17.54520 77.0
17.55020 74.0
17.55520 80.0
17.56020 83.0
17.56520 71.0
17.57020 84.0
17.57520 77.0
17.58020 74.0
17.58520 94.0
17.59020 56.0
17.59520 91.0
17.60020 83.0
17.60520 91.0
17.61020 83.0
17.61520 81.0
17.62020 88.0
17.62520 89.0
17.63020 82.0
17.63520 85.0
17.64020 66.0
17.64520 81.0
17.65020 92.0
17.65520 94.0
17.66020 77.0
17.66520 71.0
17.67020 76.0
17.67520 95.0
17.68020 86.0
17.68520 83.0
17.69020 72.0
17.69520 93.0
17.70020 77.0
17.70520 95.0
17.71020 88.0
17.71520 73.0
17.72020 71.0
17.72520 87.0
17.73020 84.0
17.73520 84.0
17.74020 79.0
17.74520 98.0
17.75020 100.0
17.75520 88.0
17.76020 83.0
17.76520 79.0
17.77020 95.0
17.77520 86.0
17.78020 84.0
17.78520 99.0
17.79020 91.0
17.79520 69.0
17.80020 90.0
17.80520 83.0
17.81020 78.0
17.81520 89.0
17.82020 74.0
17.82520 100.0
17.83020 102.0
17.83520 82.0
17.84020 77.0
17.84520 66.0
17.85020 103.0
17.85520 91.0
17.86020 99.0
17.86520 96.0
17.87020 75.0
17.87520 79.0
17.88020 76.0
17.88520 90.0
17.89020 91.0
17.89520 81.0
17.90020 93.0
17.90520 73.0
17.91020 79.0
17.91520 92.0
17.92020 78.0
17.92520 74.0
17.93020 85.0
17.93520 72.0
17.94020 88.0
17.94520 73.0
17.95020 75.0
17.95520 71.0
17.96020 89.0
17.96520 96.0
17.97020 80.0
17.97520 72.0
17.98020 86.0
17.98520 98.0
17.99020 81.0
17.99520 74.0
18.00020 89.0
18.00520 105.0
18.01020 91.0
18.01520 66.0
18.02020 69.0
18.02520 97.0
18.03020 82.0
18.03520 90.0
18.04020 74.0
18.04520 98.0
18.05020 80.0
18.05520 80.0
18.06020 72.0
18.06520 89.0
18.07020 93.0
18.07520 90.0
18.08020 85.0
18.08520 70.0
18.09020 84.0
18.09520 95.0
18.10020 106.0
18.10520 75.0
18.11020 77.0
18.11520 77.0
18.12020 81.0
18.12520 72.0
18.13020 98.0
18.13520 78.0
18.14020 94.0
18.14520 79.0
18.15020 72.0
18.15520 84.0
18.16020 96.0
18.16520 96.0
18.17020 79.0
18.17520 75.0
18.18020 81.0
18.18520 76.0
18.19020 78.0
18.19520 97.0
18.20020 97.0
18.20520 88.0
18.21020 76.0
18.21520 65.0
18.22020 81.0
18.22520 77.0
18.23020 83.0
18.23520 70.0
18.24020 84.0
18.24520 102.0
18.25020 88.0
18.25520 78.0
18.26020 81.0
18.26520 83.0
18.27020 80.0
18.27520 73.0
18.28020 88.0
18.28520 87.0
18.29020 51.0
18.29520 78.0
18.30020 79.0
18.30520 78.0
18.31020 81.0
18.31520 98.0
18.32020 94.0
18.32520 83.0
18.33020 80.0
18.33520 104.0
18.34020 100.0
18.34520 91.0
18.35020 96.0
18.35520 98.0
18.36020 95.0
18.36520 91.0
18.37020 66.0
18.37520 75.0
18.38020 73.0
18.38520 80.0
18.39020 107.0
18.39520 96.0
18.40020 98.0
18.40520 73.0
18.41020 85.0
18.41520 91.0
18.42020 73.0
18.42520 82.0
18.43020 94.0
18.43520 82.0
18.44020 75.0
18.44520 87.0
18.45020 84.0
18.45520 68.0
18.46020 95.0
18.46520 90.0
18.47020 89.0
18.47520 79.0
18.48020 75.0
18.48520 69.0
18.49020 80.0
18.49520 92.0
18.50020 87.0
18.50520 82.0
18.51020 100.0
18.51520 81.0
18.52020 72.0
18.52520 82.0
18.53020 80.0
18.53520 94.0
18.54020 78.0
18.54520 106.0
18.55020 96.0
18.55520 69.0
18.56020 85.0
18.56520 90.0
18.57020 100.0
18.57520 77.0
18.58020 110.0
18.58520 91.0
18.59020 100.0
18.59520 86.0
18.60020 95.0
18.60520 84.0
18.61020 103.0
18.61520 85.0
18.62020 87.0
18.62520 95.0
18.63020 84.0
18.63520 108.0
18.64020 92.0
18.64520 85.0
18.65020 90.0
18.65520 78.0
18.66020 105.0
18.66520 98.0
18.67020 104.0
18.67520 91.0
18.68020 88.0
18.68520 91.0
18.69020 99.0
18.69520 96.0
18.70020 92.0
18.70520 91.0
18.71020 97.0
18.71520 88.0
18.72020 84.0
18.72520 95.0
18.73020 104.0
18.73520 94.0
18.74020 87.0
18.74520 84.0
18.75020 99.0
18.75520 102.0
18.76020 93.0
18.76520 82.0
18.77020 94.0
18.77520 93.0
18.78020 107.0
18.78520 86.0
18.79020 112.0
18.79520 101.0
18.80020 104.0
18.80520 89.0
18.81020 103.0
18.81520 104.0
18.82020 95.0
18.82520 97.0
18.83020 114.0
18.83520 120.0
18.84020 96.0
18.84520 92.0
18.85020 107.0
18.85520 107.0
18.86020 106.0
18.86520 93.0
18.87020 93.0
18.87520 108.0
18.88020 100.0
18.88520 111.0
18.89020 93.0
18.89520 88.0
18.90020 110.0
18.90520 102.0
18.91020 135.0
18.91520 126.0
18.92020 105.0
18.92520 95.0
18.93020 107.0
18.93520 122.0
18.94020 108.0
18.94520 117.0
18.95020 131.0
18.95520 116.0
18.96020 119.0
18.96520 115.0
18.97020 100.0
18.97520 129.0
18.98020 116.0
18.98520 112.0
18.99020 103.0
18.99520 126.0
19.00020 144.0
19.00520 119.0
19.01020 136.0
19.01520 147.0
19.02020 117.0
19.02520 143.0
19.03020 142.0
19.03520 144.0
19.04020 125.0
19.04520 147.0
19.05020 146.0
19.05520 146.0
19.06020 148.0
19.06520 147.0
19.07020 169.0
19.07520 129.0
19.08020 146.0
19.08520 160.0
19.09020 159.0
19.09520 167.0
19.10020 180.0
19.10520 180.0
19.11020 177.0
19.11520 181.0
19.12020 196.0
19.12520 188.0
19.13020 193.0
19.13520 207.0
19.14020 200.0
19.14520 217.0
19.15020 223.0
19.15520 234.0
19.16020 173.0
19.16520 213.0
19.17020 215.0
19.17520 221.0
19.18020 217.0
19.18520 257.0
19.19020 239.0
19.19520 226.0
19.20020 278.0
19.20520 271.0
19.21020 282.0
19.21520 295.0
19.22020 275.0
19.22520 323.0
19.23020 337.0
19.23520 366.0
19.24020 400.0
19.24520 383.0
19.25020 379.0
19.25520 393.0
19.26020 434.0
19.26520 463.0
19.27020 529.0
19.27520 538.0
19.28020 563.0
19.28520 693.0
19.29020 768.0
19.29520 788.0
19.30020 899.0
19.30520 945.0
19.31020 881.0
19.31520 977.0
19.32020 1002.0
19.32520 1107.0
19.33020 1052.0
19.33520 1153.0
19.34020 1223.0
19.34520 1282.0
19.35020 1356.0
19.35520 1382.0
19.36020 1368.0
19.36520 1354.0
19.37020 1492.0
19.37520 1474.0
19.38020 1546.0
19.38520 1605.0
19.39020 1552.0
19.39520 1564.0
19.40020 1658.0
19.40520 1667.0
19.41020 1572.0
19.41520 1516.0
19.42020 1572.0
19.42520 1583.0
19.43020 1532.0
19.43520 1626.0
19.44020 1512.0
19.44520 1431.0
19.45020 1474.0
19.45520 1433.0
19.46020 1422.0
19.46520 1361.0
19.47020 1315.0
19.47520 1271.0
19.48020 1252.0
19.48520 1103.0
19.49020 1139.0
19.49520 1120.0
19.50020 1027.0
19.50520 1048.0
19.51020 1029.0
19.51520 951.0
19.52020 908.0
19.52520 872.0
19.53020 848.0
19.53520 844.0
19.54020 788.0
19.54520 688.0
19.55020 661.0
19.55520 548.0
19.56020 520.0
19.56520 459.0
19.57020 430.0
19.57520 404.0
19.58020 369.0
19.58520 394.0
19.59020 335.0
19.59520 372.0
19.60020 342.0
19.60520 321.0
19.61020 313.0
19.61520 319.0
19.62020 304.0
19.62520 272.0
19.63020 274.0
19.63520 309.0
19.64020 261.0
19.64520 266.0
19.65020 239.0
19.65520 258.0
19.66020 241.0
19.66520 228.0
19.67020 212.0
19.67520 192.0
19.68020 186.0
19.68520 182.0
19.69020 225.0
19.69520 196.0
19.70020 193.0
19.70520 161.0
19.71020 208.0
19.71520 161.0
19.72020 187.0
19.72520 147.0
19.73020 175.0
19.73520 162.0
19.74020 146.0
19.74520 155.0
19.75020 148.0
19.75520 149.0
19.76020 139.0
19.76520 153.0
19.77020 162.0
19.77520 142.0
19.78020 159.0
19.78520 142.0
19.79020 149.0
19.79520 135.0
19.80020 151.0
19.80520 119.0
19.81020 142.0
19.81520 119.0
19.82020 132.0
19.82520 130.0
19.83020 110.0
19.83520 118.0
19.84020 112.0
19.84520 143.0
19.85020 112.0
19.85520 107.0
19.86020 104.0
19.86520 109.0
19.87020 111.0
19.87520 118.0
19.88020 106.0
19.88520 121.0
19.89020 120.0
19.89520 114.0
19.90020 93.0
19.90520 101.0
19.91020 101.0
19.91520 106.0
19.92020 102.0
19.92520 104.0
19.93020 100.0
19.93520 95.0
19.94020 102.0
19.94520 104.0
19.95020 99.0
19.95520 84.0
19.96020 103.0
19.96520 103.0
19.97020 108.0
19.97520 87.0
19.98020 93.0
19.98520 101.0
19.99020 119.0
19.99520 77.0
20.00020 84.0
20.00520 94.0
20.01020 95.0
20.01520 90.0
20.02020 98.0
20.02520 86.0
20.03020 98.0
20.03520 105.0
20.04020 90.0
20.04520 85.0
20.05020 79.0
20.05520 83.0
20.06020 93.0
20.06520 91.0
20.07020 88.0
20.07520 77.0
20.08020 76.0
20.08520 90.0
20.09020 88.0
20.09520 90.0
20.10020 73.0
20.10520 90.0
20.11020 73.0
20.11520 82.0
20.12020 75.0
20.12520 77.0
20.13020 81.0
20.13520 67.0
20.14020 74.0
20.14520 87.0
20.15020 66.0
20.15520 89.0
20.16020 83.0
20.16520 97.0
20.17020 77.0
20.17520 73.0
20.18020 88.0
20.18520 63.0
20.19020 89.0
20.19520 73.0
20.20020 74.0
20.20520 70.0
20.21020 73.0
20.21520 83.0
20.22020 88.0
20.22520 86.0
20.23020 78.0
20.23520 83.0
20.24020 95.0
20.24520 101.0
20.25020 95.0
20.25520 91.0
20.26020 80.0
20.26520 80.0
20.27020 74.0
20.27520 83.0
20.28020 77.0
20.28520 61.0
20.29020 80.0
20.29520 71.0
20.30020 97.0
20.30520 71.0
20.31020 72.0
20.31520 80.0
20.32020 83.0
20.32520 74.0
20.33020 93.0
20.33520 82.0
20.34020 75.0
20.34520 73.0
20.35020 79.0
20.35520 80.0
20.36020 90.0
20.36520 72.0
20.37020 74.0
20.37520 74.0
20.38020 78.0
20.38520 88.0
20.39020 73.0
20.39520 73.0
20.40020 80.0
20.40520 78.0
20.41020 66.0
20.41520 89.0
20.42020 83.0
20.42520 88.0
20.43020 81.0
20.43520 84.0
20.44020 61.0
20.44520 77.0
20.45020 66.0
20.45520 68.0
20.46020 74.0
20.46520 78.0
20.47020 76.0
20.47520 79.0
20.48020 71.0
20.48520 67.0
20.49020 70.0
20.49520 61.0
20.50020 76.0
20.50520 84.0
20.51020 62.0
20.51520 86.0
20.52020 95.0
20.52520 61.0
20.53020 73.0
20.53520 60.0
20.54020 71.0
20.54520 71.0
20.55020 64.0
20.55520 95.0
20.56020 73.0
20.56520 59.0
20.57020 74.0
20.57520 64.0
20.58020 59.0
20.58520 82.0
20.59020 76.0
20.59520 67.0
20.60020 75.0
20.60520 77.0
20.61020 84.0
20.61520 78.0
20.62020 75.0
20.62520 67.0
20.63020 71.0
20.63520 61.0
20.64020 96.0
20.64520 72.0
20.65020 78.0
20.65520 83.0
20.66020 68.0
20.66520 61.0
20.67020 63.0
20.67520 79.0
20.68020 60.0
20.68520 64.0
20.69020 64.0
20.69520 73.0
20.70020 91.0
20.70520 71.0
20.71020 81.0
20.71520 91.0
20.72020 60.0
20.72520 79.0
20.73020 83.0
20.73520 64.0
20.74020 66.0
20.74520 72.0
20.75020 84.0
20.75520 67.0
20.76020 76.0
20.76520 73.0
20.77020 66.0
20.77520 66.0
20.78020 82.0
20.78520 75.0
20.79020 70.0
20.79520 64.0
20.80020 58.0
20.80520 83.0
20.81020 58.0
20.81520 78.0
20.82020 64.0
20.82520 64.0
20.83020 66.0
20.83520 58.0
20.84020 59.0
20.84520 75.0
20.85020 62.0
20.85520 71.0
20.86020 82.0
20.86520 60.0
20.87020 77.0
20.87520 71.0
20.88020 77.0
20.88520 69.0
20.89020 88.0
20.89520 68.0
20.90020 61.0
20.90520 88.0
20.91020 58.0
20.91520 74.0
20.92020 74.0
20.92520 73.0
20.93020 71.0
20.93520 68.0
20.94020 63.0
20.94520 76.0
20.95020 73.0
20.95520 80.0
20.96020 63.0
20.96520 71.0
20.97020 65.0
20.97520 67.0
20.98020 65.0
20.98520 63.0
20.99020 59.0
20.99520 77.0
21.00020 84.0
21.00520 54.0
21.01020 61.0
21.01520 76.0
21.02020 57.0
21.02520 70.0
21.03020 68.0
21.03520 79.0
21.04020 62.0
21.04520 85.0
21.05020 68.0
21.05520 64.0
21.06020 69.0
21.06520 63.0
21.07020 72.0
21.07520 71.0
21.08020 77.0
21.08520 70.0
21.09020 79.0
21.09520 85.0
21.10020 87.0
21.10520 63.0
21.11020 70.0
21.11520 78.0
21.12020 64.0
21.12520 71.0
21.13020 67.0
21.13520 80.0
21.14020 73.0
21.14520 56.0
21.15020 75.0
21.15520 71.0
21.16020 57.0
21.16520 74.0
21.17020 93.0
21.17520 82.0
21.18020 61.0
21.18520 59.0
21.19020 54.0
21.19520 62.0
21.20020 69.0
21.20520 87.0
21.21020 57.0
21.21520 63.0
21.22020 61.0
21.22520 74.0
21.23020 56.0
21.23520 88.0
21.24020 80.0
21.24520 63.0
21.25020 72.0
21.25520 77.0
21.26020 75.0
21.26520 85.0
21.27020 66.0
21.27520 65.0
21.28020 79.0
21.28520 85.0
21.29020 80.0
21.29520 75.0
21.30020 58.0
21.30520 70.0
21.31020 75.0
21.31520 68.0
21.32020 58.0
21.32520 65.0
21.33020 81.0
21.33520 57.0
21.34020 54.0
21.34520 65.0
21.35020 71.0
21.35520 68.0
21.36020 68.0
21.36520 66.0
21.37020 72.0
21.37520 85.0
21.38020 77.0
21.38520 60.0
21.39020 68.0