File: data/w6929m/XRD_Omega/film_m_can_omega_4deg_step_0.005deg0_C2.xy
29.92560 40.0
29.93060 33.0
29.93560 37.0
29.94060 36.0
29.94560 37.0
29.95060 31.0
29.95560 35.0
29.96060 37.0
29.96560 41.0
29.97060 36.0
29.97560 33.0
29.98060 44.0
29.98560 36.0
29.99060 31.0
29.99560 46.0
30.00060 42.0
30.00560 35.0
30.01060 35.0
30.01560 33.0
30.02060 39.0
30.02560 30.0
30.03060 33.0
30.03560 34.0
30.04060 42.0
30.04560 46.0
30.05060 42.0
30.05560 35.0
30.06060 28.0
30.06560 48.0
30.07060 41.0
30.07560 42.0
30.08060 35.0
30.08560 31.0
30.09060 39.0
30.09560 52.0
30.10060 43.0
30.10560 36.0
30.11060 34.0
30.11560 47.0
30.12060 42.0
30.12560 34.0
30.13060 35.0
30.13560 37.0
30.14060 29.0
30.14560 51.0
30.15060 38.0
30.15560 33.0
30.16060 42.0
30.16560 43.0
30.17060 29.0
30.17560 41.0
30.18060 38.0
30.18560 34.0
30.19060 45.0
30.19560 55.0
30.20060 40.0
30.20560 28.0
30.21060 32.0
30.21560 50.0
30.22060 51.0
30.22560 26.0
30.23060 36.0
30.23560 48.0
30.24060 43.0
30.24560 39.0
30.25060 53.0
30.25560 42.0
30.26060 39.0
30.26560 42.0
30.27060 37.0
30.27560 37.0
30.28060 50.0
30.28560 45.0
30.29060 28.0
30.29560 38.0
30.30060 47.0
30.30560 47.0
30.31060 41.0
30.31560 42.0
30.32060 37.0
30.32560 42.0
30.33060 43.0
30.33560 31.0
30.34060 50.0
30.34560 41.0
30.35060 48.0
30.35560 44.0
30.36060 40.0
30.36560 34.0
30.37060 28.0
30.37560 40.0
30.38060 44.0
30.38560 40.0
30.39060 39.0
30.39560 29.0
30.40060 43.0
30.40560 30.0
30.41060 30.0
30.41560 44.0
30.42060 41.0
30.42560 41.0
30.43060 45.0
30.43560 44.0
30.44060 46.0
30.44560 50.0
30.45060 48.0
30.45560 41.0
30.46060 42.0
30.46560 34.0
30.47060 44.0
30.47560 45.0
30.48060 52.0
30.48560 44.0
30.49060 41.0
30.49560 48.0
30.50060 46.0
30.50560 45.0
30.51060 42.0
30.51560 37.0
30.52060 43.0
30.52560 39.0
30.53060 38.0
30.53560 41.0
30.54060 48.0
30.54560 39.0
30.55060 54.0
30.55560 59.0
30.56060 42.0
30.56560 49.0
30.57060 32.0
30.57560 44.0
30.58060 53.0
30.58560 62.0
30.59060 49.0
30.59560 52.0
30.60060 44.0
30.60560 51.0
30.61060 51.0
30.61560 41.0
30.62060 51.0
30.62560 48.0
30.63060 63.0
30.63560 49.0
30.64060 56.0
30.64560 48.0
30.65060 44.0
30.65560 54.0
30.66060 61.0
30.66560 58.0
30.67060 38.0
30.67560 53.0
30.68060 45.0
30.68560 43.0
30.69060 54.0
30.69560 53.0
30.70060 56.0
30.70560 58.0
30.71060 48.0
30.71560 51.0
30.72060 55.0
30.72560 60.0
30.73060 48.0
30.73560 52.0
30.74060 55.0
30.74560 61.0
30.75060 47.0
30.75560 46.0
30.76060 59.0
30.76560 60.0
30.77060 38.0
30.77560 73.0
30.78060 57.0
30.78560 55.0
30.79060 45.0
30.79560 66.0
30.80060 60.0
30.80560 63.0
30.81060 59.0
30.81560 66.0
30.82060 68.0
30.82560 61.0
30.83060 51.0
30.83560 55.0
30.84060 56.0
30.84560 46.0
30.85060 73.0
30.85560 57.0
30.86060 50.0
30.86560 70.0
30.87060 76.0
30.87560 57.0
30.88060 70.0
30.88560 69.0
30.89060 63.0
30.89560 63.0
30.90060 55.0
30.90560 67.0
30.91060 72.0
30.91560 64.0
30.92060 65.0
30.92560 66.0
30.93060 72.0
30.93560 76.0
30.94060 79.0
30.94560 71.0
30.95060 64.0
30.95560 76.0
30.96060 70.0
30.96560 59.0
30.97060 82.0
30.97560 87.0
30.98060 66.0
30.98560 82.0
30.99060 69.0
30.99560 76.0
31.00060 93.0
31.00560 73.0
31.01060 70.0
31.01560 79.0
31.02060 86.0
31.02560 94.0
31.03060 76.0
31.03560 94.0
31.04060 91.0
31.04560 76.0
31.05060 87.0
31.05560 87.0
31.06060 88.0
31.06560 93.0
31.07060 111.0
31.07560 104.0
31.08060 96.0
31.08560 94.0
31.09060 105.0
31.09560 115.0
31.10060 113.0
31.10560 98.0
31.11060 116.0
31.11560 95.0
31.12060 107.0
31.12560 115.0
31.13060 119.0
31.13560 98.0
31.14060 128.0
31.14560 109.0
31.15060 130.0
31.15560 124.0
31.16060 156.0
31.16560 122.0
31.17060 114.0
31.17560 133.0
31.18060 155.0
31.18560 141.0
31.19060 143.0
31.19560 148.0
31.20060 143.0
31.20560 139.0
31.21060 164.0
31.21560 145.0
31.22060 132.0
31.22560 163.0
31.23060 178.0
31.23560 158.0
31.24060 166.0
31.24560 168.0
31.25060 202.0
31.25560 200.0
31.26060 166.0
31.26560 168.0
31.27060 216.0
31.27560 188.0
31.28060 207.0
31.28560 177.0
31.29060 196.0
31.29560 219.0
31.30060 238.0
31.30560 248.0
31.31060 247.0
31.31560 249.0
31.32060 237.0
31.32560 234.0
31.33060 218.0
31.33560 247.0
31.34060 259.0
31.34560 270.0
31.35060 274.0
31.35560 297.0
31.36060 279.0
31.36560 314.0
31.37060 341.0
31.37560 302.0
31.38060 298.0
31.38560 308.0
31.39060 335.0
31.39560 357.0
31.40060 348.0
31.40560 361.0
31.41060 424.0
31.41560 388.0
31.42060 417.0
31.42560 399.0
31.43060 403.0
31.43560 423.0
31.44060 419.0
31.44560 446.0
31.45060 438.0
31.45560 501.0
31.46060 458.0
31.46560 504.0
31.47060 455.0
31.47560 534.0
31.48060 540.0
31.48560 535.0
31.49060 545.0
31.49560 556.0
31.50060 615.0
31.50560 574.0
31.51060 636.0
31.51560 599.0
31.52060 609.0
31.52560 679.0
31.53060 671.0
31.53560 621.0
31.54060 704.0
31.54560 702.0
31.55060 719.0
31.55560 745.0
31.56060 751.0
31.56560 791.0
31.57060 809.0
31.57560 754.0
31.58060 780.0
31.58560 899.0
31.59060 833.0
31.59560 908.0
31.60060 881.0
31.60560 892.0
31.61060 915.0
31.61560 968.0
31.62060 996.0
31.62560 974.0
31.63060 991.0
31.63560 1011.0
31.64060 1083.0
31.64560 1097.0
31.65060 1052.0
31.65560 1114.0
31.66060 1132.0
31.66560 1177.0
31.67060 1184.0
31.67560 1191.0
31.68060 1221.0
31.68560 1215.0
31.69060 1234.0
31.69560 1217.0
31.70060 1324.0
31.70560 1259.0
31.71060 1278.0
31.71560 1322.0
31.72060 1293.0
31.72560 1285.0
31.73060 1397.0
31.73560 1402.0
31.74060 1462.0
31.74560 1344.0
31.75060 1434.0
31.75560 1430.0
31.76060 1431.0
31.76560 1480.0
31.77060 1464.0
31.77560 1532.0
31.78060 1483.0
31.78560 1521.0
31.79060 1542.0
31.79560 1589.0
31.80060 1601.0
31.80560 1536.0
31.81060 1560.0
31.81560 1628.0
31.82060 1592.0
31.82560 1632.0
31.83060 1609.0
31.83560 1603.0
31.84060 1629.0
31.84560 1625.0
31.85060 1624.0
31.85560 1628.0
31.86060 1641.0
31.86560 1634.0
31.87060 1660.0
31.87560 1614.0
31.88060 1586.0
31.88560 1624.0
31.89060 1598.0
31.89560 1701.0
31.90060 1701.0
31.90560 1602.0
31.91060 1622.0
31.91560 1619.0
31.92060 1675.0
31.92560 1656.0
31.93060 1645.0
31.93560 1606.0
31.94060 1655.0
31.94560 1641.0
31.95060 1650.0
31.95560 1679.0
31.96060 1642.0
31.96560 1659.0
31.97060 1510.0
31.97560 1613.0
31.98060 1638.0
31.98560 1569.0
31.99060 1628.0
31.99560 1586.0
32.00060 1611.0
32.00560 1674.0
32.01060 1713.0
32.01560 1592.0
32.02060 1602.0
32.02560 1546.0
32.03060 1584.0
32.03560 1568.0
32.04060 1624.0
32.04560 1575.0
32.05060 1475.0
32.05560 1565.0
32.06060 1537.0
32.06560 1483.0
32.07060 1480.0
32.07560 1441.0
32.08060 1475.0
32.08560 1395.0
32.09060 1500.0
32.09560 1401.0
32.10060 1392.0
32.10560 1314.0
32.11060 1342.0
32.11560 1287.0
32.12060 1332.0
32.12560 1338.0
32.13060 1297.0
32.13560 1259.0
32.14060 1256.0
32.14560 1278.0
32.15060 1300.0
32.15560 1273.0
32.16060 1261.0
32.16560 1246.0
32.17060 1248.0
32.17560 1259.0
32.18060 1159.0
32.18560 1247.0
32.19060 1144.0
32.19560 1097.0
32.20060 1105.0
32.20560 1193.0
32.21060 1115.0
32.21560 1058.0
32.22060 1044.0
32.22560 1011.0
32.23060 1091.0
32.23560 1050.0
32.24060 999.0
32.24560 1029.0
32.25060 963.0
32.25560 946.0
32.26060 983.0
32.26560 988.0
32.27060 908.0
32.27560 944.0
32.28060 878.0
32.28560 911.0
32.29060 849.0
32.29560 848.0
32.30060 907.0
32.30560 815.0
32.31060 877.0
32.31560 853.0
32.32060 828.0
32.32560 881.0
32.33060 783.0
32.33560 782.0
32.34060 758.0
32.34560 744.0
32.35060 669.0
32.35560 688.0
32.36060 704.0
32.36560 715.0
32.37060 675.0
32.37560 624.0
32.38060 695.0
32.38560 659.0
32.39060 638.0
32.39560 586.0
32.40060 605.0
32.40560 592.0
32.41060 587.0
32.41560 580.0
32.42060 581.0
32.42560 549.0
32.43060 494.0
32.43560 504.0
32.44060 528.0
32.44560 453.0
32.45060 457.0
32.45560 493.0
32.46060 472.0
32.46560 428.0
32.47060 448.0
32.47560 400.0
32.48060 423.0
32.48560 401.0
32.49060 430.0
32.49560 399.0
32.50060 361.0
32.50560 388.0
32.51060 376.0
32.51560 352.0
32.52060 371.0
32.52560 370.0
32.53060 326.0
32.53560 372.0
32.54060 342.0
32.54560 323.0
32.55060 314.0
32.55560 331.0
32.56060 323.0
32.56560 281.0
32.57060 279.0
32.57560 294.0
32.58060 274.0
32.58560 309.0
32.59060 275.0
32.59560 239.0
32.60060 255.0
32.60560 276.0
32.61060 259.0
32.61560 218.0
32.62060 227.0
32.62560 224.0
32.63060 230.0
32.63560 238.0
32.64060 239.0
32.64560 216.0
32.65060 203.0
32.65560 199.0
32.66060 214.0
32.66560 197.0
32.67060 181.0
32.67560 191.0
32.68060 182.0
32.68560 202.0
32.69060 197.0
32.69560 200.0
32.70060 173.0
32.70560 182.0
32.71060 182.0
32.71560 149.0
32.72060 152.0
32.72560 177.0
32.73060 180.0
32.73560 156.0
32.74060 153.0
32.74560 153.0
32.75060 163.0
32.75560 147.0
32.76060 158.0
32.76560 185.0
32.77060 163.0
32.77560 111.0
32.78060 126.0
32.78560 119.0
32.79060 128.0
32.79560 131.0
32.80060 144.0
32.80560 136.0
32.81060 125.0
32.81560 117.0
32.82060 107.0
32.82560 127.0
32.83060 145.0
32.83560 120.0
32.84060 117.0
32.84560 119.0
32.85060 122.0
32.85560 116.0
32.86060 95.0
32.86560 106.0
32.87060 102.0
32.87560 93.0
32.88060 97.0
32.88560 99.0
32.89060 101.0
32.89560 104.0
32.90060 100.0
32.90560 91.0
32.91060 91.0
32.91560 103.0
32.92060 96.0
32.92560 89.0
32.93060 102.0
32.93560 69.0
32.94060 93.0
32.94560 91.0
32.95060 95.0
32.95560 81.0
32.96060 91.0
32.96560 78.0
32.97060 97.0
32.97560 93.0
32.98060 94.0
32.98560 69.0
32.99060 64.0
32.99560 82.0
33.00060 72.0
33.00560 89.0
33.01060 66.0
33.01560 76.0
33.02060 76.0
33.02560 81.0
33.03060 70.0
33.03560 67.0
33.04060 68.0
33.04560 65.0
33.05060 68.0
33.05560 66.0
33.06060 64.0
33.06560 61.0
33.07060 68.0
33.07560 72.0
33.08060 65.0
33.08560 60.0
33.09060 69.0
33.09560 68.0
33.10060 70.0
33.10560 67.0
33.11060 57.0
33.11560 54.0
33.12060 66.0
33.12560 60.0
33.13060 52.0
33.13560 61.0
33.14060 58.0
33.14560 58.0
33.15060 69.0
33.15560 55.0
33.16060 66.0
33.16560 59.0
33.17060 64.0
33.17560 53.0
33.18060 44.0
33.18560 51.0
33.19060 61.0
33.19560 52.0
33.20060 63.0
33.20560 45.0
33.21060 57.0
33.21560 60.0
33.22060 52.0
33.22560 52.0
33.23060 50.0
33.23560 46.0
33.24060 51.0
33.24560 52.0
33.25060 57.0
33.25560 54.0
33.26060 41.0
33.26560 46.0
33.27060 53.0
33.27560 54.0
33.28060 44.0
33.28560 45.0
33.29060 35.0
33.29560 48.0
33.30060 34.0
33.30560 41.0
33.31060 72.0
33.31560 46.0
33.32060 45.0
33.32560 58.0
33.33060 50.0
33.33560 52.0
33.34060 50.0
33.34560 46.0
33.35060 35.0
33.35560 46.0
33.36060 40.0
33.36560 47.0
33.37060 56.0
33.37560 43.0
33.38060 53.0
33.38560 41.0
33.39060 54.0
33.39560 36.0
33.40060 46.0
33.40560 46.0
33.41060 33.0
33.41560 48.0
33.42060 50.0
33.42560 38.0
33.43060 42.0
33.43560 47.0
33.44060 39.0
33.44560 47.0
33.45060 42.0
33.45560 50.0
33.46060 48.0
33.46560 39.0
33.47060 38.0
33.47560 32.0
33.48060 42.0
33.48560 52.0
33.49060 56.0
33.49560 40.0
33.50060 31.0
33.50560 42.0
33.51060 38.0
33.51560 37.0
33.52060 59.0
33.52560 49.0
33.53060 50.0
33.53560 55.0
33.54060 40.0
33.54560 34.0
33.55060 44.0
33.55560 40.0
33.56060 50.0
33.56560 37.0
33.57060 32.0
33.57560 44.0
33.58060 43.0
33.58560 37.0
33.59060 42.0
33.59560 32.0
33.60060 43.0
33.60560 40.0
33.61060 36.0
33.61560 36.0
33.62060 40.0
33.62560 45.0
33.63060 31.0
33.63560 29.0
33.64060 33.0
33.64560 44.0
33.65060 41.0
33.65560 51.0
33.66060 32.0
33.66560 42.0
33.67060 26.0
33.67560 37.0
33.68060 31.0
33.68560 37.0
33.69060 43.0
33.69560 41.0
33.70060 28.0
33.70560 33.0
33.71060 36.0
33.71560 37.0
33.72060 30.0
33.72560 34.0
33.73060 41.0
33.73560 50.0
33.74060 37.0
33.74560 43.0
33.75060 42.0
33.75560 38.0
33.76060 44.0
33.76560 31.0
33.77060 35.0
33.77560 39.0
33.78060 39.0
33.78560 29.0
33.79060 30.0
33.79560 31.0
33.80060 46.0
33.80560 39.0
33.81060 28.0
33.81560 37.0
33.82060 36.0
33.82560 37.0
33.83060 38.0
33.83560 28.0
33.84060 30.0
33.84560 32.0
33.85060 37.0
33.85560 44.0
33.86060 47.0
33.86560 44.0
33.87060 33.0
33.87560 36.0
33.88060 37.0
33.88560 41.0