File: data/W6910a/XRD_2ThetaOmega/w6910a_scan_2th-om_a_Cr2O3_30-40deg_PIXscan_4min.xy
30.0025 108.0
30.0123 115.0
30.0222 108.0
30.032 107.0
30.0419 126.0
30.0517 117.0
30.0615 110.0
30.0714 135.0
30.0812 100.0
30.0911 102.0
30.1009 88.0
30.1108 114.0
30.1206 113.0
30.1305 111.0
30.1403 110.0
30.1502 118.0
30.16 107.0
30.1699 111.0
30.1797 96.0
30.1896 107.0
30.1994 85.0
30.2093 131.0
30.2191 111.0
30.229 100.0
30.2388 107.0
30.2487 104.0
30.2585 120.0
30.2684 106.0
30.2782 127.0
30.288 123.0
30.2979 100.0
30.3077 96.0
30.3176 126.0
30.3274 117.0
30.3373 108.0
30.3471 121.0
30.357 113.0
30.3668 98.0
30.3767 113.0
30.3865 116.0
30.3964 123.0
30.4062 136.0
30.4161 104.0
30.4259 104.0
30.4358 109.0
30.4456 121.0
30.4555 94.0
30.4653 103.0
30.4752 98.0
30.485 108.0
30.4948 109.0
30.5047 100.0
30.5145 111.0
30.5244 103.0
30.5342 110.0
30.5441 98.0
30.5539 109.0
30.5638 108.0
30.5736 111.0
30.5835 114.0
30.5933 94.0
30.6032 119.0
30.613 109.0
30.6229 130.0
30.6327 119.0
30.6426 133.0
30.6524 96.0
30.6623 128.0
30.6721 91.0
30.682 116.0
30.6918 113.0
30.7016 116.0
30.7115 110.0
30.7213 120.0
30.7312 122.0
30.741 103.0
30.7509 97.0
30.7607 105.0
30.7706 132.0
30.7804 112.0
30.7903 108.0
30.8001 111.0
30.81 115.0
30.8198 115.0
30.8297 108.0
30.8395 114.0
30.8494 106.0
30.8592 124.0
30.8691 87.0
30.8789 80.0
30.8888 109.0
30.8986 100.0
30.9085 123.0
30.9183 111.0
30.9281 114.0
30.938 110.0
30.9478 90.0
30.9577 112.0
30.9675 107.0
30.9774 106.0
30.9872 107.0
30.9971 131.0
31.0069 99.0
31.0168 113.0
31.0266 120.0
31.0365 101.0
31.0463 131.0
31.0562 98.0
31.066 114.0
31.0759 96.0
31.0857 111.0
31.0956 124.0
31.1054 89.0
31.1153 112.0
31.1251 110.0
31.1349 109.0
31.1448 96.0
31.1546 108.0
31.1645 102.0
31.1743 104.0
31.1842 108.0
31.194 115.0
31.2039 103.0
31.2137 107.0
31.2236 91.0
31.2334 121.0
31.2433 100.0
31.2531 98.0
31.263 104.0
31.2728 120.0
31.2827 113.0
31.2925 128.0
31.3024 119.0
31.3122 100.0
31.3221 107.0
31.3319 100.0
31.3418 108.0
31.3516 105.0
31.3614 112.0
31.3713 124.0
31.3811 98.0
31.391 121.0
31.4008 100.0
31.4107 111.0
31.4205 111.0
31.4304 119.0
31.4402 106.0
31.4501 120.0
31.4599 99.0
31.4698 104.0
31.4796 117.0
31.4895 105.0
31.4993 121.0
31.5092 105.0
31.519 108.0
31.5289 118.0
31.5387 98.0
31.5486 107.0
31.5584 114.0
31.5682 119.0
31.5781 112.0
31.5879 106.0
31.5978 120.0
31.6076 134.0
31.6175 99.0
31.6273 106.0
31.6372 100.0
31.647 100.0
31.6569 115.0
31.6667 128.0
31.6766 95.0
31.6864 102.0
31.6963 117.0
31.7061 114.0
31.716 131.0
31.7258 123.0
31.7357 110.0
31.7455 115.0
31.7554 116.0
31.7652 115.0
31.7751 114.0
31.7849 106.0
31.7947 112.0
31.8046 125.0
31.8144 121.0
31.8243 110.0
31.8341 116.0
31.844 117.0
31.8538 113.0
31.8637 107.0
31.8735 108.0
31.8834 119.0
31.8932 143.0
31.9031 112.0
31.9129 116.0
31.9228 115.0
31.9326 118.0
31.9425 116.0
31.9523 142.0
31.9622 124.0
31.972 125.0
31.9819 141.0
31.9917 145.0
32.0015 165.0
32.0114 171.0
32.0212 148.0
32.0311 168.0
32.0409 180.0
32.0508 230.0
32.0606 198.0
32.0705 258.0
32.0803 230.0
32.0902 256.0
32.1 266.0
32.1099 262.0
32.1197 274.0
32.1296 283.0
32.1394 247.0
32.1493 228.0
32.1591 229.0
32.169 200.0
32.1788 159.0
32.1887 167.0
32.1985 178.0
32.2083 155.0
32.2182 155.0
32.228 147.0
32.2379 146.0
32.2477 132.0
32.2576 152.0
32.2674 154.0
32.2773 157.0
32.2871 136.0
32.297 131.0
32.3068 130.0
32.3167 127.0
32.3265 115.0
32.3364 124.0
32.3462 130.0
32.3561 134.0
32.3659 124.0
32.3758 116.0
32.3856 133.0
32.3955 113.0
32.4053 126.0
32.4152 102.0
32.425 91.0
32.4348 114.0
32.4447 114.0
32.4545 102.0
32.4644 129.0
32.4742 118.0
32.4841 109.0
32.4939 122.0
32.5038 116.0
32.5136 109.0
32.5235 129.0
32.5333 119.0
32.5432 135.0
32.553 108.0
32.5629 93.0
32.5727 134.0
32.5826 127.0
32.5924 118.0
32.6023 115.0
32.6121 114.0
32.622 120.0
32.6318 129.0
32.6416 115.0
32.6515 125.0
32.6613 124.0
32.6712 108.0
32.681 121.0
32.6909 101.0
32.7007 125.0
32.7106 132.0
32.7204 117.0
32.7303 119.0
32.7401 116.0
32.75 120.0
32.7598 121.0
32.7697 112.0
32.7795 116.0
32.7894 111.0
32.7992 112.0
32.8091 132.0
32.8189 109.0
32.8288 121.0
32.8386 116.0
32.8485 115.0
32.8583 97.0
32.8681 126.0
32.878 98.0
32.8878 113.0
32.8977 109.0
32.9075 108.0
32.9174 107.0
32.9272 91.0
32.9371 123.0
32.9469 138.0
32.9568 118.0
32.9666 130.0
32.9765 117.0
32.9863 104.0
32.9962 132.0
33.006 110.0
33.0159 122.0
33.0257 107.0
33.0356 105.0
33.0454 121.0
33.0553 129.0
33.0651 103.0
33.0749 135.0
33.0848 119.0
33.0946 100.0
33.1045 124.0
33.1143 127.0
33.1242 124.0
33.134 122.0
33.1439 121.0
33.1537 114.0
33.1636 128.0
33.1734 131.0
33.1833 109.0
33.1931 131.0
33.203 124.0
33.2128 134.0
33.2227 107.0
33.2325 120.0
33.2424 124.0
33.2522 120.0
33.2621 121.0
33.2719 115.0
33.2818 121.0
33.2916 103.0
33.3014 103.0
33.3113 105.0
33.3211 125.0
33.331 110.0
33.3408 118.0
33.3507 102.0
33.3605 131.0
33.3704 111.0
33.3802 117.0
33.3901 113.0
33.3999 109.0
33.4098 118.0
33.4196 115.0
33.4295 119.0
33.4393 126.0
33.4492 115.0
33.459 125.0
33.4689 120.0
33.4787 115.0
33.4886 114.0
33.4984 118.0
33.5082 125.0
33.5181 116.0
33.5279 127.0
33.5378 154.0
33.5476 118.0
33.5575 115.0
33.5673 108.0
33.5772 119.0
33.587 134.0
33.5969 128.0
33.6067 130.0
33.6166 100.0
33.6264 131.0
33.6363 129.0
33.6461 134.0
33.656 116.0
33.6658 134.0
33.6757 142.0
33.6855 130.0
33.6954 139.0
33.7052 141.0
33.715 145.0
33.7249 121.0
33.7347 131.0
33.7446 141.0
33.7544 143.0
33.7643 144.0
33.7741 129.0
33.784 126.0
33.7938 133.0
33.8037 115.0
33.8135 143.0
33.8234 155.0
33.8332 148.0
33.8431 141.0
33.8529 131.0
33.8628 169.0
33.8726 180.0
33.8825 171.0
33.8923 165.0
33.9022 203.0
33.912 296.0
33.9219 410.0
33.9317 641.0
33.9415 918.0
33.9514 1127.0
33.9612 1310.0
33.9711 1272.0
33.9809 1170.0
33.9908 971.0
34.0006 651.0
34.0105 453.0
34.0203 389.0
34.0302 272.0
34.04 266.0
34.0499 200.0
34.0597 194.0
34.0696 220.0
34.0794 192.0
34.0893 160.0
34.0991 198.0
34.109 190.0
34.1188 191.0
34.1287 178.0
34.1385 164.0
34.1483 158.0
34.1582 172.0
34.168 176.0
34.1779 163.0
34.1877 155.0
34.1976 165.0
34.2074 174.0
34.2173 174.0
34.2271 170.0
34.237 169.0
34.2468 161.0
34.2567 171.0
34.2665 173.0
34.2764 169.0
34.2862 168.0
34.2961 189.0
34.3059 173.0
34.3158 163.0
34.3256 181.0
34.3355 165.0
34.3453 170.0
34.3552 175.0
34.365 205.0
34.3748 168.0
34.3847 154.0
34.3945 172.0
34.4044 185.0
34.4142 193.0
34.4241 191.0
34.4339 192.0
34.4438 179.0
34.4536 160.0
34.4635 198.0
34.4733 192.0
34.4832 180.0
34.493 201.0
34.5029 209.0
34.5127 189.0
34.5226 212.0
34.5324 176.0
34.5423 200.0
34.5521 181.0
34.562 218.0
34.5718 203.0
34.5816 202.0
34.5915 210.0
34.6013 229.0
34.6112 203.0
34.621 226.0
34.6309 236.0
34.6407 200.0
34.6506 226.0
34.6604 244.0
34.6703 240.0
34.6801 275.0
34.69 229.0
34.6998 261.0
34.7097 260.0
34.7195 228.0
34.7294 255.0
34.7392 229.0
34.7491 231.0
34.7589 228.0
34.7688 264.0
34.7786 295.0
34.7884 309.0
34.7983 304.0
34.8081 259.0
34.818 300.0
34.8278 290.0
34.8377 300.0
34.8475 319.0
34.8574 308.0
34.8672 285.0
34.8771 307.0
34.8869 331.0
34.8968 322.0
34.9066 356.0
34.9165 362.0
34.9263 336.0
34.9362 373.0
34.946 357.0
34.9559 364.0
34.9657 372.0
34.9756 385.0
34.9854 368.0
34.9953 376.0
35.0051 401.0
35.0149 418.0
35.0248 457.0
35.0346 423.0
35.0445 444.0
35.0543 450.0
35.0642 458.0
35.074 482.0
35.0839 495.0
35.0937 474.0
35.1036 502.0
35.1134 493.0
35.1233 573.0
35.1331 515.0
35.143 558.0
35.1528 568.0
35.1627 600.0
35.1725 631.0
35.1824 660.0
35.1922 645.0
35.2021 682.0
35.2119 703.0
35.2217 756.0
35.2316 709.0
35.2414 753.0
35.2513 795.0
35.2611 874.0
35.271 893.0
35.2808 913.0
35.2907 959.0
35.3005 1019.0
35.3104 1098.0
35.3202 1089.0
35.3301 1176.0
35.3399 1228.0
35.3498 1386.0
35.3596 1482.0
35.3695 1538.0
35.3793 1766.0
35.3892 1873.0
35.399 2023.0
35.4089 2274.0
35.4187 2485.0
35.4286 2739.0
35.4384 3004.0
35.4482 3386.0
35.4581 3885.0
35.4679 4167.0
35.4778 4781.0
35.4876 5366.0
35.4975 6389.0
35.5073 7250.0
35.5172 8380.0
35.527 9872.0
35.5369 11496.0
35.5467 13472.0
35.5566 16430.0
35.5664 19086.0
35.5763 22339.0
35.5861 25923.0
35.596 30011.0
35.6058 34391.0
35.6157 37744.0
35.6255 41428.0
35.6354 44208.0
35.6452 45391.0
35.655 46201.0
35.6649 46104.0
35.6747 44143.0
35.6846 42981.0
35.6944 41241.0
35.7043 39184.0
35.7141 37556.0
35.724 35751.0
35.7338 33520.0
35.7437 31658.0
35.7535 28717.0
35.7634 25987.0
35.7732 23446.0
35.7831 20309.0
35.7929 17997.0
35.8028 15764.0
35.8126 13670.0
35.8225 11717.0
35.8323 10335.0
35.8422 8847.0
35.852 7935.0
35.8619 7031.0
35.8717 6321.0
35.8815 5662.0
35.8914 5257.0
35.9012 4470.0
35.9111 4284.0
35.9209 3872.0
35.9308 3547.0
35.9406 3447.0
35.9505 3201.0
35.9603 2898.0
35.9702 2808.0
35.98 2625.0
35.9899 2414.0
35.9997 2383.0
36.0096 2235.0
36.0194 2061.0
36.0293 1971.0
36.0391 1925.0
36.049 1843.0
36.0588 1771.0
36.0687 1642.0
36.0785 1543.0
36.0883 1590.0
36.0982 1520.0
36.108 1430.0
36.1179 1376.0
36.1277 1321.0
36.1376 1282.0
36.1474 1245.0
36.1573 1106.0
36.1671 1108.0
36.177 1100.0
36.1868 1023.0
36.1967 1082.0
36.2065 956.0
36.2164 994.0
36.2262 1010.0
36.2361 936.0
36.2459 907.0
36.2558 781.0
36.2656 865.0
36.2755 832.0
36.2853 745.0
36.2951 761.0
36.305 717.0
36.3148 728.0
36.3247 666.0
36.3345 646.0
36.3444 647.0
36.3542 641.0
36.3641 665.0
36.3739 634.0
36.3838 623.0
36.3936 588.0
36.4035 568.0
36.4133 562.0
36.4232 498.0
36.433 501.0
36.4429 498.0
36.4527 531.0
36.4626 551.0
36.4724 497.0
36.4823 528.0
36.4921 488.0
36.502 454.0
36.5118 455.0
36.5216 463.0
36.5315 471.0
36.5413 478.0
36.5512 456.0
36.561 446.0
36.5709 432.0
36.5807 369.0
36.5906 418.0
36.6004 417.0
36.6103 424.0
36.6201 416.0
36.63 445.0
36.6398 416.0
36.6497 425.0
36.6595 403.0
36.6694 418.0
36.6792 395.0
36.6891 425.0
36.6989 423.0
36.7088 407.0
36.7186 387.0
36.7284 406.0
36.7383 387.0
36.7481 423.0
36.758 396.0
36.7678 405.0
36.7777 418.0
36.7875 430.0
36.7974 429.0
36.8072 426.0
36.8171 442.0
36.8269 459.0
36.8368 438.0
36.8466 427.0
36.8565 399.0
36.8663 462.0
36.8762 455.0
36.886 444.0
36.8959 467.0
36.9057 450.0
36.9156 469.0
36.9254 465.0
36.9353 472.0
36.9451 450.0
36.9549 514.0
36.9648 512.0
36.9746 477.0
36.9845 493.0
36.9943 534.0
37.0042 514.0
37.014 504.0
37.0239 513.0
37.0337 516.0
37.0436 504.0
37.0534 562.0
37.0633 555.0
37.0731 551.0
37.083 580.0
37.0928 579.0
37.1027 608.0
37.1125 592.0
37.1224 563.0
37.1322 598.0
37.1421 619.0
37.1519 545.0
37.1617 639.0
37.1716 629.0
37.1814 642.0
37.1913 646.0
37.2011 672.0
37.211 659.0
37.2208 705.0
37.2307 707.0
37.2405 688.0
37.2504 725.0
37.2602 761.0
37.2701 737.0
37.2799 824.0
37.2898 795.0
37.2996 842.0
37.3095 892.0
37.3193 913.0
37.3292 910.0
37.339 918.0
37.3489 948.0
37.3587 970.0
37.3686 991.0
37.3784 1051.0
37.3882 1039.0
37.3981 1141.0
37.4079 1147.0
37.4178 1207.0
37.4276 1269.0
37.4375 1265.0
37.4473 1289.0
37.4572 1401.0
37.467 1483.0
37.4769 1602.0
37.4867 1873.0
37.4966 2046.0
37.5064 2381.0
37.5163 2756.0
37.5261 3385.0
37.536 3917.0
37.5458 4287.0
37.5557 4704.0
37.5655 4836.0
37.5754 5030.0
37.5852 4900.0
37.595 4989.0
37.6049 5206.0
37.6147 5595.0
37.6246 6439.0
37.6344 7620.0
37.6443 9765.0
37.6541 13139.0
37.664 19037.0
37.6738 31790.0
37.6837 70532.0
37.6935 180477.0
37.7034 274599.0
37.7132 309328.0
37.7231 321970.0
37.7329 317073.0
37.7428 275176.0
37.7526 155216.0
37.7625 70365.0
37.7723 46008.0
37.7822 57186.0
37.792 104973.0
37.8018 146911.0
37.8117 160998.0
37.8215 163889.0
37.8314 157793.0
37.8412 130377.0
37.8511 73460.0
37.8609 33001.0
37.8708 17486.0
37.8806 11291.0
37.8905 8200.0
37.9003 6359.0
37.9102 5330.0
37.92 4521.0
37.9299 4019.0
37.9397 3488.0
37.9496 3249.0
37.9594 2888.0
37.9693 2476.0
37.9791 2360.0
37.989 2155.0
37.9988 1995.0
38.0087 1996.0
38.0185 1742.0
38.0283 1607.0
38.0382 1576.0
38.048 1469.0
38.0579 1417.0
38.0677 1328.0
38.0776 1367.0
38.0874 1203.0
38.0973 1193.0
38.1071 1143.0
38.117 1115.0
38.1268 1023.0
38.1367 1053.0
38.1465 958.0
38.1564 954.0
38.1662 898.0
38.1761 881.0
38.1859 854.0
38.1958 826.0
38.2056 792.0
38.2155 708.0
38.2253 766.0
38.2351 720.0
38.245 732.0
38.2548 620.0
38.2647 626.0
38.2745 566.0
38.2844 617.0
38.2942 586.0
38.3041 513.0
38.3139 549.0
38.3238 534.0
38.3336 506.0
38.3435 461.0
38.3533 485.0
38.3632 458.0
38.373 471.0
38.3829 460.0
38.3927 422.0
38.4026 415.0
38.4124 403.0
38.4223 398.0
38.4321 374.0
38.442 404.0
38.4518 355.0
38.4616 325.0
38.4715 337.0
38.4813 336.0
38.4912 327.0
38.501 357.0
38.5109 299.0
38.5207 299.0
38.5306 305.0
38.5404 280.0
38.5503 291.0
38.5601 284.0
38.57 283.0
38.5798 287.0
38.5897 300.0
38.5995 279.0
38.6094 299.0
38.6192 228.0
38.6291 266.0
38.6389 282.0
38.6488 216.0
38.6586 225.0
38.6684 232.0
38.6783 223.0
38.6881 211.0
38.698 213.0
38.7078 220.0
38.7177 200.0
38.7275 210.0
38.7374 226.0
38.7472 219.0
38.7571 213.0
38.7669 193.0
38.7768 208.0
38.7866 206.0
38.7965 205.0
38.8063 198.0
38.8162 184.0
38.826 202.0
38.8359 164.0
38.8457 196.0
38.8556 173.0
38.8654 199.0
38.8753 196.0
38.8851 165.0
38.8949 161.0
38.9048 150.0
38.9146 200.0
38.9245 165.0
38.9343 157.0
38.9442 170.0
38.954 165.0
38.9639 163.0
38.9737 177.0
38.9836 173.0
38.9934 152.0
39.0033 183.0
39.0131 196.0
39.023 166.0
39.0328 169.0
39.0427 164.0
39.0525 146.0
39.0624 156.0
39.0722 156.0
39.0821 147.0
39.0919 200.0
39.1017 175.0
39.1116 136.0
39.1214 153.0
39.1313 155.0
39.1411 154.0
39.151 137.0
39.1608 158.0
39.1707 158.0
39.1805 134.0
39.1904 156.0
39.2002 156.0
39.2101 171.0
39.2199 144.0
39.2298 141.0
39.2396 158.0
39.2495 146.0
39.2593 138.0
39.2692 145.0
39.279 141.0
39.2889 134.0
39.2987 146.0
39.3085 143.0
39.3184 133.0
39.3282 151.0
39.3381 146.0
39.3479 134.0
39.3578 143.0
39.3676 127.0
39.3775 134.0
39.3873 140.0
39.3972 127.0
39.407 163.0
39.4169 143.0
39.4267 156.0
39.4366 155.0
39.4464 159.0
39.4563 125.0
39.4661 156.0
39.476 150.0
39.4858 126.0
39.4957 152.0
39.5055 153.0
39.5154 154.0
39.5252 123.0
39.535 128.0
39.5449 145.0
39.5547 142.0
39.5646 125.0
39.5744 123.0
39.5843 126.0
39.5941 121.0
39.604 132.0
39.6138 157.0
39.6237 131.0
39.6335 157.0
39.6434 143.0
39.6532 123.0
39.6631 125.0
39.6729 161.0
39.6828 138.0
39.6926 152.0
39.7025 143.0
39.7123 128.0
39.7222 137.0
39.732 130.0
39.7418 113.0
39.7517 150.0
39.7615 128.0
39.7714 146.0
39.7812 119.0
39.7911 147.0
39.8009 160.0
39.8108 124.0
39.8206 141.0
39.8305 134.0
39.8403 123.0
39.8502 111.0
39.86 136.0
39.8699 134.0
39.8797 125.0
39.8896 114.0
39.8994 110.0
39.9093 125.0
39.9191 114.0
39.929 136.0
39.9388 122.0
39.9487 136.0
39.9585 139.0
39.9683 139.0
39.9782 112.0
39.988 133.0
39.9979 135.0