File: data/W6854c/XRD_Omega/W6854c_Cr2O3_scan_omega_2deg_step_0.002deg0_20.xy
18.82260 806.0
18.82460 878.0
18.82660 820.0
18.82860 851.0
18.83060 889.0
18.83260 882.0
18.83460 861.0
18.83660 908.0
18.83860 866.0
18.84060 887.0
18.84260 900.0
18.84460 897.0
18.84660 933.0
18.84860 914.0
18.85060 959.0
18.85260 895.0
18.85460 879.0
18.85660 945.0
18.85860 902.0
18.86060 912.0
18.86260 934.0
18.86460 914.0
18.86660 932.0
18.86860 922.0
18.87060 933.0
18.87260 921.0
18.87460 973.0
18.87660 1034.0
18.87860 974.0
18.88060 1011.0
18.88260 920.0
18.88460 952.0
18.88660 930.0
18.88860 981.0
18.89060 934.0
18.89260 961.0
18.89460 925.0
18.89660 1015.0
18.89860 962.0
18.90060 994.0
18.90260 964.0
18.90460 977.0
18.90660 1028.0
18.90860 945.0
18.91060 1032.0
18.91260 1053.0
18.91460 1034.0
18.91660 948.0
18.91860 950.0
18.92060 986.0
18.92260 996.0
18.92460 986.0
18.92660 993.0
18.92860 1078.0
18.93060 998.0
18.93260 1015.0
18.93460 1029.0
18.93660 1056.0
18.93860 1039.0
18.94060 998.0
18.94260 1066.0
18.94460 1078.0
18.94660 1102.0
18.94860 1019.0
18.95060 1055.0
18.95260 1064.0
18.95460 1098.0
18.95660 1074.0
18.95860 1089.0
18.96060 1059.0
18.96260 1090.0
18.96460 1197.0
18.96660 1176.0
18.96860 1108.0
18.97060 1088.0
18.97260 1126.0
18.97460 1178.0
18.97660 1122.0
18.97860 1087.0
18.98060 1118.0
18.98260 1089.0
18.98460 1103.0
18.98660 1110.0
18.98860 1159.0
18.99060 1201.0
18.99260 1196.0
18.99460 1183.0
18.99660 1162.0
18.99860 1209.0
19.00060 1161.0
19.00260 1154.0
19.00460 1189.0
19.00660 1191.0
19.00860 1213.0
19.01060 1207.0
19.01260 1250.0
19.01460 1188.0
19.01660 1191.0
19.01860 1232.0
19.02060 1211.0
19.02260 1249.0
19.02460 1189.0
19.02660 1254.0
19.02860 1199.0
19.03060 1315.0
19.03260 1224.0
19.03460 1296.0
19.03660 1287.0
19.03860 1350.0
19.04060 1290.0
19.04260 1331.0
19.04460 1301.0
19.04660 1309.0
19.04860 1320.0
19.05060 1283.0
19.05260 1367.0
19.05460 1324.0
19.05660 1303.0
19.05860 1303.0
19.06060 1334.0
19.06260 1380.0
19.06460 1402.0
19.06660 1379.0
19.06860 1355.0
19.07060 1400.0
19.07260 1325.0
19.07460 1359.0
19.07660 1425.0
19.07860 1368.0
19.08060 1492.0
19.08260 1395.0
19.08460 1397.0
19.08660 1418.0
19.08860 1365.0
19.09060 1475.0
19.09260 1469.0
19.09460 1449.0
19.09660 1580.0
19.09860 1549.0
19.10060 1538.0
19.10260 1439.0
19.10460 1475.0
19.10660 1489.0
19.10860 1490.0
19.11060 1500.0
19.11260 1546.0
19.11460 1535.0
19.11660 1562.0
19.11860 1519.0
19.12060 1512.0
19.12260 1618.0
19.12460 1530.0
19.12660 1623.0
19.12860 1619.0
19.13060 1570.0
19.13260 1650.0
19.13460 1596.0
19.13660 1617.0
19.13860 1595.0
19.14060 1724.0
19.14260 1605.0
19.14460 1668.0
19.14660 1652.0
19.14860 1677.0
19.15060 1690.0
19.15260 1698.0
19.15460 1717.0
19.15660 1769.0
19.15860 1698.0
19.16060 1705.0
19.16260 1673.0
19.16460 1685.0
19.16660 1784.0
19.16860 1693.0
19.17060 1722.0
19.17260 1776.0
19.17460 1708.0
19.17660 1799.0
19.17860 1727.0
19.18060 1788.0
19.18260 1822.0
19.18460 1829.0
19.18660 1849.0
19.18860 1851.0
19.19060 1883.0
19.19260 1829.0
19.19460 1853.0
19.19660 1769.0
19.19860 2029.0
19.20060 1910.0
19.20260 1836.0
19.20460 1947.0
19.20660 1965.0
19.20860 1913.0
19.21060 1925.0
19.21260 1908.0
19.21460 1937.0
19.21660 1923.0
19.21860 1980.0
19.22060 2003.0
19.22260 2084.0
19.22460 2088.0
19.22660 2080.0
19.22860 2024.0
19.23060 2112.0
19.23260 2087.0
19.23460 2122.0
19.23660 2108.0
19.23860 2135.0
19.24060 2120.0
19.24260 2043.0
19.24460 2143.0
19.24660 2135.0
19.24860 2116.0
19.25060 2112.0
19.25260 2129.0
19.25460 2145.0
19.25660 2224.0
19.25860 2130.0
19.26060 2255.0
19.26260 2312.0
19.26460 2158.0
19.26660 2195.0
19.26860 2258.0
19.27060 2241.0
19.27260 2324.0
19.27460 2356.0
19.27660 2232.0
19.27860 2311.0
19.28060 2248.0
19.28260 2322.0
19.28460 2421.0
19.28660 2239.0
19.28860 2299.0
19.29060 2407.0
19.29260 2363.0
19.29460 2445.0
19.29660 2301.0
19.29860 2566.0
19.30060 2467.0
19.30260 2477.0
19.30460 2610.0
19.30660 2515.0
19.30860 2518.0
19.31060 2529.0
19.31260 2540.0
19.31460 2622.0
19.31660 2547.0
19.31860 2743.0
19.32060 2589.0
19.32260 2625.0
19.32460 2603.0
19.32660 2631.0
19.32860 2637.0
19.33060 2643.0
19.33260 2727.0
19.33460 2704.0
19.33660 2749.0
19.33860 2696.0
19.34060 2822.0
19.34260 2809.0
19.34460 2704.0
19.34660 2940.0
19.34860 2822.0
19.35060 2857.0
19.35260 2802.0
19.35460 2873.0
19.35660 2917.0
19.35860 2889.0
19.36060 2889.0
19.36260 3036.0
19.36460 2974.0
19.36660 3002.0
19.36860 2918.0
19.37060 2930.0
19.37260 3091.0
19.37460 3009.0
19.37660 3100.0
19.37860 3028.0
19.38060 2984.0
19.38260 2981.0
19.38460 3182.0
19.38660 3089.0
19.38860 3072.0
19.39060 3161.0
19.39260 3278.0
19.39460 3135.0
19.39660 3165.0
19.39860 3188.0
19.40060 3118.0
19.40260 3274.0
19.40460 3200.0
19.40660 3233.0
19.40860 3343.0
19.41060 3384.0
19.41260 3322.0
19.41460 3427.0
19.41660 3319.0
19.41860 3401.0
19.42060 3334.0
19.42260 3457.0
19.42460 3468.0
19.42660 3459.0
19.42860 3499.0
19.43060 3487.0
19.43260 3437.0
19.43460 3616.0
19.43660 3563.0
19.43860 3622.0
19.44060 3559.0
19.44260 3683.0
19.44460 3711.0
19.44660 3696.0
19.44860 3761.0
19.45060 3688.0
19.45260 3683.0
19.45460 3638.0
19.45660 3850.0
19.45860 3787.0
19.46060 3885.0
19.46260 3759.0
19.46460 3842.0
19.46660 3900.0
19.46860 3866.0
19.47060 3869.0
19.47260 3838.0
19.47460 3949.0
19.47660 4057.0
19.47860 3966.0
19.48060 3970.0
19.48260 4141.0
19.48460 4018.0
19.48660 3978.0
19.48860 3986.0
19.49060 4206.0
19.49260 4162.0
19.49460 4173.0
19.49660 4315.0
19.49860 4104.0
19.50060 4290.0
19.50260 4271.0
19.50460 4245.0
19.50660 4225.0
19.50860 4305.0
19.51060 4211.0
19.51260 4296.0
19.51460 4192.0
19.51660 4389.0
19.51860 4270.0
19.52060 4332.0
19.52260 4500.0
19.52460 4593.0
19.52660 4432.0
19.52860 4440.0
19.53060 4412.0
19.53260 4480.0
19.53460 4565.0
19.53660 4552.0
19.53860 4588.0
19.54060 4556.0
19.54260 4448.0
19.54460 4670.0
19.54660 4727.0
19.54860 4613.0
19.55060 4651.0
19.55260 4664.0
19.55460 4828.0
19.55660 4711.0
19.55860 4739.0
19.56060 4755.0
19.56260 4637.0
19.56460 4787.0
19.56660 4741.0
19.56860 4838.0
19.57060 4900.0
19.57260 4960.0
19.57460 5019.0
19.57660 4968.0
19.57860 4981.0
19.58060 5017.0
19.58260 5095.0
19.58460 5161.0
19.58660 5006.0
19.58860 5134.0
19.59060 5110.0
19.59260 4959.0
19.59460 5157.0
19.59660 5176.0
19.59860 5210.0
19.60060 5030.0
19.60260 5200.0
19.60460 5268.0
19.60660 5266.0
19.60860 5220.0
19.61060 5331.0
19.61260 5387.0
19.61460 5298.0
19.61660 5390.0
19.61860 5544.0
19.62060 5388.0
19.62260 5490.0
19.62460 5403.0
19.62660 5367.0
19.62860 5428.0
19.63060 5514.0
19.63260 5538.0
19.63460 5451.0
19.63660 5501.0
19.63860 5579.0
19.64060 5504.0
19.64260 5645.0
19.64460 5664.0
19.64660 5552.0
19.64860 5548.0
19.65060 5721.0
19.65260 5616.0
19.65460 5678.0
19.65660 5815.0
19.65860 5846.0
19.66060 5821.0
19.66260 5726.0
19.66460 5791.0
19.66660 5822.0
19.66860 5661.0
19.67060 5620.0
19.67260 5939.0
19.67460 5766.0
19.67660 5974.0
19.67860 5983.0
19.68060 5908.0
19.68260 5951.0
19.68460 6016.0
19.68660 5989.0
19.68860 6151.0
19.69060 5960.0
19.69260 6090.0
19.69460 6123.0
19.69660 6207.0
19.69860 6102.0
19.70060 6134.0
19.70260 6000.0
19.70460 6142.0
19.70660 6270.0
19.70860 6349.0
19.71060 6250.0
19.71260 6253.0
19.71460 6168.0
19.71660 6176.0
19.71860 6179.0
19.72060 6277.0
19.72260 6302.0
19.72460 6163.0
19.72660 6049.0
19.72860 6252.0
19.73060 6376.0
19.73260 6386.0
19.73460 6440.0
19.73660 6428.0
19.73860 6384.0
19.74060 6401.0
19.74260 6331.0
19.74460 6447.0
19.74660 6248.0
19.74860 6469.0
19.75060 6400.0
19.75260 6240.0
19.75460 6449.0
19.75660 6447.0
19.75860 6438.0
19.76060 6378.0
19.76260 6319.0
19.76460 6415.0
19.76660 6443.0
19.76860 6755.0
19.77060 6417.0
19.77260 6578.0
19.77460 6622.0
19.77660 6434.0
19.77860 6708.0
19.78060 6549.0
19.78260 6716.0
19.78460 6601.0
19.78660 6502.0
19.78860 6564.0
19.79060 6538.0
19.79260 6573.0
19.79460 6569.0
19.79660 6532.0
19.79860 6611.0
19.80060 6652.0
19.80260 6560.0
19.80460 6630.0
19.80660 6566.0
19.80860 6667.0
19.81060 6634.0
19.81260 6680.0
19.81460 6500.0
19.81660 6536.0
19.81860 6454.0
19.82060 6643.0
19.82260 6629.0
19.82460 6663.0
19.82660 6610.0
19.82860 6542.0
19.83060 6539.0
19.83260 6544.0
19.83460 6585.0
19.83660 6665.0
19.83860 6630.0
19.84060 6643.0
19.84260 6658.0
19.84460 6659.0
19.84660 6546.0
19.84860 6635.0
19.85060 6543.0
19.85260 6523.0
19.85460 6634.0
19.85660 6647.0
19.85860 6687.0
19.86060 6581.0
19.86260 6479.0
19.86460 6611.0
19.86660 6486.0
19.86860 6269.0
19.87060 6456.0
19.87260 6435.0
19.87460 6431.0
19.87660 6492.0
19.87860 6418.0
19.88060 6476.0
19.88260 6338.0
19.88460 6370.0
19.88660 6414.0
19.88860 6442.0
19.89060 6361.0
19.89260 6274.0
19.89460 6472.0
19.89660 6222.0
19.89860 6567.0
19.90060 6347.0
19.90260 6336.0
19.90460 6287.0
19.90660 6333.0
19.90860 6292.0
19.91060 6405.0
19.91260 6192.0
19.91460 6173.0
19.91660 6177.0
19.91860 6228.0
19.92060 6226.0
19.92260 6099.0
19.92460 6166.0
19.92660 6204.0
19.92860 6078.0
19.93060 6013.0
19.93260 6033.0
19.93460 6066.0
19.93660 6053.0
19.93860 6128.0
19.94060 6227.0
19.94260 6145.0
19.94460 6133.0
19.94660 5948.0
19.94860 5907.0
19.95060 5862.0
19.95260 5865.0
19.95460 5981.0
19.95660 6001.0
19.95860 5740.0
19.96060 5915.0
19.96260 5880.0
19.96460 5865.0
19.96660 5683.0
19.96860 5804.0
19.97060 5814.0
19.97260 5754.0
19.97460 5725.0
19.97660 5728.0
19.97860 5634.0
19.98060 5583.0
19.98260 5572.0
19.98460 5562.0
19.98660 5511.0
19.98860 5462.0
19.99060 5509.0
19.99260 5424.0
19.99460 5413.0
19.99660 5389.0
19.99860 5393.0
20.00060 5493.0
20.00260 5417.0
20.00460 5222.0
20.00660 5216.0
20.00860 5351.0
20.01060 5149.0
20.01260 5319.0
20.01460 5199.0
20.01660 5160.0
20.01860 5191.0
20.02060 5156.0
20.02260 5084.0
20.02460 5122.0
20.02660 4973.0
20.02860 5087.0
20.03060 5047.0
20.03260 5011.0
20.03460 4984.0
20.03660 4813.0
20.03860 4862.0
20.04060 4850.0
20.04260 4943.0
20.04460 4989.0
20.04660 4808.0
20.04860 4813.0
20.05060 4703.0
20.05260 4691.0
20.05460 4662.0
20.05660 4758.0
20.05860 4663.0
20.06060 4619.0
20.06260 4739.0
20.06460 4611.0
20.06660 4483.0
20.06860 4604.0
20.07060 4453.0
20.07260 4465.0
20.07460 4492.0
20.07660 4540.0
20.07860 4431.0
20.08060 4453.0
20.08260 4507.0
20.08460 4481.0
20.08660 4330.0
20.08860 4339.0
20.09060 4394.0
20.09260 4359.0
20.09460 4191.0
20.09660 4292.0
20.09860 4272.0
20.10060 4209.0
20.10260 4199.0
20.10460 4289.0
20.10660 4186.0
20.10860 4217.0
20.11060 4091.0
20.11260 4128.0
20.11460 4197.0
20.11660 4019.0
20.11860 4101.0
20.12060 3886.0
20.12260 4046.0
20.12460 4091.0
20.12660 4002.0
20.12860 4028.0
20.13060 3896.0
20.13260 3926.0
20.13460 3947.0
20.13660 3944.0
20.13860 3821.0
20.14060 3854.0
20.14260 3751.0
20.14460 3780.0
20.14660 3758.0
20.14860 3757.0
20.15060 3840.0
20.15260 3731.0
20.15460 3723.0
20.15660 3631.0
20.15860 3668.0
20.16060 3539.0
20.16260 3591.0
20.16460 3605.0
20.16660 3572.0
20.16860 3489.0
20.17060 3541.0
20.17260 3571.0
20.17460 3555.0
20.17660 3569.0
20.17860 3453.0
20.18060 3431.0
20.18260 3497.0
20.18460 3406.0
20.18660 3422.0
20.18860 3354.0
20.19060 3339.0
20.19260 3328.0
20.19460 3291.0
20.19660 3186.0
20.19860 3281.0
20.20060 3250.0
20.20260 3334.0
20.20460 3206.0
20.20660 3191.0
20.20860 3166.0
20.21060 3245.0
20.21260 3163.0
20.21460 3104.0
20.21660 3101.0
20.21860 3168.0
20.22060 3042.0
20.22260 3130.0
20.22460 2985.0
20.22660 3083.0
20.22860 2978.0
20.23060 3028.0
20.23260 3010.0
20.23460 3003.0
20.23660 2987.0
20.23860 2951.0
20.24060 2985.0
20.24260 2947.0
20.24460 2937.0
20.24660 2878.0
20.24860 2795.0
20.25060 3002.0
20.25260 2848.0
20.25460 2712.0
20.25660 2761.0
20.25860 2724.0
20.26060 2770.0
20.26260 2695.0
20.26460 2771.0
20.26660 2744.0
20.26860 2663.0
20.27060 2628.0
20.27260 2640.0
20.27460 2697.0
20.27660 2622.0
20.27860 2600.0
20.28060 2633.0
20.28260 2590.0
20.28460 2615.0
20.28660 2636.0
20.28860 2473.0
20.29060 2622.0
20.29260 2562.0
20.29460 2503.0
20.29660 2465.0
20.29860 2503.0
20.30060 2466.0
20.30260 2428.0
20.30460 2511.0
20.30660 2443.0
20.30860 2412.0
20.31060 2460.0
20.31260 2406.0
20.31460 2369.0
20.31660 2341.0
20.31860 2359.0
20.32060 2310.0
20.32260 2382.0
20.32460 2303.0
20.32660 2266.0
20.32860 2325.0
20.33060 2281.0
20.33260 2309.0
20.33460 2247.0
20.33660 2163.0
20.33860 2150.0
20.34060 2150.0
20.34260 2187.0
20.34460 2198.0
20.34660 2201.0
20.34860 2171.0
20.35060 2084.0
20.35260 2120.0
20.35460 2183.0
20.35660 2013.0
20.35860 2096.0
20.36060 2030.0
20.36260 1985.0
20.36460 2102.0
20.36660 2104.0
20.36860 2023.0
20.37060 2014.0
20.37260 2065.0
20.37460 2003.0
20.37660 2066.0
20.37860 2016.0
20.38060 1947.0
20.38260 1988.0
20.38460 1986.0
20.38660 2002.0
20.38860 2048.0
20.39060 1851.0
20.39260 1972.0
20.39460 1934.0
20.39660 1876.0
20.39860 1909.0
20.40060 1909.0
20.40260 1920.0
20.40460 1899.0
20.40660 1929.0
20.40860 1890.0
20.41060 1927.0
20.41260 1848.0
20.41460 1841.0
20.41660 1906.0
20.41860 1847.0
20.42060 1758.0
20.42260 1788.0
20.42460 1839.0
20.42660 1726.0
20.42860 1715.0
20.43060 1830.0
20.43260 1787.0
20.43460 1717.0
20.43660 1792.0
20.43860 1709.0
20.44060 1722.0
20.44260 1659.0
20.44460 1640.0
20.44660 1686.0
20.44860 1694.0
20.45060 1664.0
20.45260 1675.0
20.45460 1641.0
20.45660 1695.0
20.45860 1639.0
20.46060 1621.0
20.46260 1546.0
20.46460 1567.0
20.46660 1515.0
20.46860 1551.0
20.47060 1430.0
20.47260 1415.0
20.47460 1379.0
20.47660 1433.0
20.47860 1400.0
20.48060 1357.0
20.48260 1487.0
20.48460 1345.0
20.48660 1333.0
20.48860 1309.0
20.49060 1366.0
20.49260 1362.0
20.49460 1296.0
20.49660 1248.0
20.49860 1294.0
20.50060 1318.0
20.50260 1259.0
20.50460 1282.0
20.50660 1242.0
20.50860 1247.0
20.51060 1294.0
20.51260 1282.0
20.51460 1220.0
20.51660 1197.0
20.51860 1198.0
20.52060 1188.0
20.52260 1223.0
20.52460 1251.0
20.52660 1210.0
20.52860 1165.0
20.53060 1184.0
20.53260 1183.0
20.53460 1147.0
20.53660 1147.0
20.53860 1158.0
20.54060 1131.0
20.54260 1083.0
20.54460 1130.0
20.54660 1116.0
20.54860 1195.0
20.55060 1160.0
20.55260 1192.0
20.55460 1101.0
20.55660 1157.0
20.55860 1137.0
20.56060 1092.0
20.56260 1134.0
20.56460 1076.0
20.56660 1146.0
20.56860 1138.0
20.57060 1043.0
20.57260 1081.0
20.57460 987.0
20.57660 1063.0
20.57860 1080.0
20.58060 1055.0
20.58260 1034.0
20.58460 1042.0
20.58660 1107.0
20.58860 1021.0
20.59060 1050.0
20.59260 1089.0
20.59460 989.0
20.59660 1025.0
20.59860 1001.0
20.60060 953.0
20.60260 1071.0
20.60460 994.0
20.60660 945.0
20.60860 985.0
20.61060 957.0
20.61260 954.0
20.61460 944.0
20.61660 980.0
20.61860 971.0
20.62060 924.0
20.62260 885.0
20.62460 951.0
20.62660 998.0
20.62860 960.0
20.63060 903.0
20.63260 914.0
20.63460 965.0
20.63660 907.0
20.63860 923.0
20.64060 953.0
20.64260 938.0
20.64460 926.0
20.64660 912.0
20.64860 959.0
20.65060 929.0
20.65260 915.0
20.65460 908.0
20.65660 947.0
20.65860 976.0
20.66060 853.0
20.66260 916.0
20.66460 832.0
20.66660 897.0
20.66860 834.0
20.67060 893.0
20.67260 929.0
20.67460 852.0
20.67660 862.0
20.67860 874.0
20.68060 826.0
20.68260 825.0
20.68460 767.0
20.68660 843.0
20.68860 807.0
20.69060 840.0
20.69260 840.0
20.69460 796.0
20.69660 845.0
20.69860 864.0
20.70060 792.0
20.70260 801.0
20.70460 783.0
20.70660 788.0
20.70860 756.0
20.71060 776.0
20.71260 808.0
20.71460 822.0
20.71660 794.0
20.71860 809.0
20.72060 803.0
20.72260 807.0
20.72460 790.0
20.72660 782.0
20.72860 775.0
20.73060 772.0
20.73260 804.0
20.73460 764.0
20.73660 810.0
20.73860 821.0
20.74060 763.0
20.74260 771.0
20.74460 766.0
20.74660 766.0
20.74860 808.0
20.75060 758.0
20.75260 789.0
20.75460 722.0
20.75660 786.0
20.75860 708.0
20.76060 710.0
20.76260 760.0
20.76460 684.0
20.76660 767.0
20.76860 714.0
20.77060 723.0
20.77260 723.0
20.77460 681.0
20.77660 735.0
20.77860 758.0
20.78060 774.0
20.78260 715.0
20.78460 779.0
20.78660 672.0
20.78860 721.0
20.79060 693.0
20.79260 687.0
20.79460 673.0
20.79660 706.0
20.79860 653.0
20.80060 701.0
20.80260 675.0
20.80460 713.0
20.80660 655.0