File: data/W6780c/XRD_Omega/W6780c_Cr2O3_scan_omega_2deg_step_0.002deg0_11.xy
18.72030 752.0
18.72230 741.0
18.72430 817.0
18.72630 813.0
18.72830 802.0
18.73030 747.0
18.73230 803.0
18.73430 806.0
18.73630 768.0
18.73830 805.0
18.74030 753.0
18.74230 820.0
18.74430 786.0
18.74630 788.0
18.74830 759.0
18.75030 857.0
18.75230 844.0
18.75430 781.0
18.75630 789.0
18.75830 773.0
18.76030 756.0
18.76230 798.0
18.76430 804.0
18.76630 790.0
18.76830 877.0
18.77030 786.0
18.77230 769.0
18.77430 821.0
18.77630 820.0
18.77830 855.0
18.78030 796.0
18.78230 877.0
18.78430 814.0
18.78630 834.0
18.78830 817.0
18.79030 828.0
18.79230 821.0
18.79430 888.0
18.79630 817.0
18.79830 789.0
18.80030 874.0
18.80230 830.0
18.80430 767.0
18.80630 877.0
18.80830 870.0
18.81030 822.0
18.81230 828.0
18.81430 847.0
18.81630 768.0
18.81830 892.0
18.82030 916.0
18.82230 917.0
18.82430 867.0
18.82630 938.0
18.82830 927.0
18.83030 982.0
18.83230 958.0
18.83430 913.0
18.83630 868.0
18.83830 918.0
18.84030 913.0
18.84230 895.0
18.84430 963.0
18.84630 930.0
18.84830 853.0
18.85030 915.0
18.85230 924.0
18.85430 983.0
18.85630 936.0
18.85830 930.0
18.86030 978.0
18.86230 894.0
18.86430 893.0
18.86630 956.0
18.86830 957.0
18.87030 967.0
18.87230 969.0
18.87430 993.0
18.87630 930.0
18.87830 937.0
18.88030 973.0
18.88230 901.0
18.88430 955.0
18.88630 963.0
18.88830 1001.0
18.89030 966.0
18.89230 977.0
18.89430 1041.0
18.89630 1004.0
18.89830 1025.0
18.90030 1033.0
18.90230 1055.0
18.90430 1042.0
18.90630 1061.0
18.90830 995.0
18.91030 1008.0
18.91230 1024.0
18.91430 1045.0
18.91630 1059.0
18.91830 1108.0
18.92030 1048.0
18.92230 1038.0
18.92430 1080.0
18.92630 1036.0
18.92830 1066.0
18.93030 1071.0
18.93230 1068.0
18.93430 1034.0
18.93630 1064.0
18.93830 1090.0
18.94030 1069.0
18.94230 1104.0
18.94430 1120.0
18.94630 1040.0
18.94830 1099.0
18.95030 1106.0
18.95230 1156.0
18.95430 1095.0
18.95630 1099.0
18.95830 1128.0
18.96030 1058.0
18.96230 1093.0
18.96430 1192.0
18.96630 1169.0
18.96830 1163.0
18.97030 1154.0
18.97230 1112.0
18.97430 1144.0
18.97630 1216.0
18.97830 1149.0
18.98030 1184.0
18.98230 1145.0
18.98430 1217.0
18.98630 1256.0
18.98830 1204.0
18.99030 1198.0
18.99230 1250.0
18.99430 1237.0
18.99630 1171.0
18.99830 1290.0
19.00030 1251.0
19.00230 1244.0
19.00430 1256.0
19.00630 1242.0
19.00830 1239.0
19.01030 1315.0
19.01230 1332.0
19.01430 1348.0
19.01630 1231.0
19.01830 1285.0
19.02030 1350.0
19.02230 1263.0
19.02430 1324.0
19.02630 1348.0
19.02830 1424.0
19.03030 1375.0
19.03230 1333.0
19.03430 1366.0
19.03630 1380.0
19.03830 1395.0
19.04030 1444.0
19.04230 1407.0
19.04430 1433.0
19.04630 1390.0
19.04830 1430.0
19.05030 1478.0
19.05230 1410.0
19.05430 1457.0
19.05630 1401.0
19.05830 1420.0
19.06030 1456.0
19.06230 1502.0
19.06430 1513.0
19.06630 1496.0
19.06830 1438.0
19.07030 1497.0
19.07230 1502.0
19.07430 1457.0
19.07630 1535.0
19.07830 1535.0
19.08030 1549.0
19.08230 1504.0
19.08430 1522.0
19.08630 1609.0
19.08830 1591.0
19.09030 1594.0
19.09230 1606.0
19.09430 1624.0
19.09630 1690.0
19.09830 1605.0
19.10030 1600.0
19.10230 1647.0
19.10430 1669.0
19.10630 1633.0
19.10830 1695.0
19.11030 1692.0
19.11230 1684.0
19.11430 1714.0
19.11630 1719.0
19.11830 1739.0
19.12030 1747.0
19.12230 1686.0
19.12430 1771.0
19.12630 1808.0
19.12830 1734.0
19.13030 1784.0
19.13230 1909.0
19.13430 1837.0
19.13630 1847.0
19.13830 1889.0
19.14030 1827.0
19.14230 1819.0
19.14430 1851.0
19.14630 1882.0
19.14830 1948.0
19.15030 1899.0
19.15230 1921.0
19.15430 2026.0
19.15630 1978.0
19.15830 1852.0
19.16030 2013.0
19.16230 2020.0
19.16430 1938.0
19.16630 1999.0
19.16830 2017.0
19.17030 2015.0
19.17230 2078.0
19.17430 2038.0
19.17630 2104.0
19.17830 2080.0
19.18030 2195.0
19.18230 2172.0
19.18430 2127.0
19.18630 2163.0
19.18830 2189.0
19.19030 2169.0
19.19230 2262.0
19.19430 2235.0
19.19630 2292.0
19.19830 2305.0
19.20030 2353.0
19.20230 2290.0
19.20430 2380.0
19.20630 2415.0
19.20830 2350.0
19.21030 2378.0
19.21230 2413.0
19.21430 2494.0
19.21630 2466.0
19.21830 2448.0
19.22030 2509.0
19.22230 2447.0
19.22430 2583.0
19.22630 2500.0
19.22830 2569.0
19.23030 2647.0
19.23230 2563.0
19.23430 2611.0
19.23630 2633.0
19.23830 2606.0
19.24030 2594.0
19.24230 2613.0
19.24430 2823.0
19.24630 2837.0
19.24830 2774.0
19.25030 2777.0
19.25230 2818.0
19.25430 2860.0
19.25630 2883.0
19.25830 2948.0
19.26030 2924.0
19.26230 2874.0
19.26430 2936.0
19.26630 2983.0
19.26830 3027.0
19.27030 3051.0
19.27230 3083.0
19.27430 3143.0
19.27630 3119.0
19.27830 3213.0
19.28030 3165.0
19.28230 3176.0
19.28430 3200.0
19.28630 3299.0
19.28830 3326.0
19.29030 3234.0
19.29230 3315.0
19.29430 3298.0
19.29630 3362.0
19.29830 3478.0
19.30030 3389.0
19.30230 3413.0
19.30430 3356.0
19.30630 3673.0
19.30830 3510.0
19.31030 3652.0
19.31230 3526.0
19.31430 3563.0
19.31630 3611.0
19.31830 3804.0
19.32030 3803.0
19.32230 3697.0
19.32430 3851.0
19.32630 3843.0
19.32830 3900.0
19.33030 3828.0
19.33230 3951.0
19.33430 3942.0
19.33630 3995.0
19.33830 3952.0
19.34030 4072.0
19.34230 4122.0
19.34430 4082.0
19.34630 4176.0
19.34830 4165.0
19.35030 4163.0
19.35230 4253.0
19.35430 4199.0
19.35630 4306.0
19.35830 4311.0
19.36030 4326.0
19.36230 4386.0
19.36430 4465.0
19.36630 4460.0
19.36830 4454.0
19.37030 4533.0
19.37230 4579.0
19.37430 4680.0
19.37630 4658.0
19.37830 4651.0
19.38030 4665.0
19.38230 4795.0
19.38430 4904.0
19.38630 4775.0
19.38830 5012.0
19.39030 4900.0
19.39230 5112.0
19.39430 4946.0
19.39630 4962.0
19.39830 5042.0
19.40030 5187.0
19.40230 5163.0
19.40430 5200.0
19.40630 5168.0
19.40830 5401.0
19.41030 5407.0
19.41230 5492.0
19.41430 5483.0
19.41630 5529.0
19.41830 5551.0
19.42030 5576.0
19.42230 5555.0
19.42430 5585.0
19.42630 5729.0
19.42830 5728.0
19.43030 5818.0
19.43230 5837.0
19.43430 5858.0
19.43630 5981.0
19.43830 5915.0
19.44030 5962.0
19.44230 5952.0
19.44430 6044.0
19.44630 6174.0
19.44830 6353.0
19.45030 6230.0
19.45230 6218.0
19.45430 6199.0
19.45630 6443.0
19.45830 6409.0
19.46030 6356.0
19.46230 6428.0
19.46430 6482.0
19.46630 6473.0
19.46830 6520.0
19.47030 6595.0
19.47230 6823.0
19.47430 6742.0
19.47630 6726.0
19.47830 6800.0
19.48030 6909.0
19.48230 6781.0
19.48430 6919.0
19.48630 6744.0
19.48830 6960.0
19.49030 7198.0
19.49230 7261.0
19.49430 7222.0
19.49630 7355.0
19.49830 7278.0
19.50030 7339.0
19.50230 7483.0
19.50430 7416.0
19.50630 7338.0
19.50830 7264.0
19.51030 7457.0
19.51230 7564.0
19.51430 7545.0
19.51630 7698.0
19.51830 7656.0
19.52030 7817.0
19.52230 7709.0
19.52430 7860.0
19.52630 7975.0
19.52830 7952.0
19.53030 7799.0
19.53230 8089.0
19.53430 8095.0
19.53630 7844.0
19.53830 8198.0
19.54030 8336.0
19.54230 8130.0
19.54430 8085.0
19.54630 8253.0
19.54830 8339.0
19.55030 8253.0
19.55230 8435.0
19.55430 8471.0
19.55630 8351.0
19.55830 8443.0
19.56030 8550.0
19.56230 8609.0
19.56430 8461.0
19.56630 8685.0
19.56830 8543.0
19.57030 8769.0
19.57230 8820.0
19.57430 8839.0
19.57630 8822.0
19.57830 8966.0
19.58030 8939.0
19.58230 8932.0
19.58430 9085.0
19.58630 8980.0
19.58830 9130.0
19.59030 9226.0
19.59230 9125.0
19.59430 9250.0
19.59630 9318.0
19.59830 9505.0
19.60030 9279.0
19.60230 9313.0
19.60430 9475.0
19.60630 9447.0
19.60830 9359.0
19.61030 9439.0
19.61230 9490.0
19.61430 9713.0
19.61630 9635.0
19.61830 9487.0
19.62030 9528.0
19.62230 9670.0
19.62430 9721.0
19.62630 9656.0
19.62830 9554.0
19.63030 9755.0
19.63230 9887.0
19.63430 9840.0
19.63630 9870.0
19.63830 9706.0
19.64030 9836.0
19.64230 9962.0
19.64430 9870.0
19.64630 9893.0
19.64830 9927.0
19.65030 9903.0
19.65230 10060.0
19.65430 10198.0
19.65630 9939.0
19.65830 9972.0
19.66030 9950.0
19.66230 10141.0
19.66430 10168.0
19.66630 10372.0
19.66830 10053.0
19.67030 10234.0
19.67230 10212.0
19.67430 10385.0
19.67630 10244.0
19.67830 10269.0
19.68030 10272.0
19.68230 10255.0
19.68430 10296.0
19.68630 10264.0
19.68830 10329.0
19.69030 10576.0
19.69230 10324.0
19.69430 10271.0
19.69630 10301.0
19.69830 10257.0
19.70030 10348.0
19.70230 10480.0
19.70430 10476.0
19.70630 10514.0
19.70830 10336.0
19.71030 10321.0
19.71230 10257.0
19.71430 10423.0
19.71630 10646.0
19.71830 10486.0
19.72030 10501.0
19.72230 10489.0
19.72430 10353.0
19.72630 10401.0
19.72830 10500.0
19.73030 10449.0
19.73230 10279.0
19.73430 10424.0
19.73630 10414.0
19.73830 10368.0
19.74030 10450.0
19.74230 10327.0
19.74430 10262.0
19.74630 10186.0
19.74830 10453.0
19.75030 10377.0
19.75230 10513.0
19.75430 10294.0
19.75630 10495.0
19.75830 10199.0
19.76030 10213.0
19.76230 10363.0
19.76430 10308.0
19.76630 10303.0
19.76830 10333.0
19.77030 10116.0
19.77230 10226.0
19.77430 10344.0
19.77630 10093.0
19.77830 10166.0
19.78030 10156.0
19.78230 10154.0
19.78430 9963.0
19.78630 10241.0
19.78830 10134.0
19.79030 10036.0
19.79230 10019.0
19.79430 9850.0
19.79630 9914.0
19.79830 9961.0
19.80030 9781.0
19.80230 9995.0
19.80430 9747.0
19.80630 9816.0
19.80830 9676.0
19.81030 9735.0
19.81230 9663.0
19.81430 9628.0
19.81630 9658.0
19.81830 9625.0
19.82030 9459.0
19.82230 9711.0
19.82430 9629.0
19.82630 9344.0
19.82830 9444.0
19.83030 9281.0
19.83230 9323.0
19.83430 9207.0
19.83630 9537.0
19.83830 9353.0
19.84030 9286.0
19.84230 9145.0
19.84430 9174.0
19.84630 9307.0
19.84830 9131.0
19.85030 8933.0
19.85230 9094.0
19.85430 8966.0
19.85630 8943.0
19.85830 8975.0
19.86030 8884.0
19.86230 8719.0
19.86430 8768.0
19.86630 8793.0
19.86830 8537.0
19.87030 8608.0
19.87230 8489.0
19.87430 8431.0
19.87630 8473.0
19.87830 8281.0
19.88030 8361.0
19.88230 8417.0
19.88430 8161.0
19.88630 8192.0
19.88830 8240.0
19.89030 8216.0
19.89230 8180.0
19.89430 8131.0
19.89630 8122.0
19.89830 8217.0
19.90030 7983.0
19.90230 7911.0
19.90430 7862.0
19.90630 7876.0
19.90830 7774.0
19.91030 7742.0
19.91230 7586.0
19.91430 7588.0
19.91630 7770.0
19.91830 7657.0
19.92030 7694.0
19.92230 7469.0
19.92430 7481.0
19.92630 7526.0
19.92830 7437.0
19.93030 7474.0
19.93230 7268.0
19.93430 7252.0
19.93630 7245.0
19.93830 7285.0
19.94030 7233.0
19.94230 7090.0
19.94430 7160.0
19.94630 7017.0
19.94830 7002.0
19.95030 6858.0
19.95230 6909.0
19.95430 6733.0
19.95630 6813.0
19.95830 6802.0
19.96030 6754.0
19.96230 6599.0
19.96430 6433.0
19.96630 6435.0
19.96830 6541.0
19.97030 6527.0
19.97230 6461.0
19.97430 6368.0
19.97630 6431.0
19.97830 6324.0
19.98030 6208.0
19.98230 6273.0
19.98430 6098.0
19.98630 6163.0
19.98830 6053.0
19.99030 6124.0
19.99230 6031.0
19.99430 5945.0
19.99630 5893.0
19.99830 5758.0
20.00030 5854.0
20.00230 5829.0
20.00430 5607.0
20.00630 5818.0
20.00830 5504.0
20.01030 5749.0
20.01230 5502.0
20.01430 5686.0
20.01630 5583.0
20.01830 5479.0
20.02030 5545.0
20.02230 5418.0
20.02430 5352.0
20.02630 5333.0
20.02830 5213.0
20.03030 5297.0
20.03230 5365.0
20.03430 5062.0
20.03630 5161.0
20.03830 4971.0
20.04030 5031.0
20.04230 5073.0
20.04430 4911.0
20.04630 4748.0
20.04830 4867.0
20.05030 4791.0
20.05230 4788.0
20.05430 4817.0
20.05630 4772.0
20.05830 4752.0
20.06030 4592.0
20.06230 4599.0
20.06430 4564.0
20.06630 4490.0
20.06830 4585.0
20.07030 4463.0
20.07230 4446.0
20.07430 4470.0
20.07630 4416.0
20.07830 4385.0
20.08030 4356.0
20.08230 4313.0
20.08430 4246.0
20.08630 4191.0
20.08830 4229.0
20.09030 4124.0
20.09230 4187.0
20.09430 4031.0
20.09630 4175.0
20.09830 3940.0
20.10030 3979.0
20.10230 3913.0
20.10430 3934.0
20.10630 3867.0
20.10830 3906.0
20.11030 3855.0
20.11230 3816.0
20.11430 3915.0
20.11630 3693.0
20.11830 3877.0
20.12030 3719.0
20.12230 3702.0
20.12430 3696.0
20.12630 3605.0
20.12830 3636.0
20.13030 3672.0
20.13230 3632.0
20.13430 3573.0
20.13630 3596.0
20.13830 3471.0
20.14030 3481.0
20.14230 3501.0
20.14430 3442.0
20.14630 3349.0
20.14830 3213.0
20.15030 3344.0
20.15230 3383.0
20.15430 3318.0
20.15630 3253.0
20.15830 3191.0
20.16030 3114.0
20.16230 3229.0
20.16430 3177.0
20.16630 3104.0
20.16830 3055.0
20.17030 3021.0
20.17230 3090.0
20.17430 3036.0
20.17630 3107.0
20.17830 3062.0
20.18030 2969.0
20.18230 2932.0
20.18430 2910.0
20.18630 2892.0
20.18830 2877.0
20.19030 2811.0
20.19230 2801.0
20.19430 2785.0
20.19630 2785.0
20.19830 2845.0
20.20030 2800.0
20.20230 2698.0
20.20430 2752.0
20.20630 2768.0
20.20830 2635.0
20.21030 2744.0
20.21230 2661.0
20.21430 2583.0
20.21630 2677.0
20.21830 2586.0
20.22030 2582.0
20.22230 2538.0
20.22430 2597.0
20.22630 2561.0
20.22830 2407.0
20.23030 2449.0
20.23230 2500.0
20.23430 2406.0
20.23630 2415.0
20.23830 2472.0
20.24030 2368.0
20.24230 2371.0
20.24430 2372.0
20.24630 2343.0
20.24830 2417.0
20.25030 2284.0
20.25230 2287.0
20.25430 2410.0
20.25630 2268.0
20.25830 2296.0
20.26030 2304.0
20.26230 2199.0
20.26430 2225.0
20.26630 2181.0
20.26830 2232.0
20.27030 2197.0
20.27230 2225.0
20.27430 2211.0
20.27630 2192.0
20.27830 2124.0
20.28030 2111.0
20.28230 2195.0
20.28430 2049.0
20.28630 2139.0
20.28830 2070.0
20.29030 2051.0
20.29230 2045.0
20.29430 2057.0
20.29630 2045.0
20.29830 1983.0
20.30030 1985.0
20.30230 1986.0
20.30430 1962.0
20.30630 1978.0
20.30830 1935.0
20.31030 1915.0
20.31230 1982.0
20.31430 1932.0
20.31630 1804.0
20.31830 1867.0
20.32030 1889.0
20.32230 1913.0
20.32430 1812.0
20.32630 1767.0
20.32830 1890.0
20.33030 1958.0
20.33230 1734.0
20.33430 1882.0
20.33630 1882.0
20.33830 1773.0
20.34030 1750.0
20.34230 1760.0
20.34430 1744.0
20.34630 1670.0
20.34830 1688.0
20.35030 1708.0
20.35230 1600.0
20.35430 1613.0
20.35630 1650.0
20.35830 1627.0
20.36030 1619.0
20.36230 1632.0
20.36430 1586.0
20.36630 1538.0
20.36830 1471.0
20.37030 1465.0
20.37230 1480.0
20.37430 1479.0
20.37630 1459.0
20.37830 1443.0
20.38030 1477.0
20.38230 1443.0
20.38430 1406.0
20.38630 1436.0
20.38830 1448.0
20.39030 1421.0
20.39230 1439.0
20.39430 1326.0
20.39630 1386.0
20.39830 1386.0
20.40030 1398.0
20.40230 1323.0
20.40430 1342.0
20.40630 1363.0
20.40830 1371.0
20.41030 1317.0
20.41230 1262.0
20.41430 1360.0
20.41630 1314.0
20.41830 1267.0
20.42030 1317.0
20.42230 1229.0
20.42430 1171.0
20.42630 1293.0
20.42830 1256.0
20.43030 1258.0
20.43230 1196.0
20.43430 1271.0
20.43630 1277.0
20.43830 1303.0
20.44030 1270.0
20.44230 1222.0
20.44430 1221.0
20.44630 1206.0
20.44830 1202.0
20.45030 1202.0
20.45230 1178.0
20.45430 1249.0
20.45630 1140.0
20.45830 1223.0
20.46030 1162.0
20.46230 1124.0
20.46430 1203.0
20.46630 1187.0
20.46830 1170.0
20.47030 1172.0
20.47230 1100.0
20.47430 1117.0
20.47630 1200.0
20.47830 1099.0
20.48030 1126.0
20.48230 1152.0
20.48430 1045.0
20.48630 1107.0
20.48830 1126.0
20.49030 1137.0
20.49230 1115.0
20.49430 1123.0
20.49630 1113.0
20.49830 1089.0
20.50030 1118.0
20.50230 1025.0
20.50430 1073.0
20.50630 1042.0
20.50830 1138.0
20.51030 1012.0
20.51230 1019.0
20.51430 1057.0
20.51630 1093.0
20.51830 1068.0
20.52030 1075.0
20.52230 1069.0
20.52430 942.0
20.52630 947.0
20.52830 1038.0
20.53030 1012.0
20.53230 950.0
20.53430 1033.0
20.53630 997.0
20.53830 948.0
20.54030 1008.0
20.54230 1017.0
20.54430 1010.0
20.54630 986.0
20.54830 972.0
20.55030 949.0
20.55230 986.0
20.55430 936.0
20.55630 929.0
20.55830 892.0
20.56030 979.0
20.56230 986.0
20.56430 921.0
20.56630 959.0
20.56830 962.0
20.57030 918.0
20.57230 942.0
20.57430 910.0
20.57630 935.0
20.57830 939.0
20.58030 905.0
20.58230 892.0
20.58430 914.0
20.58630 889.0
20.58830 863.0
20.59030 889.0
20.59230 930.0
20.59430 927.0
20.59630 917.0
20.59830 890.0
20.60030 944.0
20.60230 870.0
20.60430 911.0
20.60630 885.0
20.60830 903.0
20.61030 892.0
20.61230 819.0
20.61430 830.0
20.61630 887.0
20.61830 904.0
20.62030 857.0
20.62230 827.0
20.62430 854.0
20.62630 816.0
20.62830 865.0
20.63030 826.0
20.63230 840.0
20.63430 792.0
20.63630 809.0
20.63830 811.0
20.64030 843.0
20.64230 777.0
20.64430 824.0
20.64630 852.0
20.64830 847.0
20.65030 799.0
20.65230 775.0
20.65430 802.0
20.65630 754.0
20.65830 776.0
20.66030 814.0
20.66230 786.0
20.66430 743.0
20.66630 771.0
20.66830 839.0
20.67030 829.0
20.67230 804.0
20.67430 800.0
20.67630 763.0
20.67830 784.0
20.68030 792.0
20.68230 792.0
20.68430 830.0
20.68630 786.0
20.68830 787.0
20.69030 776.0
20.69230 806.0
20.69430 824.0
20.69630 774.0
20.69830 714.0
20.70030 758.0
20.70230 778.0
20.70430 756.0