File: data/W6932a/XRD_2ThetaOmega/scan_2th-om_a_Cr2O3_30-40deg_PIXscan_4min.xy
30.0025 79.0
30.0123 71.0
30.0222 64.0
30.032 67.0
30.0419 57.0
30.0517 64.0
30.0615 65.0
30.0714 58.0
30.0812 62.0
30.0911 68.0
30.1009 62.0
30.1108 66.0
30.1206 75.0
30.1305 55.0
30.1403 69.0
30.1502 54.0
30.16 49.0
30.1699 72.0
30.1797 70.0
30.1896 68.0
30.1994 56.0
30.2093 75.0
30.2191 69.0
30.229 62.0
30.2388 71.0
30.2487 78.0
30.2585 57.0
30.2684 58.0
30.2782 61.0
30.288 74.0
30.2979 61.0
30.3077 71.0
30.3176 67.0
30.3274 62.0
30.3373 69.0
30.3471 68.0
30.357 73.0
30.3668 59.0
30.3767 84.0
30.3865 67.0
30.3964 74.0
30.4062 68.0
30.4161 59.0
30.4259 76.0
30.4358 62.0
30.4456 67.0
30.4555 51.0
30.4653 66.0
30.4752 73.0
30.485 53.0
30.4948 57.0
30.5047 66.0
30.5145 56.0
30.5244 71.0
30.5342 64.0
30.5441 60.0
30.5539 78.0
30.5638 76.0
30.5736 62.0
30.5835 76.0
30.5933 67.0
30.6032 61.0
30.613 85.0
30.6229 68.0
30.6327 65.0
30.6426 66.0
30.6524 72.0
30.6623 67.0
30.6721 76.0
30.682 70.0
30.6918 51.0
30.7016 62.0
30.7115 68.0
30.7213 64.0
30.7312 64.0
30.741 61.0
30.7509 63.0
30.7607 65.0
30.7706 68.0
30.7804 56.0
30.7903 71.0
30.8001 78.0
30.81 60.0
30.8198 53.0
30.8297 55.0
30.8395 70.0
30.8494 62.0
30.8592 71.0
30.8691 65.0
30.8789 72.0
30.8888 55.0
30.8986 68.0
30.9085 73.0
30.9183 62.0
30.9281 76.0
30.938 67.0
30.9478 66.0
30.9577 50.0
30.9675 66.0
30.9774 64.0
30.9872 75.0
30.9971 65.0
31.0069 71.0
31.0168 71.0
31.0266 58.0
31.0365 73.0
31.0463 80.0
31.0562 81.0
31.066 68.0
31.0759 61.0
31.0857 60.0
31.0956 73.0
31.1054 64.0
31.1153 72.0
31.1251 74.0
31.1349 70.0
31.1448 67.0
31.1546 74.0
31.1645 70.0
31.1743 61.0
31.1842 54.0
31.194 67.0
31.2039 73.0
31.2137 67.0
31.2236 63.0
31.2334 73.0
31.2433 58.0
31.2531 59.0
31.263 65.0
31.2728 75.0
31.2827 73.0
31.2925 85.0
31.3024 66.0
31.3122 66.0
31.3221 76.0
31.3319 81.0
31.3418 73.0
31.3516 72.0
31.3614 72.0
31.3713 60.0
31.3811 73.0
31.391 59.0
31.4008 71.0
31.4107 70.0
31.4205 77.0
31.4304 71.0
31.4402 57.0
31.4501 75.0
31.4599 57.0
31.4698 84.0
31.4796 81.0
31.4895 78.0
31.4993 55.0
31.5092 64.0
31.519 78.0
31.5289 65.0
31.5387 51.0
31.5486 52.0
31.5584 76.0
31.5682 55.0
31.5781 69.0
31.5879 60.0
31.5978 82.0
31.6076 62.0
31.6175 67.0
31.6273 55.0
31.6372 64.0
31.647 77.0
31.6569 77.0
31.6667 61.0
31.6766 77.0
31.6864 73.0
31.6963 67.0
31.7061 59.0
31.716 43.0
31.7258 75.0
31.7357 71.0
31.7455 57.0
31.7554 69.0
31.7652 76.0
31.7751 75.0
31.7849 76.0
31.7947 64.0
31.8046 66.0
31.8144 56.0
31.8243 61.0
31.8341 68.0
31.844 76.0
31.8538 80.0
31.8637 67.0
31.8735 79.0
31.8834 66.0
31.8932 74.0
31.9031 65.0
31.9129 65.0
31.9228 61.0
31.9326 81.0
31.9425 57.0
31.9523 73.0
31.9622 55.0
31.972 56.0
31.9819 69.0
31.9917 67.0
32.0015 75.0
32.0114 76.0
32.0212 61.0
32.0311 63.0
32.0409 62.0
32.0508 51.0
32.0606 66.0
32.0705 70.0
32.0803 53.0
32.0902 49.0
32.1 77.0
32.1099 51.0
32.1197 63.0
32.1296 75.0
32.1394 59.0
32.1493 65.0
32.1591 69.0
32.169 63.0
32.1788 56.0
32.1887 69.0
32.1985 58.0
32.2083 73.0
32.2182 63.0
32.228 62.0
32.2379 64.0
32.2477 59.0
32.2576 54.0
32.2674 89.0
32.2773 72.0
32.2871 66.0
32.297 57.0
32.3068 66.0
32.3167 60.0
32.3265 79.0
32.3364 62.0
32.3462 65.0
32.3561 87.0
32.3659 60.0
32.3758 73.0
32.3856 86.0
32.3955 82.0
32.4053 97.0
32.4152 88.0
32.425 83.0
32.4348 97.0
32.4447 105.0
32.4545 106.0
32.4644 112.0
32.4742 119.0
32.4841 102.0
32.4939 103.0
32.5038 104.0
32.5136 82.0
32.5235 80.0
32.5333 81.0
32.5432 78.0
32.553 79.0
32.5629 80.0
32.5727 74.0
32.5826 70.0
32.5924 78.0
32.6023 80.0
32.6121 69.0
32.622 72.0
32.6318 64.0
32.6416 71.0
32.6515 74.0
32.6613 63.0
32.6712 76.0
32.681 60.0
32.6909 69.0
32.7007 64.0
32.7106 65.0
32.7204 67.0
32.7303 62.0
32.7401 63.0
32.75 66.0
32.7598 76.0
32.7697 56.0
32.7795 58.0
32.7894 68.0
32.7992 72.0
32.8091 65.0
32.8189 62.0
32.8288 74.0
32.8386 68.0
32.8485 61.0
32.8583 74.0
32.8681 82.0
32.878 74.0
32.8878 71.0
32.8977 82.0
32.9075 87.0
32.9174 77.0
32.9272 58.0
32.9371 53.0
32.9469 68.0
32.9568 67.0
32.9666 76.0
32.9765 69.0
32.9863 71.0
32.9962 68.0
33.006 52.0
33.0159 64.0
33.0257 66.0
33.0356 83.0
33.0454 70.0
33.0553 71.0
33.0651 78.0
33.0749 71.0
33.0848 70.0
33.0946 78.0
33.1045 65.0
33.1143 70.0
33.1242 65.0
33.134 49.0
33.1439 72.0
33.1537 72.0
33.1636 73.0
33.1734 76.0
33.1833 77.0
33.1931 70.0
33.203 63.0
33.2128 73.0
33.2227 76.0
33.2325 79.0
33.2424 64.0
33.2522 65.0
33.2621 63.0
33.2719 66.0
33.2818 63.0
33.2916 80.0
33.3014 71.0
33.3113 67.0
33.3211 76.0
33.331 45.0
33.3408 61.0
33.3507 82.0
33.3605 63.0
33.3704 68.0
33.3802 60.0
33.3901 81.0
33.3999 74.0
33.4098 68.0
33.4196 79.0
33.4295 73.0
33.4393 56.0
33.4492 97.0
33.459 73.0
33.4689 52.0
33.4787 66.0
33.4886 70.0
33.4984 56.0
33.5082 64.0
33.5181 72.0
33.5279 57.0
33.5378 56.0
33.5476 58.0
33.5575 58.0
33.5673 63.0
33.5772 75.0
33.587 67.0
33.5969 63.0
33.6067 76.0
33.6166 69.0
33.6264 65.0
33.6363 76.0
33.6461 78.0
33.656 64.0
33.6658 77.0
33.6757 76.0
33.6855 71.0
33.6954 80.0
33.7052 69.0
33.715 60.0
33.7249 45.0
33.7347 71.0
33.7446 84.0
33.7544 74.0
33.7643 64.0
33.7741 57.0
33.784 77.0
33.7938 63.0
33.8037 60.0
33.8135 80.0
33.8234 88.0
33.8332 90.0
33.8431 94.0
33.8529 73.0
33.8628 75.0
33.8726 68.0
33.8825 88.0
33.8923 69.0
33.9022 107.0
33.912 121.0
33.9219 119.0
33.9317 166.0
33.9415 330.0
33.9514 577.0
33.9612 739.0
33.9711 748.0
33.9809 561.0
33.9908 373.0
34.0006 199.0
34.0105 171.0
34.0203 113.0
34.0302 119.0
34.04 95.0
34.0499 83.0
34.0597 80.0
34.0696 70.0
34.0794 88.0
34.0893 87.0
34.0991 78.0
34.109 81.0
34.1188 74.0
34.1287 88.0
34.1385 77.0
34.1483 81.0
34.1582 83.0
34.168 93.0
34.1779 81.0
34.1877 76.0
34.1976 78.0
34.2074 82.0
34.2173 73.0
34.2271 73.0
34.237 71.0
34.2468 80.0
34.2567 69.0
34.2665 82.0
34.2764 85.0
34.2862 87.0
34.2961 61.0
34.3059 69.0
34.3158 71.0
34.3256 69.0
34.3355 78.0
34.3453 76.0
34.3552 73.0
34.365 82.0
34.3748 72.0
34.3847 70.0
34.3945 66.0
34.4044 72.0
34.4142 76.0
34.4241 73.0
34.4339 86.0
34.4438 72.0
34.4536 78.0
34.4635 93.0
34.4733 70.0
34.4832 77.0
34.493 67.0
34.5029 74.0
34.5127 79.0
34.5226 72.0
34.5324 97.0
34.5423 64.0
34.5521 79.0
34.562 85.0
34.5718 83.0
34.5816 69.0
34.5915 76.0
34.6013 79.0
34.6112 85.0
34.621 71.0
34.6309 81.0
34.6407 75.0
34.6506 64.0
34.6604 77.0
34.6703 86.0
34.6801 90.0
34.69 70.0
34.6998 76.0
34.7097 85.0
34.7195 94.0
34.7294 78.0
34.7392 75.0
34.7491 79.0
34.7589 95.0
34.7688 97.0
34.7786 92.0
34.7884 76.0
34.7983 75.0
34.8081 95.0
34.818 72.0
34.8278 94.0
34.8377 92.0
34.8475 70.0
34.8574 84.0
34.8672 90.0
34.8771 85.0
34.8869 92.0
34.8968 79.0
34.9066 87.0
34.9165 97.0
34.9263 86.0
34.9362 85.0
34.946 106.0
34.9559 94.0
34.9657 109.0
34.9756 120.0
34.9854 93.0
34.9953 89.0
35.0051 94.0
35.0149 94.0
35.0248 95.0
35.0346 91.0
35.0445 88.0
35.0543 87.0
35.0642 104.0
35.074 93.0
35.0839 95.0
35.0937 98.0
35.1036 106.0
35.1134 104.0
35.1233 93.0
35.1331 104.0
35.143 97.0
35.1528 97.0
35.1627 100.0
35.1725 109.0
35.1824 104.0
35.1922 98.0
35.2021 112.0
35.2119 106.0
35.2217 130.0
35.2316 101.0
35.2414 112.0
35.2513 110.0
35.2611 131.0
35.271 96.0
35.2808 99.0
35.2907 124.0
35.3005 131.0
35.3104 116.0
35.3202 92.0
35.3301 118.0
35.3399 100.0
35.3498 123.0
35.3596 125.0
35.3695 142.0
35.3793 138.0
35.3892 124.0
35.399 99.0
35.4089 117.0
35.4187 125.0
35.4286 124.0
35.4384 139.0
35.4482 133.0
35.4581 145.0
35.4679 146.0
35.4778 139.0
35.4876 146.0
35.4975 161.0
35.5073 154.0
35.5172 175.0
35.527 154.0
35.5369 165.0
35.5467 183.0
35.5566 157.0
35.5664 188.0
35.5763 217.0
35.5861 179.0
35.596 185.0
35.6058 210.0
35.6157 187.0
35.6255 194.0
35.6354 211.0
35.6452 214.0
35.655 217.0
35.6649 215.0
35.6747 222.0
35.6846 262.0
35.6944 231.0
35.7043 246.0
35.7141 277.0
35.724 275.0
35.7338 311.0
35.7437 304.0
35.7535 354.0
35.7634 383.0
35.7732 341.0
35.7831 396.0
35.7929 437.0
35.8028 446.0
35.8126 481.0
35.8225 574.0
35.8323 601.0
35.8422 715.0
35.852 756.0
35.8619 889.0
35.8717 930.0
35.8815 1025.0
35.8914 1277.0
35.9012 1436.0
35.9111 1673.0
35.9209 2004.0
35.9308 2384.0
35.9406 2720.0
35.9505 3407.0
35.9603 4173.0
35.9702 5396.0
35.98 6857.0
35.9899 8706.0
35.9997 10567.0
36.0096 12629.0
36.0194 13935.0
36.0293 14555.0
36.0391 14680.0
36.049 14497.0
36.0588 13255.0
36.0687 12312.0
36.0785 11539.0
36.0883 10937.0
36.0982 10713.0
36.108 10557.0
36.1179 10069.0
36.1277 9607.0
36.1376 8950.0
36.1474 7932.0
36.1573 6716.0
36.1671 5575.0
36.177 4664.0
36.1868 3855.0
36.1967 3180.0
36.2065 2737.0
36.2164 2343.0
36.2262 2083.0
36.2361 1629.0
36.2459 1420.0
36.2558 1210.0
36.2656 1052.0
36.2755 971.0
36.2853 853.0
36.2951 783.0
36.305 700.0
36.3148 680.0
36.3247 571.0
36.3345 524.0
36.3444 489.0
36.3542 536.0
36.3641 459.0
36.3739 425.0
36.3838 392.0
36.3936 384.0
36.4035 380.0
36.4133 343.0
36.4232 344.0
36.433 319.0
36.4429 311.0
36.4527 310.0
36.4626 292.0
36.4724 260.0
36.4823 276.0
36.4921 269.0
36.502 263.0
36.5118 261.0
36.5216 230.0
36.5315 286.0
36.5413 208.0
36.5512 200.0
36.561 198.0
36.5709 184.0
36.5807 213.0
36.5906 182.0
36.6004 186.0
36.6103 168.0
36.6201 190.0
36.63 187.0
36.6398 183.0
36.6497 182.0
36.6595 181.0
36.6694 193.0
36.6792 209.0
36.6891 182.0
36.6989 179.0
36.7088 178.0
36.7186 175.0
36.7284 171.0
36.7383 182.0
36.7481 179.0
36.758 173.0
36.7678 170.0
36.7777 191.0
36.7875 184.0
36.7974 187.0
36.8072 207.0
36.8171 172.0
36.8269 190.0
36.8368 183.0
36.8466 196.0
36.8565 203.0
36.8663 214.0
36.8762 205.0
36.886 188.0
36.8959 204.0
36.9057 266.0
36.9156 211.0
36.9254 262.0
36.9353 213.0
36.9451 269.0
36.9549 173.0
36.9648 264.0
36.9746 198.0
36.9845 266.0
36.9943 215.0
37.0042 259.0
37.014 265.0
37.0239 256.0
37.0337 275.0
37.0436 255.0
37.0534 265.0
37.0633 289.0
37.0731 258.0
37.083 277.0
37.0928 278.0
37.1027 301.0
37.1125 333.0
37.1224 311.0
37.1322 335.0
37.1421 319.0
37.1519 307.0
37.1617 316.0
37.1716 311.0
37.1814 326.0
37.1913 345.0
37.2011 328.0
37.211 371.0
37.2208 339.0
37.2307 363.0
37.2405 349.0
37.2504 352.0
37.2602 384.0
37.2701 383.0
37.2799 397.0
37.2898 427.0
37.2996 436.0
37.3095 454.0
37.3193 442.0
37.3292 498.0
37.339 460.0
37.3489 511.0
37.3587 459.0
37.3686 491.0
37.3784 529.0
37.3882 510.0
37.3981 557.0
37.4079 608.0
37.4178 638.0
37.4276 573.0
37.4375 644.0
37.4473 679.0
37.4572 705.0
37.467 812.0
37.4769 827.0
37.4867 809.0
37.4966 963.0
37.5064 1064.0
37.5163 1365.0
37.5261 1564.0
37.536 1982.0
37.5458 2318.0
37.5557 2450.0
37.5655 2591.0
37.5754 2486.0
37.5852 2405.0
37.595 2372.0
37.6049 2366.0
37.6147 2671.0
37.6246 2963.0
37.6344 3440.0
37.6443 4267.0
37.6541 5532.0
37.664 7370.0
37.6738 10924.0
37.6837 17763.0
37.6935 35869.0
37.7034 100396.0
37.7132 215330.0
37.7231 253640.0
37.7329 213114.0
37.7428 103546.0
37.7526 42505.0
37.7625 21685.0
37.7723 15232.0
37.7822 15389.0
37.792 25099.0
37.8018 58963.0
37.8117 107501.0
37.8215 123322.0
37.8314 98287.0
37.8412 49816.0
37.8511 21290.0
37.8609 10899.0
37.8708 6652.0
37.8806 4739.0
37.8905 3834.0
37.9003 3058.0
37.9102 2443.0
37.92 2166.0
37.9299 1863.0
37.9397 1678.0
37.9496 1534.0
37.9594 1424.0
37.9693 1270.0
37.9791 1132.0
37.989 1095.0
37.9988 972.0
38.0087 943.0
38.0185 882.0
38.0283 855.0
38.0382 772.0
38.048 735.0
38.0579 727.0
38.0677 662.0
38.0776 586.0
38.0874 622.0
38.0973 589.0
38.1071 585.0
38.117 527.0
38.1268 542.0
38.1367 517.0
38.1465 488.0
38.1564 488.0
38.1662 459.0
38.1761 425.0
38.1859 373.0
38.1958 391.0
38.2056 379.0
38.2155 373.0
38.2253 364.0
38.2351 331.0
38.245 384.0
38.2548 346.0
38.2647 340.0
38.2745 284.0
38.2844 321.0
38.2942 288.0
38.3041 282.0
38.3139 294.0
38.3238 261.0
38.3336 214.0
38.3435 197.0
38.3533 212.0
38.3632 202.0
38.373 207.0
38.3829 183.0
38.3927 195.0
38.4026 171.0
38.4124 177.0
38.4223 195.0
38.4321 173.0
38.442 156.0
38.4518 152.0
38.4616 159.0
38.4715 153.0
38.4813 149.0
38.4912 145.0
38.501 145.0
38.5109 167.0
38.5207 136.0
38.5306 157.0
38.5404 129.0
38.5503 136.0
38.5601 147.0
38.57 158.0
38.5798 124.0
38.5897 115.0
38.5995 129.0
38.6094 110.0
38.6192 115.0
38.6291 110.0
38.6389 95.0
38.6488 133.0
38.6586 123.0
38.6684 117.0
38.6783 114.0
38.6881 114.0
38.698 115.0
38.7078 124.0
38.7177 85.0
38.7275 88.0
38.7374 100.0
38.7472 114.0
38.7571 83.0
38.7669 111.0
38.7768 108.0
38.7866 100.0
38.7965 124.0
38.8063 105.0
38.8162 119.0
38.826 96.0
38.8359 84.0
38.8457 94.0
38.8556 108.0
38.8654 101.0
38.8753 85.0
38.8851 107.0
38.8949 100.0
38.9048 94.0
38.9146 88.0
38.9245 101.0
38.9343 83.0
38.9442 105.0
38.954 82.0
38.9639 82.0
38.9737 102.0
38.9836 105.0
38.9934 93.0
39.0033 87.0
39.0131 103.0
39.023 106.0
39.0328 101.0
39.0427 92.0
39.0525 88.0
39.0624 89.0
39.0722 83.0
39.0821 71.0
39.0919 108.0
39.1017 90.0
39.1116 101.0
39.1214 82.0
39.1313 74.0
39.1411 97.0
39.151 84.0
39.1608 71.0
39.1707 82.0
39.1805 86.0
39.1904 91.0
39.2002 80.0
39.2101 89.0
39.2199 70.0
39.2298 75.0
39.2396 82.0
39.2495 74.0
39.2593 91.0
39.2692 78.0
39.279 92.0
39.2889 80.0
39.2987 79.0
39.3085 79.0
39.3184 76.0
39.3282 87.0
39.3381 90.0
39.3479 85.0
39.3578 71.0
39.3676 80.0
39.3775 81.0
39.3873 74.0
39.3972 77.0
39.407 89.0
39.4169 81.0
39.4267 69.0
39.4366 72.0
39.4464 66.0
39.4563 58.0
39.4661 67.0
39.476 73.0
39.4858 78.0
39.4957 78.0
39.5055 69.0
39.5154 95.0
39.5252 80.0
39.535 77.0
39.5449 80.0
39.5547 69.0
39.5646 77.0
39.5744 68.0
39.5843 78.0
39.5941 75.0
39.604 74.0
39.6138 64.0
39.6237 75.0
39.6335 76.0
39.6434 82.0
39.6532 86.0
39.6631 68.0
39.6729 70.0
39.6828 81.0
39.6926 64.0
39.7025 73.0
39.7123 67.0
39.7222 66.0
39.732 80.0
39.7418 73.0
39.7517 76.0
39.7615 70.0
39.7714 67.0
39.7812 71.0
39.7911 69.0
39.8009 70.0
39.8108 76.0
39.8206 87.0
39.8305 81.0
39.8403 63.0
39.8502 82.0
39.86 72.0
39.8699 81.0
39.8797 68.0
39.8896 70.0
39.8994 76.0
39.9093 88.0
39.9191 71.0
39.929 66.0
39.9388 75.0
39.9487 75.0
39.9585 70.0
39.9683 62.0
39.9782 69.0
39.988 68.0
39.9979 71.0