File: data/w6931r/XRD_2ThetaOmega/scan_2th-om_r2_Cr2O3_45-55deg_PIXscan_5min.xy
45.0025 69.0
45.0123 68.0
45.0222 72.0
45.032 68.0
45.0419 71.0
45.0517 53.0
45.0615 61.0
45.0714 51.0
45.0812 65.0
45.0911 63.0
45.1009 54.0
45.1108 55.0
45.1206 56.0
45.1305 78.0
45.1403 70.0
45.1502 72.0
45.16 49.0
45.1699 65.0
45.1797 65.0
45.1896 60.0
45.1994 70.0
45.2093 56.0
45.2191 61.0
45.229 77.0
45.2388 72.0
45.2487 73.0
45.2585 56.0
45.2684 60.0
45.2782 63.0
45.288 58.0
45.2979 63.0
45.3077 47.0
45.3176 62.0
45.3274 82.0
45.3373 56.0
45.3471 66.0
45.357 75.0
45.3668 65.0
45.3767 51.0
45.3865 63.0
45.3964 60.0
45.4062 59.0
45.4161 62.0
45.4259 55.0
45.4358 64.0
45.4456 63.0
45.4555 70.0
45.4653 74.0
45.4752 57.0
45.485 59.0
45.4948 55.0
45.5047 56.0
45.5145 58.0
45.5244 63.0
45.5342 57.0
45.5441 61.0
45.5539 45.0
45.5638 62.0
45.5736 68.0
45.5835 60.0
45.5933 67.0
45.6032 53.0
45.613 55.0
45.6229 61.0
45.6327 56.0
45.6426 65.0
45.6524 66.0
45.6623 73.0
45.6721 54.0
45.682 54.0
45.6918 73.0
45.7016 67.0
45.7115 58.0
45.7213 56.0
45.7312 51.0
45.741 62.0
45.7509 50.0
45.7607 66.0
45.7706 63.0
45.7804 54.0
45.7903 51.0
45.8001 63.0
45.81 61.0
45.8198 55.0
45.8297 70.0
45.8395 64.0
45.8494 65.0
45.8592 62.0
45.8691 65.0
45.8789 68.0
45.8888 72.0
45.8986 63.0
45.9085 58.0
45.9183 50.0
45.9281 55.0
45.938 59.0
45.9478 72.0
45.9577 56.0
45.9675 54.0
45.9774 52.0
45.9872 61.0
45.9971 62.0
46.0069 61.0
46.0168 65.0
46.0266 49.0
46.0365 56.0
46.0463 44.0
46.0562 59.0
46.066 61.0
46.0759 56.0
46.0857 63.0
46.0956 63.0
46.1054 56.0
46.1153 44.0
46.1251 60.0
46.1349 66.0
46.1448 59.0
46.1546 66.0
46.1645 72.0
46.1743 55.0
46.1842 71.0
46.194 58.0
46.2039 51.0
46.2137 59.0
46.2236 65.0
46.2334 49.0
46.2433 49.0
46.2531 62.0
46.263 68.0
46.2728 47.0
46.2827 65.0
46.2925 55.0
46.3024 59.0
46.3122 68.0
46.3221 54.0
46.3319 49.0
46.3418 56.0
46.3516 49.0
46.3614 53.0
46.3713 70.0
46.3811 60.0
46.391 61.0
46.4008 57.0
46.4107 65.0
46.4205 59.0
46.4304 47.0
46.4402 59.0
46.4501 58.0
46.4599 52.0
46.4698 58.0
46.4796 67.0
46.4895 69.0
46.4993 63.0
46.5092 67.0
46.519 53.0
46.5289 67.0
46.5387 61.0
46.5486 51.0
46.5584 71.0
46.5682 68.0
46.5781 60.0
46.5879 52.0
46.5978 77.0
46.6076 66.0
46.6175 63.0
46.6273 70.0
46.6372 58.0
46.647 53.0
46.6569 70.0
46.6667 69.0
46.6766 65.0
46.6864 65.0
46.6963 76.0
46.7061 70.0
46.716 61.0
46.7258 87.0
46.7357 66.0
46.7455 58.0
46.7554 76.0
46.7652 65.0
46.7751 64.0
46.7849 51.0
46.7947 64.0
46.8046 71.0
46.8144 53.0
46.8243 58.0
46.8341 48.0
46.844 57.0
46.8538 77.0
46.8637 79.0
46.8735 56.0
46.8834 67.0
46.8932 75.0
46.9031 57.0
46.9129 76.0
46.9228 58.0
46.9326 75.0
46.9425 61.0
46.9523 68.0
46.9622 91.0
46.972 71.0
46.9819 78.0
46.9917 89.0
47.0015 83.0
47.0114 82.0
47.0212 99.0
47.0311 113.0
47.0409 129.0
47.0508 183.0
47.0606 277.0
47.0705 389.0
47.0803 595.0
47.0902 844.0
47.1 905.0
47.1099 858.0
47.1197 622.0
47.1296 501.0
47.1394 319.0
47.1493 276.0
47.1591 228.0
47.169 214.0
47.1788 209.0
47.1887 149.0
47.1985 148.0
47.2083 116.0
47.2182 105.0
47.228 93.0
47.2379 104.0
47.2477 95.0
47.2576 79.0
47.2674 84.0
47.2773 73.0
47.2871 80.0
47.297 70.0
47.3068 79.0
47.3167 76.0
47.3265 69.0
47.3364 85.0
47.3462 67.0
47.3561 67.0
47.3659 77.0
47.3758 72.0
47.3856 73.0
47.3955 78.0
47.4053 55.0
47.4152 65.0
47.425 78.0
47.4348 73.0
47.4447 70.0
47.4545 78.0
47.4644 70.0
47.4742 74.0
47.4841 90.0
47.4939 72.0
47.5038 71.0
47.5136 57.0
47.5235 52.0
47.5333 76.0
47.5432 89.0
47.553 69.0
47.5629 80.0
47.5727 78.0
47.5826 92.0
47.5924 81.0
47.6023 69.0
47.6121 75.0
47.622 77.0
47.6318 74.0
47.6416 75.0
47.6515 68.0
47.6613 63.0
47.6712 66.0
47.681 82.0
47.6909 74.0
47.7007 59.0
47.7106 71.0
47.7204 78.0
47.7303 80.0
47.7401 78.0
47.75 70.0
47.7598 75.0
47.7697 76.0
47.7795 73.0
47.7894 65.0
47.7992 71.0
47.8091 75.0
47.8189 69.0
47.8288 77.0
47.8386 99.0
47.8485 78.0
47.8583 78.0
47.8681 61.0
47.878 78.0
47.8878 68.0
47.8977 67.0
47.9075 72.0
47.9174 61.0
47.9272 64.0
47.9371 78.0
47.9469 63.0
47.9568 61.0
47.9666 71.0
47.9765 62.0
47.9863 89.0
47.9962 77.0
48.006 68.0
48.0159 60.0
48.0257 75.0
48.0356 66.0
48.0454 68.0
48.0553 73.0
48.0651 73.0
48.0749 65.0
48.0848 78.0
48.0946 67.0
48.1045 79.0
48.1143 80.0
48.1242 76.0
48.134 77.0
48.1439 69.0
48.1537 66.0
48.1636 74.0
48.1734 81.0
48.1833 80.0
48.1931 64.0
48.203 83.0
48.2128 76.0
48.2227 70.0
48.2325 78.0
48.2424 80.0
48.2522 76.0
48.2621 78.0
48.2719 81.0
48.2818 57.0
48.2916 64.0
48.3014 63.0
48.3113 82.0
48.3211 84.0
48.331 69.0
48.3408 74.0
48.3507 77.0
48.3605 68.0
48.3704 69.0
48.3802 66.0
48.3901 86.0
48.3999 72.0
48.4098 78.0
48.4196 81.0
48.4295 70.0
48.4393 68.0
48.4492 71.0
48.459 71.0
48.4689 78.0
48.4787 69.0
48.4886 60.0
48.4984 68.0
48.5082 89.0
48.5181 85.0
48.5279 86.0
48.5378 54.0
48.5476 75.0
48.5575 65.0
48.5673 79.0
48.5772 87.0
48.587 88.0
48.5969 91.0
48.6067 64.0
48.6166 77.0
48.6264 66.0
48.6363 82.0
48.6461 74.0
48.656 77.0
48.6658 87.0
48.6757 95.0
48.6855 83.0
48.6954 75.0
48.7052 75.0
48.715 81.0
48.7249 68.0
48.7347 78.0
48.7446 93.0
48.7544 76.0
48.7643 73.0
48.7741 65.0
48.784 97.0
48.7938 77.0
48.8037 70.0
48.8135 83.0
48.8234 87.0
48.8332 63.0
48.8431 94.0
48.8529 83.0
48.8628 81.0
48.8726 91.0
48.8825 97.0
48.8923 90.0
48.9022 85.0
48.912 77.0
48.9219 100.0
48.9317 85.0
48.9415 82.0
48.9514 80.0
48.9612 87.0
48.9711 72.0
48.9809 89.0
48.9908 82.0
49.0006 88.0
49.0105 105.0
49.0203 88.0
49.0302 88.0
49.04 96.0
49.0499 97.0
49.0597 80.0
49.0696 81.0
49.0794 102.0
49.0893 110.0
49.0991 91.0
49.109 120.0
49.1188 89.0
49.1287 108.0
49.1385 132.0
49.1483 110.0
49.1582 99.0
49.168 97.0
49.1779 102.0
49.1877 99.0
49.1976 104.0
49.2074 119.0
49.2173 111.0
49.2271 119.0
49.237 108.0
49.2468 109.0
49.2567 117.0
49.2665 108.0
49.2764 122.0
49.2862 140.0
49.2961 124.0
49.3059 127.0
49.3158 142.0
49.3256 134.0
49.3355 132.0
49.3453 127.0
49.3552 150.0
49.365 118.0
49.3748 116.0
49.3847 134.0
49.3945 123.0
49.4044 158.0
49.4142 151.0
49.4241 150.0
49.4339 174.0
49.4438 158.0
49.4536 202.0
49.4635 180.0
49.4733 188.0
49.4832 184.0
49.493 196.0
49.5029 207.0
49.5127 214.0
49.5226 231.0
49.5324 246.0
49.5423 231.0
49.5521 266.0
49.562 272.0
49.5718 274.0
49.5816 317.0
49.5915 322.0
49.6013 343.0
49.6112 358.0
49.621 413.0
49.6309 423.0
49.6407 484.0
49.6506 462.0
49.6604 480.0
49.6703 516.0
49.6801 558.0
49.69 609.0
49.6998 626.0
49.7097 654.0
49.7195 745.0
49.7294 806.0
49.7392 856.0
49.7491 982.0
49.7589 1007.0
49.7688 1006.0
49.7786 1093.0
49.7884 1140.0
49.7983 1150.0
49.8081 1324.0
49.818 1470.0
49.8278 1499.0
49.8377 1607.0
49.8475 1677.0
49.8574 1802.0
49.8672 1899.0
49.8771 1933.0
49.8869 2029.0
49.8968 2043.0
49.9066 2204.0
49.9165 2195.0
49.9263 2297.0
49.9362 2161.0
49.946 2111.0
49.9559 2207.0
49.9657 2139.0
49.9756 2089.0
49.9854 2101.0
49.9953 2067.0
50.0051 2014.0
50.0149 1896.0
50.0248 1880.0
50.0346 1771.0
50.0445 1684.0
50.0543 1660.0
50.0642 1530.0
50.074 1516.0
50.0839 1536.0
50.0937 1362.0
50.1036 1276.0
50.1134 1212.0
50.1233 1155.0
50.1331 1096.0
50.143 1006.0
50.1528 938.0
50.1627 883.0
50.1725 763.0
50.1824 739.0
50.1922 702.0
50.2021 620.0
50.2119 574.0
50.2217 556.0
50.2316 508.0
50.2414 475.0
50.2513 422.0
50.2611 445.0
50.271 425.0
50.2808 360.0
50.2907 347.0
50.3005 369.0
50.3104 343.0
50.3202 334.0
50.3301 325.0
50.3399 315.0
50.3498 293.0
50.3596 240.0
50.3695 274.0
50.3793 238.0
50.3892 233.0
50.399 234.0
50.4089 192.0
50.4187 221.0
50.4286 192.0
50.4384 205.0
50.4482 205.0
50.4581 190.0
50.4679 195.0
50.4778 188.0
50.4876 169.0
50.4975 170.0
50.5073 166.0
50.5172 159.0
50.527 146.0
50.5369 177.0
50.5467 170.0
50.5566 171.0
50.5664 168.0
50.5763 151.0
50.5861 172.0
50.596 127.0
50.6058 151.0
50.6157 129.0
50.6255 116.0
50.6354 136.0
50.6452 129.0
50.655 119.0
50.6649 116.0
50.6747 145.0
50.6846 124.0
50.6944 135.0
50.7043 128.0
50.7141 117.0
50.724 120.0
50.7338 120.0
50.7437 106.0
50.7535 129.0
50.7634 120.0
50.7732 119.0
50.7831 120.0
50.7929 98.0
50.8028 111.0
50.8126 108.0
50.8225 140.0
50.8323 112.0
50.8422 123.0
50.852 116.0
50.8619 122.0
50.8717 130.0
50.8815 108.0
50.8914 131.0
50.9012 110.0
50.9111 125.0
50.9209 128.0
50.9308 135.0
50.9406 113.0
50.9505 117.0
50.9603 123.0
50.9702 120.0
50.98 129.0
50.9899 127.0
50.9997 127.0
51.0096 122.0
51.0194 123.0
51.0293 135.0
51.0391 123.0
51.049 124.0
51.0588 129.0
51.0687 120.0
51.0785 144.0
51.0883 142.0
51.0982 112.0
51.108 121.0
51.1179 113.0
51.1277 116.0
51.1376 148.0
51.1474 136.0
51.1573 135.0
51.1671 127.0
51.177 131.0
51.1868 146.0
51.1967 165.0
51.2065 137.0
51.2164 127.0
51.2262 156.0
51.2361 153.0
51.2459 154.0
51.2558 172.0
51.2656 156.0
51.2755 172.0
51.2853 152.0
51.2951 142.0
51.305 157.0
51.3148 176.0
51.3247 171.0
51.3345 174.0
51.3444 166.0
51.3542 160.0
51.3641 164.0
51.3739 183.0
51.3838 149.0
51.3936 189.0
51.4035 160.0
51.4133 173.0
51.4232 183.0
51.433 186.0
51.4429 183.0
51.4527 171.0
51.4626 201.0
51.4724 184.0
51.4823 199.0
51.4921 180.0
51.502 197.0
51.5118 259.0
51.5216 200.0
51.5315 202.0
51.5413 192.0
51.5512 205.0
51.561 191.0
51.5709 212.0
51.5807 211.0
51.5906 214.0
51.6004 196.0
51.6103 266.0
51.6201 200.0
51.63 255.0
51.6398 287.0
51.6497 208.0
51.6595 222.0
51.6694 266.0
51.6792 282.0
51.6891 291.0
51.6989 217.0
51.7088 291.0
51.7186 255.0
51.7284 265.0
51.7383 289.0
51.7481 317.0
51.758 262.0
51.7678 308.0
51.7777 319.0
51.7875 342.0
51.7974 285.0
51.8072 327.0
51.8171 309.0
51.8269 292.0
51.8368 332.0
51.8466 344.0
51.8565 301.0
51.8663 306.0
51.8762 364.0
51.886 335.0
51.8959 345.0
51.9057 358.0
51.9156 374.0
51.9254 381.0
51.9353 374.0
51.9451 384.0
51.9549 450.0
51.9648 443.0
51.9746 413.0
51.9845 460.0
51.9943 400.0
52.0042 438.0
52.014 444.0
52.0239 469.0
52.0337 491.0
52.0436 472.0
52.0534 525.0
52.0633 555.0
52.0731 596.0
52.083 596.0
52.0928 589.0
52.1027 606.0
52.1125 635.0
52.1224 678.0
52.1322 693.0
52.1421 725.0
52.1519 789.0
52.1617 873.0
52.1716 901.0
52.1814 1040.0
52.1913 1103.0
52.2011 1245.0
52.211 1580.0
52.2208 1632.0
52.2307 1854.0
52.2405 2140.0
52.2504 2171.0
52.2602 2210.0
52.2701 2189.0
52.2799 2236.0
52.2898 2117.0
52.2996 2086.0
52.3095 2039.0
52.3193 2032.0
52.3292 2135.0
52.339 2255.0
52.3489 2499.0
52.3587 2741.0
52.3686 3232.0
52.3784 3677.0
52.3882 4425.0
52.3981 5233.0
52.4079 6656.0
52.4178 8301.0
52.4276 10800.0
52.4375 15578.0
52.4473 24502.0
52.4572 43107.0
52.467 90447.0
52.4769 189572.0
52.4867 258866.0
52.4966 250491.0
52.5064 171892.0
52.5163 87563.0
52.5261 46327.0
52.536 27359.0
52.5458 18050.0
52.5557 13924.0
52.5655 12255.0
52.5754 12858.0
52.5852 15726.0
52.595 23267.0
52.6049 42471.0
52.6147 81350.0
52.6246 119800.0
52.6344 126910.0
52.6443 99599.0
52.6541 58421.0
52.664 30837.0
52.6738 17379.0
52.6837 11020.0
52.6935 7711.0
52.7034 5657.0
52.7132 4622.0
52.7231 3857.0
52.7329 3247.0
52.7428 2885.0
52.7526 2536.0
52.7625 2242.0
52.7723 2082.0
52.7822 1815.0
52.792 1708.0
52.8018 1618.0
52.8117 1504.0
52.8215 1340.0
52.8314 1289.0
52.8412 1175.0
52.8511 1133.0
52.8609 1075.0
52.8708 1016.0
52.8806 921.0
52.8905 931.0
52.9003 919.0
52.9102 785.0
52.92 783.0
52.9299 814.0
52.9397 689.0
52.9496 708.0
52.9594 646.0
52.9693 659.0
52.9791 602.0
52.989 627.0
52.9988 515.0
53.0087 563.0
53.0185 543.0
53.0283 507.0
53.0382 543.0
53.048 477.0
53.0579 449.0
53.0677 461.0
53.0776 435.0
53.0874 399.0
53.0973 426.0
53.1071 413.0
53.117 348.0
53.1268 389.0
53.1367 363.0
53.1465 351.0
53.1564 345.0
53.1662 354.0
53.1761 341.0
53.1859 327.0
53.1958 345.0
53.2056 348.0
53.2155 299.0
53.2253 318.0
53.2351 278.0
53.245 303.0
53.2548 266.0
53.2647 288.0
53.2745 286.0
53.2844 289.0
53.2942 270.0
53.3041 276.0
53.3139 304.0
53.3238 270.0
53.3336 189.0
53.3435 258.0
53.3533 261.0
53.3632 207.0
53.373 189.0
53.3829 205.0
53.3927 216.0
53.4026 228.0
53.4124 196.0
53.4223 184.0
53.4321 164.0
53.442 201.0
53.4518 172.0
53.4616 160.0
53.4715 183.0
53.4813 159.0
53.4912 159.0
53.501 145.0
53.5109 167.0
53.5207 150.0
53.5306 147.0
53.5404 146.0
53.5503 155.0
53.5601 149.0
53.57 147.0
53.5798 121.0
53.5897 154.0
53.5995 135.0
53.6094 125.0
53.6192 137.0
53.6291 136.0
53.6389 142.0
53.6488 113.0
53.6586 115.0
53.6684 123.0
53.6783 109.0
53.6881 135.0
53.698 121.0
53.7078 120.0
53.7177 130.0
53.7275 95.0
53.7374 106.0
53.7472 130.0
53.7571 104.0
53.7669 104.0
53.7768 132.0
53.7866 115.0
53.7965 108.0
53.8063 123.0
53.8162 105.0
53.826 105.0
53.8359 101.0
53.8457 91.0
53.8556 108.0
53.8654 94.0
53.8753 85.0
53.8851 92.0
53.8949 96.0
53.9048 96.0
53.9146 106.0
53.9245 95.0
53.9343 96.0
53.9442 95.0
53.954 111.0
53.9639 114.0
53.9737 98.0
53.9836 93.0
53.9934 93.0
54.0033 81.0
54.0131 95.0
54.023 99.0
54.0328 101.0
54.0427 107.0
54.0525 88.0
54.0624 85.0
54.0722 79.0
54.0821 80.0
54.0919 96.0
54.1017 105.0
54.1116 93.0
54.1214 87.0
54.1313 86.0
54.1411 87.0
54.151 78.0
54.1608 85.0
54.1707 102.0
54.1805 76.0
54.1904 81.0
54.2002 75.0
54.2101 72.0
54.2199 76.0
54.2298 85.0
54.2396 79.0
54.2495 86.0
54.2593 98.0
54.2692 80.0
54.279 79.0
54.2889 106.0
54.2987 95.0
54.3085 80.0
54.3184 91.0
54.3282 86.0
54.3381 87.0
54.3479 97.0
54.3578 84.0
54.3676 75.0
54.3775 89.0
54.3873 94.0
54.3972 94.0
54.407 74.0
54.4169 71.0
54.4267 61.0
54.4366 80.0
54.4464 80.0
54.4563 77.0
54.4661 74.0
54.476 78.0
54.4858 78.0
54.4957 68.0
54.5055 77.0
54.5154 64.0
54.5252 86.0
54.535 90.0
54.5449 89.0
54.5547 70.0
54.5646 80.0
54.5744 72.0
54.5843 83.0
54.5941 89.0
54.604 74.0
54.6138 79.0
54.6237 88.0
54.6335 79.0
54.6434 90.0
54.6532 83.0
54.6631 77.0
54.6729 71.0
54.6828 75.0
54.6926 77.0
54.7025 64.0
54.7123 78.0
54.7222 80.0
54.732 65.0
54.7418 67.0
54.7517 66.0
54.7615 66.0
54.7714 76.0
54.7812 58.0
54.7911 62.0
54.8009 58.0
54.8108 82.0
54.8206 79.0
54.8305 69.0
54.8403 83.0
54.8502 71.0
54.86 72.0
54.8699 72.0
54.8797 77.0
54.8896 67.0
54.8994 77.0
54.9093 83.0
54.9191 66.0
54.929 85.0
54.9388 63.0
54.9487 65.0
54.9585 70.0
54.9683 76.0
54.9782 79.0
54.988 68.0
54.9979 87.0