File: data/w6928r/XRD_2ThetaOmega/scan_2th-om_r2_Cr2O3_45-55deg_PIXscan_5min_C1.xy
45.0025 65.0
45.0123 56.0
45.0222 46.0
45.032 63.0
45.0419 61.0
45.0517 51.0
45.0615 54.0
45.0714 60.0
45.0812 48.0
45.0911 52.0
45.1009 56.0
45.1108 45.0
45.1206 40.0
45.1305 52.0
45.1403 47.0
45.1502 51.0
45.16 40.0
45.1699 51.0
45.1797 50.0
45.1896 60.0
45.1994 48.0
45.2093 41.0
45.2191 62.0
45.229 33.0
45.2388 47.0
45.2487 45.0
45.2585 66.0
45.2684 50.0
45.2782 52.0
45.288 51.0
45.2979 58.0
45.3077 50.0
45.3176 53.0
45.3274 52.0
45.3373 42.0
45.3471 50.0
45.357 49.0
45.3668 52.0
45.3767 52.0
45.3865 56.0
45.3964 45.0
45.4062 43.0
45.4161 41.0
45.4259 60.0
45.4358 38.0
45.4456 61.0
45.4555 47.0
45.4653 34.0
45.4752 47.0
45.485 40.0
45.4948 47.0
45.5047 47.0
45.5145 52.0
45.5244 50.0
45.5342 26.0
45.5441 46.0
45.5539 64.0
45.5638 42.0
45.5736 53.0
45.5835 43.0
45.5933 48.0
45.6032 57.0
45.613 41.0
45.6229 52.0
45.6327 49.0
45.6426 55.0
45.6524 56.0
45.6623 56.0
45.6721 57.0
45.682 60.0
45.6918 55.0
45.7016 54.0
45.7115 46.0
45.7213 50.0
45.7312 37.0
45.741 59.0
45.7509 61.0
45.7607 49.0
45.7706 52.0
45.7804 43.0
45.7903 43.0
45.8001 45.0
45.81 47.0
45.8198 48.0
45.8297 49.0
45.8395 50.0
45.8494 60.0
45.8592 44.0
45.8691 65.0
45.8789 47.0
45.8888 50.0
45.8986 53.0
45.9085 53.0
45.9183 46.0
45.9281 42.0
45.938 62.0
45.9478 45.0
45.9577 39.0
45.9675 48.0
45.9774 55.0
45.9872 47.0
45.9971 49.0
46.0069 55.0
46.0168 54.0
46.0266 42.0
46.0365 49.0
46.0463 57.0
46.0562 52.0
46.066 40.0
46.0759 50.0
46.0857 49.0
46.0956 46.0
46.1054 52.0
46.1153 46.0
46.1251 55.0
46.1349 49.0
46.1448 62.0
46.1546 60.0
46.1645 51.0
46.1743 45.0
46.1842 51.0
46.194 49.0
46.2039 47.0
46.2137 46.0
46.2236 52.0
46.2334 49.0
46.2433 54.0
46.2531 52.0
46.263 46.0
46.2728 58.0
46.2827 54.0
46.2925 52.0
46.3024 42.0
46.3122 52.0
46.3221 50.0
46.3319 48.0
46.3418 43.0
46.3516 40.0
46.3614 35.0
46.3713 45.0
46.3811 34.0
46.391 37.0
46.4008 60.0
46.4107 33.0
46.4205 47.0
46.4304 68.0
46.4402 43.0
46.4501 44.0
46.4599 50.0
46.4698 59.0
46.4796 56.0
46.4895 29.0
46.4993 48.0
46.5092 57.0
46.519 48.0
46.5289 41.0
46.5387 53.0
46.5486 41.0
46.5584 47.0
46.5682 52.0
46.5781 36.0
46.5879 52.0
46.5978 39.0
46.6076 52.0
46.6175 55.0
46.6273 57.0
46.6372 48.0
46.647 39.0
46.6569 57.0
46.6667 59.0
46.6766 58.0
46.6864 49.0
46.6963 51.0
46.7061 50.0
46.716 47.0
46.7258 51.0
46.7357 43.0
46.7455 52.0
46.7554 57.0
46.7652 56.0
46.7751 57.0
46.7849 61.0
46.7947 66.0
46.8046 49.0
46.8144 50.0
46.8243 46.0
46.8341 40.0
46.844 63.0
46.8538 62.0
46.8637 58.0
46.8735 54.0
46.8834 60.0
46.8932 58.0
46.9031 49.0
46.9129 46.0
46.9228 55.0
46.9326 58.0
46.9425 65.0
46.9523 60.0
46.9622 64.0
46.972 65.0
46.9819 59.0
46.9917 60.0
47.0015 58.0
47.0114 64.0
47.0212 79.0
47.0311 98.0
47.0409 88.0
47.0508 125.0
47.0606 189.0
47.0705 302.0
47.0803 444.0
47.0902 699.0
47.1 901.0
47.1099 1035.0
47.1197 870.0
47.1296 645.0
47.1394 447.0
47.1493 322.0
47.1591 257.0
47.169 255.0
47.1788 186.0
47.1887 171.0
47.1985 141.0
47.2083 105.0
47.2182 100.0
47.228 80.0
47.2379 81.0
47.2477 78.0
47.2576 76.0
47.2674 74.0
47.2773 62.0
47.2871 74.0
47.297 70.0
47.3068 82.0
47.3167 66.0
47.3265 64.0
47.3364 81.0
47.3462 59.0
47.3561 65.0
47.3659 59.0
47.3758 60.0
47.3856 67.0
47.3955 55.0
47.4053 55.0
47.4152 67.0
47.425 48.0
47.4348 66.0
47.4447 74.0
47.4545 59.0
47.4644 52.0
47.4742 53.0
47.4841 65.0
47.4939 56.0
47.5038 73.0
47.5136 52.0
47.5235 58.0
47.5333 52.0
47.5432 69.0
47.553 53.0
47.5629 56.0
47.5727 75.0
47.5826 48.0
47.5924 52.0
47.6023 62.0
47.6121 57.0
47.622 63.0
47.6318 67.0
47.6416 62.0
47.6515 60.0
47.6613 62.0
47.6712 53.0
47.681 59.0
47.6909 58.0
47.7007 55.0
47.7106 75.0
47.7204 62.0
47.7303 53.0
47.7401 50.0
47.75 58.0
47.7598 55.0
47.7697 63.0
47.7795 52.0
47.7894 52.0
47.7992 57.0
47.8091 63.0
47.8189 62.0
47.8288 64.0
47.8386 56.0
47.8485 57.0
47.8583 62.0
47.8681 54.0
47.878 59.0
47.8878 58.0
47.8977 58.0
47.9075 63.0
47.9174 64.0
47.9272 65.0
47.9371 61.0
47.9469 60.0
47.9568 66.0
47.9666 51.0
47.9765 58.0
47.9863 52.0
47.9962 69.0
48.006 50.0
48.0159 42.0
48.0257 53.0
48.0356 50.0
48.0454 62.0
48.0553 59.0
48.0651 61.0
48.0749 55.0
48.0848 60.0
48.0946 59.0
48.1045 72.0
48.1143 50.0
48.1242 56.0
48.134 61.0
48.1439 63.0
48.1537 53.0
48.1636 42.0
48.1734 57.0
48.1833 59.0
48.1931 50.0
48.203 63.0
48.2128 59.0
48.2227 54.0
48.2325 45.0
48.2424 49.0
48.2522 66.0
48.2621 62.0
48.2719 58.0
48.2818 55.0
48.2916 52.0
48.3014 58.0
48.3113 61.0
48.3211 61.0
48.331 56.0
48.3408 60.0
48.3507 54.0
48.3605 41.0
48.3704 56.0
48.3802 60.0
48.3901 48.0
48.3999 66.0
48.4098 70.0
48.4196 64.0
48.4295 68.0
48.4393 60.0
48.4492 49.0
48.459 69.0
48.4689 78.0
48.4787 64.0
48.4886 54.0
48.4984 62.0
48.5082 60.0
48.5181 57.0
48.5279 56.0
48.5378 66.0
48.5476 47.0
48.5575 69.0
48.5673 40.0
48.5772 60.0
48.587 56.0
48.5969 70.0
48.6067 54.0
48.6166 63.0
48.6264 66.0
48.6363 53.0
48.6461 53.0
48.656 64.0
48.6658 64.0
48.6757 64.0
48.6855 59.0
48.6954 64.0
48.7052 55.0
48.715 62.0
48.7249 67.0
48.7347 87.0
48.7446 82.0
48.7544 53.0
48.7643 63.0
48.7741 72.0
48.784 69.0
48.7938 67.0
48.8037 65.0
48.8135 80.0
48.8234 66.0
48.8332 76.0
48.8431 74.0
48.8529 67.0
48.8628 70.0
48.8726 76.0
48.8825 71.0
48.8923 80.0
48.9022 80.0
48.912 70.0
48.9219 67.0
48.9317 81.0
48.9415 60.0
48.9514 71.0
48.9612 83.0
48.9711 62.0
48.9809 60.0
48.9908 83.0
49.0006 84.0
49.0105 63.0
49.0203 81.0
49.0302 73.0
49.04 78.0
49.0499 80.0
49.0597 86.0
49.0696 104.0
49.0794 74.0
49.0893 88.0
49.0991 83.0
49.109 95.0
49.1188 81.0
49.1287 89.0
49.1385 92.0
49.1483 86.0
49.1582 100.0
49.168 77.0
49.1779 107.0
49.1877 86.0
49.1976 109.0
49.2074 81.0
49.2173 88.0
49.2271 105.0
49.237 99.0
49.2468 98.0
49.2567 117.0
49.2665 106.0
49.2764 123.0
49.2862 130.0
49.2961 103.0
49.3059 116.0
49.3158 116.0
49.3256 113.0
49.3355 121.0
49.3453 124.0
49.3552 123.0
49.365 142.0
49.3748 138.0
49.3847 132.0
49.3945 114.0
49.4044 146.0
49.4142 129.0
49.4241 152.0
49.4339 141.0
49.4438 167.0
49.4536 172.0
49.4635 168.0
49.4733 159.0
49.4832 173.0
49.493 161.0
49.5029 200.0
49.5127 210.0
49.5226 220.0
49.5324 196.0
49.5423 213.0
49.5521 237.0
49.562 255.0
49.5718 281.0
49.5816 286.0
49.5915 286.0
49.6013 299.0
49.6112 303.0
49.621 337.0
49.6309 347.0
49.6407 350.0
49.6506 393.0
49.6604 411.0
49.6703 400.0
49.6801 465.0
49.69 504.0
49.6998 524.0
49.7097 535.0
49.7195 591.0
49.7294 634.0
49.7392 703.0
49.7491 781.0
49.7589 878.0
49.7688 902.0
49.7786 952.0
49.7884 1053.0
49.7983 1122.0
49.8081 1246.0
49.818 1309.0
49.8278 1373.0
49.8377 1542.0
49.8475 1573.0
49.8574 1775.0
49.8672 1831.0
49.8771 1956.0
49.8869 2156.0
49.8968 2279.0
49.9066 2330.0
49.9165 2615.0
49.9263 2703.0
49.9362 2715.0
49.946 2844.0
49.9559 2870.0
49.9657 2926.0
49.9756 2913.0
49.9854 2820.0
49.9953 2728.0
50.0051 2730.0
50.0149 2624.0
50.0248 2565.0
50.0346 2450.0
50.0445 2408.0
50.0543 2333.0
50.0642 2319.0
50.074 2149.0
50.0839 2068.0
50.0937 2019.0
50.1036 1899.0
50.1134 1743.0
50.1233 1625.0
50.1331 1548.0
50.143 1578.0
50.1528 1291.0
50.1627 1309.0
50.1725 1186.0
50.1824 1051.0
50.1922 963.0
50.2021 932.0
50.2119 872.0
50.2217 745.0
50.2316 724.0
50.2414 686.0
50.2513 611.0
50.2611 596.0
50.271 515.0
50.2808 510.0
50.2907 456.0
50.3005 450.0
50.3104 420.0
50.3202 400.0
50.3301 357.0
50.3399 378.0
50.3498 375.0
50.3596 322.0
50.3695 302.0
50.3793 297.0
50.3892 237.0
50.399 298.0
50.4089 284.0
50.4187 237.0
50.4286 241.0
50.4384 200.0
50.4482 220.0
50.4581 202.0
50.4679 199.0
50.4778 206.0
50.4876 192.0
50.4975 198.0
50.5073 158.0
50.5172 188.0
50.527 183.0
50.5369 179.0
50.5467 182.0
50.5566 171.0
50.5664 178.0
50.5763 168.0
50.5861 148.0
50.596 157.0
50.6058 137.0
50.6157 139.0
50.6255 122.0
50.6354 156.0
50.6452 121.0
50.655 126.0
50.6649 139.0
50.6747 139.0
50.6846 138.0
50.6944 125.0
50.7043 134.0
50.7141 125.0
50.724 121.0
50.7338 103.0
50.7437 118.0
50.7535 114.0
50.7634 129.0
50.7732 127.0
50.7831 117.0
50.7929 104.0
50.8028 127.0
50.8126 126.0
50.8225 142.0
50.8323 113.0
50.8422 118.0
50.852 122.0
50.8619 104.0
50.8717 115.0
50.8815 134.0
50.8914 119.0
50.9012 120.0
50.9111 121.0
50.9209 131.0
50.9308 127.0
50.9406 135.0
50.9505 130.0
50.9603 110.0
50.9702 117.0
50.98 101.0
50.9899 136.0
50.9997 118.0
51.0096 105.0
51.0194 126.0
51.0293 148.0
51.0391 112.0
51.049 143.0
51.0588 146.0
51.0687 119.0
51.0785 123.0
51.0883 125.0
51.0982 132.0
51.108 143.0
51.1179 98.0
51.1277 130.0
51.1376 126.0
51.1474 134.0
51.1573 130.0
51.1671 142.0
51.177 141.0
51.1868 125.0
51.1967 157.0
51.2065 119.0
51.2164 141.0
51.2262 144.0
51.2361 125.0
51.2459 134.0
51.2558 141.0
51.2656 150.0
51.2755 158.0
51.2853 147.0
51.2951 158.0
51.305 150.0
51.3148 167.0
51.3247 160.0
51.3345 167.0
51.3444 191.0
51.3542 174.0
51.3641 169.0
51.3739 163.0
51.3838 168.0
51.3936 162.0
51.4035 180.0
51.4133 168.0
51.4232 181.0
51.433 166.0
51.4429 176.0
51.4527 195.0
51.4626 213.0
51.4724 175.0
51.4823 189.0
51.4921 179.0
51.502 197.0
51.5118 201.0
51.5216 200.0
51.5315 194.0
51.5413 188.0
51.5512 193.0
51.561 210.0
51.5709 180.0
51.5807 200.0
51.5906 259.0
51.6004 217.0
51.6103 211.0
51.6201 265.0
51.63 269.0
51.6398 213.0
51.6497 264.0
51.6595 263.0
51.6694 271.0
51.6792 265.0
51.6891 277.0
51.6989 286.0
51.7088 279.0
51.7186 278.0
51.7284 334.0
51.7383 299.0
51.7481 280.0
51.758 312.0
51.7678 295.0
51.7777 349.0
51.7875 308.0
51.7974 347.0
51.8072 352.0
51.8171 288.0
51.8269 328.0
51.8368 326.0
51.8466 364.0
51.8565 374.0
51.8663 368.0
51.8762 363.0
51.886 376.0
51.8959 399.0
51.9057 362.0
51.9156 377.0
51.9254 390.0
51.9353 413.0
51.9451 386.0
51.9549 419.0
51.9648 438.0
51.9746 445.0
51.9845 427.0
51.9943 459.0
52.0042 456.0
52.014 492.0
52.0239 497.0
52.0337 526.0
52.0436 520.0
52.0534 488.0
52.0633 518.0
52.0731 609.0
52.083 614.0
52.0928 616.0
52.1027 631.0
52.1125 722.0
52.1224 677.0
52.1322 733.0
52.1421 743.0
52.1519 769.0
52.1617 790.0
52.1716 936.0
52.1814 937.0
52.1913 1176.0
52.2011 1241.0
52.211 1484.0
52.2208 1702.0
52.2307 1880.0
52.2405 2189.0
52.2504 2248.0
52.2602 2340.0
52.2701 2373.0
52.2799 2395.0
52.2898 2448.0
52.2996 2332.0
52.3095 2236.0
52.3193 2279.0
52.3292 2261.0
52.339 2438.0
52.3489 2552.0
52.3587 2840.0
52.3686 3241.0
52.3784 3535.0
52.3882 4174.0
52.3981 5030.0
52.4079 6092.0
52.4178 7633.0
52.4276 9796.0
52.4375 13175.0
52.4473 18995.0
52.4572 29979.0
52.467 55645.0
52.4769 123607.0
52.4867 235212.0
52.4966 286996.0
52.5064 257353.0
52.5163 155821.0
52.5261 78411.0
52.536 42468.0
52.5458 26014.0
52.5557 17646.0
52.5655 14247.0
52.5754 13098.0
52.5852 14230.0
52.595 18612.0
52.6049 28977.0
52.6147 55230.0
52.6246 101382.0
52.6344 135189.0
52.6443 132479.0
52.6541 93719.0
52.664 51891.0
52.6738 27910.0
52.6837 16405.0
52.6935 10634.0
52.7034 7516.0
52.7132 5700.0
52.7231 4553.0
52.7329 3904.0
52.7428 3302.0
52.7526 2900.0
52.7625 2595.0
52.7723 2276.0
52.7822 2174.0
52.792 2015.0
52.8018 1862.0
52.8117 1664.0
52.8215 1546.0
52.8314 1418.0
52.8412 1379.0
52.8511 1300.0
52.8609 1230.0
52.8708 1109.0
52.8806 1053.0
52.8905 1047.0
52.9003 954.0
52.9102 975.0
52.92 936.0
52.9299 791.0
52.9397 790.0
52.9496 810.0
52.9594 747.0
52.9693 686.0
52.9791 650.0
52.989 613.0
52.9988 644.0
53.0087 583.0
53.0185 552.0
53.0283 597.0
53.0382 600.0
53.048 553.0
53.0579 515.0
53.0677 485.0
53.0776 491.0
53.0874 434.0
53.0973 426.0
53.1071 434.0
53.117 444.0
53.1268 446.0
53.1367 405.0
53.1465 412.0
53.1564 360.0
53.1662 383.0
53.1761 346.0
53.1859 389.0
53.1958 328.0
53.2056 343.0
53.2155 328.0
53.2253 336.0
53.2351 306.0
53.245 326.0
53.2548 215.0
53.2647 288.0
53.2745 288.0
53.2844 262.0
53.2942 263.0
53.3041 255.0
53.3139 201.0
53.3238 211.0
53.3336 262.0
53.3435 213.0
53.3533 206.0
53.3632 209.0
53.373 211.0
53.3829 183.0
53.3927 189.0
53.4026 197.0
53.4124 170.0
53.4223 206.0
53.4321 192.0
53.442 199.0
53.4518 174.0
53.4616 172.0
53.4715 165.0
53.4813 173.0
53.4912 164.0
53.501 167.0
53.5109 167.0
53.5207 166.0
53.5306 161.0
53.5404 140.0
53.5503 135.0
53.5601 144.0
53.57 157.0
53.5798 141.0
53.5897 119.0
53.5995 128.0
53.6094 127.0
53.6192 162.0
53.6291 135.0
53.6389 132.0
53.6488 126.0
53.6586 140.0
53.6684 119.0
53.6783 123.0
53.6881 115.0
53.698 131.0
53.7078 124.0
53.7177 86.0
53.7275 107.0
53.7374 112.0
53.7472 108.0
53.7571 103.0
53.7669 95.0
53.7768 101.0
53.7866 115.0
53.7965 111.0
53.8063 107.0
53.8162 82.0
53.826 100.0
53.8359 97.0
53.8457 101.0
53.8556 94.0
53.8654 102.0
53.8753 98.0
53.8851 84.0
53.8949 92.0
53.9048 80.0
53.9146 90.0
53.9245 103.0
53.9343 117.0
53.9442 82.0
53.954 89.0
53.9639 87.0
53.9737 94.0
53.9836 87.0
53.9934 100.0
54.0033 97.0
54.0131 73.0
54.023 71.0
54.0328 78.0
54.0427 71.0
54.0525 76.0
54.0624 73.0
54.0722 80.0
54.0821 83.0
54.0919 84.0
54.1017 101.0
54.1116 81.0
54.1214 94.0
54.1313 73.0
54.1411 75.0
54.151 70.0
54.1608 70.0
54.1707 78.0
54.1805 72.0
54.1904 97.0
54.2002 73.0
54.2101 77.0
54.2199 86.0
54.2298 75.0
54.2396 81.0
54.2495 69.0
54.2593 70.0
54.2692 63.0
54.279 73.0
54.2889 79.0
54.2987 96.0
54.3085 70.0
54.3184 79.0
54.3282 82.0
54.3381 72.0
54.3479 69.0
54.3578 60.0
54.3676 79.0
54.3775 69.0
54.3873 79.0
54.3972 72.0
54.407 70.0
54.4169 77.0
54.4267 77.0
54.4366 69.0
54.4464 65.0
54.4563 65.0
54.4661 58.0
54.476 68.0
54.4858 61.0
54.4957 70.0
54.5055 75.0
54.5154 65.0
54.5252 62.0
54.535 63.0
54.5449 67.0
54.5547 60.0
54.5646 67.0
54.5744 65.0
54.5843 83.0
54.5941 72.0
54.604 76.0
54.6138 63.0
54.6237 58.0
54.6335 57.0
54.6434 74.0
54.6532 59.0
54.6631 70.0
54.6729 71.0
54.6828 66.0
54.6926 64.0
54.7025 60.0
54.7123 84.0
54.7222 74.0
54.732 71.0
54.7418 70.0
54.7517 67.0
54.7615 66.0
54.7714 70.0
54.7812 66.0
54.7911 58.0
54.8009 65.0
54.8108 65.0
54.8206 73.0
54.8305 70.0
54.8403 67.0
54.8502 66.0
54.86 49.0
54.8699 66.0
54.8797 65.0
54.8896 62.0
54.8994 59.0
54.9093 71.0
54.9191 64.0
54.929 66.0
54.9388 63.0
54.9487 66.0
54.9585 47.0
54.9683 56.0
54.9782 69.0
54.988 76.0
54.9979 57.0