File: data/W6776r/XRD_2ThetaOmega/W6776r_absolute_2th-om_10-130deg_PIXscan_17min_10.xy
10.0035 27.0
10.0872 26.0
10.1709 27.0
10.2546 27.0
10.3383 23.0
10.422 26.0
10.5057 17.0
10.5894 28.0
10.6731 17.0
10.7568 28.0
10.8405 21.0
10.9242 20.0
11.0079 19.0
11.0916 26.0
11.1753 28.0
11.259 18.0
11.3428 33.0
11.4265 33.0
11.5102 22.0
11.5939 29.0
11.6776 19.0
11.7613 14.0
11.845 19.0
11.9287 17.0
12.0124 21.0
12.0961 26.0
12.1798 22.0
12.2635 21.0
12.3472 29.0
12.4309 26.0
12.5146 21.0
12.5983 24.0
12.682 30.0
12.7657 23.0
12.8495 19.0
12.9332 16.0
13.0169 29.0
13.1006 32.0
13.1843 19.0
13.268 28.0
13.3517 20.0
13.4354 30.0
13.5191 20.0
13.6028 17.0
13.6865 18.0
13.7702 24.0
13.8539 21.0
13.9376 21.0
14.0213 20.0
14.105 18.0
14.1887 21.0
14.2724 15.0
14.3562 18.0
14.4399 15.0
14.5236 17.0
14.6073 12.0
14.691 29.0
14.7747 20.0
14.8584 15.0
14.9421 13.0
15.0258 18.0
15.1095 20.0
15.1932 21.0
15.2769 21.0
15.3606 22.0
15.4443 16.0
15.528 20.0
15.6117 10.0
15.6954 15.0
15.7791 13.0
15.8629 18.0
15.9466 22.0
16.0303 18.0
16.114 20.0
16.1977 10.0
16.2814 21.0
16.3651 21.0
16.4488 21.0
16.5325 23.0
16.6162 7.0
16.6999 21.0
16.7836 20.0
16.8673 15.0
16.951 21.0
17.0347 21.0
17.1184 20.0
17.2021 9.0
17.2858 21.0
17.3696 25.0
17.4533 16.0
17.537 10.0
17.6207 9.0
17.7044 20.0
17.7881 13.0
17.8718 15.0
17.9555 18.0
18.0392 14.0
18.1229 20.0
18.2066 20.0
18.2903 20.0
18.374 18.0
18.4577 10.0
18.5414 23.0
18.6251 22.0
18.7088 27.0
18.7925 18.0
18.8763 16.0
18.96 18.0
19.0437 24.0
19.1274 12.0
19.2111 18.0
19.2948 16.0
19.3785 14.0
19.4622 9.0
19.5459 28.0
19.6296 16.0
19.7133 22.0
19.797 12.0
19.8807 23.0
19.9644 14.0
20.0481 16.0
20.1318 18.0
20.2155 18.0
20.2992 14.0
20.383 16.0
20.4667 22.0
20.5504 18.0
20.6341 19.0
20.7178 15.0
20.8015 19.0
20.8852 14.0
20.9689 16.0
21.0526 21.0
21.1363 21.0
21.22 19.0
21.3037 14.0
21.3874 16.0
21.4711 32.0
21.5548 16.0
21.6385 27.0
21.7222 18.0
21.8059 14.0
21.8897 21.0
21.9734 31.0
22.0571 17.0
22.1408 21.0
22.2245 16.0
22.3082 18.0
22.3919 22.0
22.4756 19.0
22.5593 16.0
22.643 22.0
22.7267 26.0
22.8104 19.0
22.8941 20.0
22.9778 33.0
23.0615 59.0
23.1452 21.0
23.2289 30.0
23.3126 33.0
23.3964 25.0
23.4801 28.0
23.5638 28.0
23.6475 26.0
23.7312 39.0
23.8149 56.0
23.8986 60.0
23.9823 77.0
24.066 109.0
24.1497 205.0
24.2334 711.0
24.3171 3330.0
24.4008 2915.0
24.4845 803.0
24.5682 236.0
24.6519 190.0
24.7356 85.0
24.8193 89.0
24.9031 78.0
24.9868 65.0
25.0705 98.0
25.1542 121.0
25.2379 170.0
25.3216 207.0
25.4053 747.0
25.489 8622.0
25.5727 23916.0
25.6564 1172.0
25.7401 389.0
25.8238 276.0
25.9075 176.0
25.9912 104.0
26.0749 109.0
26.1586 79.0
26.2423 51.0
26.326 48.0
26.4098 30.0
26.4935 30.0
26.5772 27.0
26.6609 27.0
26.7446 24.0
26.8283 31.0
26.912 23.0
26.9957 24.0
27.0794 13.0
27.1631 20.0
27.2468 19.0
27.3305 23.0
27.4142 17.0
27.4979 18.0
27.5816 23.0
27.6653 13.0
27.749 25.0
27.8327 16.0
27.9165 20.0
28.0002 17.0
28.0839 19.0
28.1676 12.0
28.2513 17.0
28.335 19.0
28.4187 18.0
28.5024 18.0
28.5861 20.0
28.6698 5.0
28.7535 15.0
28.8372 17.0
28.9209 17.0
29.0046 19.0
29.0883 15.0
29.172 22.0
29.2557 9.0
29.3394 15.0
29.4232 13.0
29.5069 13.0
29.5906 16.0
29.6743 23.0
29.758 20.0
29.8417 15.0
29.9254 18.0
30.0091 13.0
30.0928 12.0
30.1765 16.0
30.2602 11.0
30.3439 7.0
30.4276 9.0
30.5113 25.0
30.595 18.0
30.6787 19.0
30.7624 13.0
30.8461 20.0
30.9298 15.0
31.0136 9.0
31.0973 12.0
31.181 16.0
31.2647 13.0
31.3484 13.0
31.4321 24.0
31.5158 12.0
31.5995 15.0
31.6832 16.0
31.7669 14.0
31.8506 15.0
31.9343 13.0
32.018 17.0
32.1017 26.0
32.1854 17.0
32.2691 11.0
32.3528 18.0
32.4365 13.0
32.5203 12.0
32.604 16.0
32.6877 10.0
32.7714 9.0
32.8551 11.0
32.9388 17.0
33.0225 21.0
33.1062 12.0
33.1899 10.0
33.2736 9.0
33.3573 9.0
33.441 20.0
33.5247 23.0
33.6084 12.0
33.6921 18.0
33.7758 8.0
33.8595 10.0
33.9432 23.0
34.027 12.0
34.1107 12.0
34.1944 14.0
34.2781 13.0
34.3618 13.0
34.4455 11.0
34.5292 15.0
34.6129 11.0
34.6966 11.0
34.7803 12.0
34.864 17.0
34.9477 16.0
35.0314 12.0
35.1151 12.0
35.1988 13.0
35.2825 20.0
35.3662 10.0
35.4499 17.0
35.5337 19.0
35.6174 17.0
35.7011 14.0
35.7848 23.0
35.8685 12.0
35.9522 10.0
36.0359 9.0
36.1196 9.0
36.2033 16.0
36.287 10.0
36.3707 15.0
36.4544 12.0
36.5381 13.0
36.6218 11.0
36.7055 11.0
36.7892 16.0
36.8729 15.0
36.9566 3.0
37.0404 17.0
37.1241 16.0
37.2078 8.0
37.2915 14.0
37.3752 9.0
37.4589 11.0
37.5426 9.0
37.6263 16.0
37.71 9.0
37.7937 20.0
37.8774 21.0
37.9611 14.0
38.0448 9.0
38.1285 11.0
38.2122 13.0
38.2959 17.0
38.3796 14.0
38.4633 14.0
38.5471 6.0
38.6308 20.0
38.7145 16.0
38.7982 15.0
38.8819 14.0
38.9656 17.0
39.0493 13.0
39.133 20.0
39.2167 16.0
39.3004 14.0
39.3841 18.0
39.4678 20.0
39.5515 15.0
39.6352 12.0
39.7189 14.0
39.8026 20.0
39.8863 10.0
39.97 15.0
40.0538 6.0
40.1375 18.0
40.2212 12.0
40.3049 13.0
40.3886 11.0
40.4723 13.0
40.556 15.0
40.6397 17.0
40.7234 10.0
40.8071 6.0
40.8908 13.0
40.9745 11.0
41.0582 14.0
41.1419 15.0
41.2256 18.0
41.3093 12.0
41.393 13.0
41.4767 14.0
41.5605 20.0
41.6442 16.0
41.7279 20.0
41.8116 24.0
41.8953 16.0
41.979 10.0
42.0627 12.0
42.1464 15.0
42.2301 14.0
42.3138 15.0
42.3975 14.0
42.4812 12.0
42.5649 15.0
42.6486 12.0
42.7323 17.0
42.816 16.0
42.8997 12.0
42.9834 15.0
43.0672 11.0
43.1509 11.0
43.2346 21.0
43.3183 21.0
43.402 11.0
43.4857 11.0
43.5694 16.0
43.6531 17.0
43.7368 24.0
43.8205 17.0
43.9042 12.0
43.9879 15.0
44.0716 20.0
44.1553 20.0
44.239 30.0
44.3227 27.0
44.4064 20.0
44.4901 24.0
44.5739 23.0
44.6576 27.0
44.7413 16.0
44.825 20.0
44.9087 26.0
44.9924 16.0
45.0761 18.0
45.1598 20.0
45.2435 9.0
45.3272 13.0
45.4109 13.0
45.4946 15.0
45.5783 12.0
45.662 15.0
45.7457 14.0
45.8294 15.0
45.9131 14.0
45.9968 15.0
46.0806 14.0
46.1643 19.0
46.248 9.0
46.3317 17.0
46.4154 13.0
46.4991 16.0
46.5828 9.0
46.6665 17.0
46.7502 13.0
46.8339 19.0
46.9176 22.0
47.0013 18.0
47.085 66.0
47.1687 48.0
47.2524 13.0
47.3361 17.0
47.4198 12.0
47.5035 19.0
47.5873 16.0
47.671 19.0
47.7547 30.0
47.8384 12.0
47.9221 19.0
48.0058 17.0
48.0895 17.0
48.1732 22.0
48.2569 12.0
48.3406 16.0
48.4243 21.0
48.508 24.0
48.5917 15.0
48.6754 20.0
48.7591 23.0
48.8428 18.0
48.9265 24.0
49.0102 20.0
49.094 27.0
49.1777 29.0
49.2614 24.0
49.3451 27.0
49.4288 24.0
49.5125 48.0
49.5962 80.0
49.6799 140.0
49.7636 287.0
49.8473 705.0
49.931 1250.0
50.0147 1063.0
50.0984 744.0
50.1821 553.0
50.2658 155.0
50.3495 76.0
50.4332 69.0
50.5169 69.0
50.6007 70.0
50.6844 44.0
50.7681 29.0
50.8518 40.0
50.9355 28.0
51.0192 42.0
51.1029 34.0
51.1866 34.0
51.2703 32.0
51.354 35.0
51.4377 53.0
51.5214 61.0
51.6051 49.0
51.6888 60.0
51.7725 68.0
51.8562 69.0
51.9399 86.0
52.0236 103.0
52.1074 116.0
52.1911 276.0
52.2748 493.0
52.3585 567.0
52.4422 3210.0
52.5259 36236.0
52.6096 8983.0
52.6933 4379.0
52.777 576.0
52.8607 335.0
52.9444 192.0
53.0281 143.0
53.1118 130.0
53.1955 119.0
53.2792 86.0
53.3629 86.0
53.4466 77.0
53.5303 54.0
53.6141 44.0
53.6978 37.0
53.7815 37.0
53.8652 46.0
53.9489 20.0
54.0326 30.0
54.1163 22.0
54.2 25.0
54.2837 32.0
54.3674 28.0
54.4511 22.0
54.5348 17.0
54.6185 19.0
54.7022 19.0
54.7859 18.0
54.8696 35.0
54.9533 23.0
55.037 26.0
55.1208 26.0
55.2045 17.0
55.2882 21.0
55.3719 15.0
55.4556 16.0
55.5393 16.0
55.623 15.0
55.7067 18.0
55.7904 20.0
55.8741 13.0
55.9578 23.0
56.0415 25.0
56.1252 17.0
56.2089 23.0
56.2926 27.0
56.3763 12.0
56.46 19.0
56.5437 15.0
56.6275 13.0
56.7112 9.0
56.7949 17.0
56.8786 19.0
56.9623 15.0
57.046 15.0
57.1297 18.0
57.2134 16.0
57.2971 13.0
57.3808 19.0
57.4645 15.0
57.5482 15.0
57.6319 19.0
57.7156 20.0
57.7993 15.0
57.883 15.0
57.9667 22.0
58.0504 18.0
58.1342 12.0
58.2179 14.0
58.3016 11.0
58.3853 12.0
58.469 8.0
58.5527 14.0
58.6364 16.0
58.7201 22.0
58.8038 14.0
58.8875 21.0
58.9712 15.0
59.0549 18.0
59.1386 15.0
59.2223 24.0
59.306 15.0
59.3897 8.0
59.4734 11.0
59.5571 22.0
59.6409 16.0
59.7246 21.0
59.8083 16.0
59.892 13.0
59.9757 23.0
60.0594 14.0
60.1431 9.0
60.2268 16.0
60.3105 23.0
60.3942 15.0
60.4779 20.0
60.5616 9.0
60.6453 10.0
60.729 17.0
60.8127 13.0
60.8964 17.0
60.9801 15.0
61.0638 15.0
61.1476 16.0
61.2313 13.0
61.315 17.0
61.3987 13.0
61.4824 25.0
61.5661 17.0
61.6498 9.0
61.7335 18.0
61.8172 22.0
61.9009 19.0
61.9846 17.0
62.0683 12.0
62.152 7.0
62.2357 9.0
62.3194 16.0
62.4031 14.0
62.4868 17.0
62.5705 17.0
62.6543 17.0
62.738 18.0
62.8217 13.0
62.9054 10.0
62.9891 7.0
63.0728 14.0
63.1565 14.0
63.2402 14.0
63.3239 14.0
63.4076 17.0
63.4913 18.0
63.575 20.0
63.6587 9.0
63.7424 15.0
63.8261 13.0
63.9098 13.0
63.9935 15.0
64.0772 12.0
64.161 14.0
64.2447 20.0
64.3284 13.0
64.4121 14.0
64.4958 12.0
64.5795 12.0
64.6632 26.0
64.7469 18.0
64.8306 20.0
64.9143 14.0
64.998 12.0
65.0817 19.0
65.1654 10.0
65.2491 15.0
65.3328 18.0
65.4165 14.0
65.5002 19.0
65.5839 14.0
65.6677 20.0
65.7514 15.0
65.8351 16.0
65.9188 14.0
66.0025 11.0
66.0862 16.0
66.1699 17.0
66.2536 16.0
66.3373 18.0
66.421 23.0
66.5047 13.0
66.5884 21.0
66.6721 14.0
66.7558 12.0
66.8395 23.0
66.9232 15.0
67.0069 11.0
67.0906 9.0
67.1744 13.0
67.2581 23.0
67.3418 18.0
67.4255 10.0
67.5092 15.0
67.5929 15.0
67.6766 17.0
67.7603 23.0
67.844 12.0
67.9277 10.0
68.0114 20.0
68.0951 15.0
68.1788 9.0
68.2625 9.0
68.3462 12.0
68.4299 15.0
68.5136 10.0
68.5973 16.0
68.6811 17.0
68.7648 7.0
68.8485 16.0
68.9322 14.0
69.0159 19.0
69.0996 19.0
69.1833 17.0
69.267 11.0
69.3507 10.0
69.4344 9.0
69.5181 18.0
69.6018 12.0
69.6855 12.0
69.7692 4.0
69.8529 24.0
69.9366 17.0
70.0203 5.0
70.104 15.0
70.1878 9.0
70.2715 14.0
70.3552 12.0
70.4389 14.0
70.5226 25.0
70.6063 17.0
70.69 13.0
70.7737 19.0
70.8574 12.0
70.9411 18.0
71.0248 15.0
71.1085 15.0
71.1922 18.0
71.2759 9.0
71.3596 18.0
71.4433 17.0
71.527 12.0
71.6107 19.0
71.6945 6.0
71.7782 20.0
71.8619 14.0
71.9456 9.0
72.0293 12.0
72.113 12.0
72.1967 15.0
72.2804 12.0
72.3641 12.0
72.4478 14.0
72.5315 31.0
72.6152 15.0
72.6989 17.0
72.7826 24.0
72.8663 13.0
72.95 11.0
73.0337 15.0
73.1174 20.0
73.2012 11.0
73.2849 12.0
73.3686 13.0
73.4523 11.0
73.536 19.0
73.6197 11.0
73.7034 22.0
73.7871 18.0
73.8708 10.0
73.9545 13.0
74.0382 9.0
74.1219 17.0
74.2056 13.0
74.2893 21.0
74.373 9.0
74.4567 17.0
74.5404 16.0
74.6241 19.0
74.7079 15.0
74.7916 14.0
74.8753 15.0
74.959 13.0
75.0427 21.0
75.1264 18.0
75.2101 11.0
75.2938 21.0
75.3775 10.0
75.4612 22.0
75.5449 16.0
75.6286 5.0
75.7123 20.0
75.796 20.0
75.8797 14.0
75.9634 12.0
76.0471 15.0
76.1308 24.0
76.2146 12.0
76.2983 10.0
76.382 15.0
76.4657 18.0
76.5494 10.0
76.6331 14.0
76.7168 10.0
76.8005 12.0
76.8842 14.0
76.9679 19.0
77.0516 10.0
77.1353 15.0
77.219 9.0
77.3027 19.0
77.3864 10.0
77.4701 13.0
77.5538 15.0
77.6375 25.0
77.7213 12.0
77.805 14.0
77.8887 13.0
77.9724 21.0
78.0561 15.0
78.1398 15.0
78.2235 20.0
78.3072 27.0
78.3909 33.0
78.4746 34.0
78.5583 74.0
78.642 69.0
78.7257 84.0
78.8094 47.0
78.8931 59.0
78.9768 57.0
79.0605 31.0
79.1442 30.0
79.228 13.0
79.3117 15.0
79.3954 13.0
79.4791 11.0
79.5628 17.0
79.6465 13.0
79.7302 12.0
79.8139 17.0
79.8976 17.0
79.9813 16.0
80.065 17.0
80.1487 16.0
80.2324 12.0
80.3161 7.0
80.3998 11.0
80.4835 18.0
80.5672 14.0
80.6509 12.0
80.7347 15.0
80.8184 10.0
80.9021 13.0
80.9858 12.0
81.0695 19.0
81.1532 11.0
81.2369 19.0
81.3206 14.0
81.4043 26.0
81.488 20.0
81.5717 23.0
81.6554 18.0
81.7391 18.0
81.8228 7.0
81.9065 22.0
81.9902 31.0
82.0739 23.0
82.1576 21.0
82.2414 18.0
82.3251 24.0
82.4088 17.0
82.4925 19.0
82.5762 17.0
82.6599 23.0
82.7436 26.0
82.8273 27.0
82.911 29.0
82.9947 46.0
83.0784 101.0
83.1621 2038.0
83.2458 345.0
83.3295 107.0
83.4132 946.0
83.4969 176.0
83.5806 40.0
83.6643 37.0
83.7481 28.0
83.8318 24.0
83.9155 18.0
83.9992 20.0
84.0829 17.0
84.1666 20.0
84.2503 16.0
84.334 15.0
84.4177 14.0
84.5014 24.0
84.5851 19.0
84.6688 16.0
84.7525 19.0
84.8362 17.0
84.9199 15.0
85.0036 18.0
85.0873 13.0
85.171 15.0
85.2548 11.0
85.3385 17.0
85.4222 18.0
85.5059 20.0
85.5896 17.0
85.6733 13.0
85.757 10.0
85.8407 11.0
85.9244 19.0
86.0081 12.0
86.0918 21.0
86.1755 15.0
86.2592 18.0
86.3429 7.0
86.4266 13.0
86.5103 21.0
86.594 15.0
86.6777 15.0
86.7615 15.0
86.8452 14.0
86.9289 19.0
87.0126 12.0
87.0963 19.0
87.18 14.0
87.2637 13.0
87.3474 16.0
87.4311 14.0
87.5148 20.0
87.5985 14.0
87.6822 20.0
87.7659 15.0
87.8496 21.0
87.9333 13.0
88.017 12.0
88.1007 16.0
88.1844 15.0
88.2682 13.0
88.3519 18.0
88.4356 10.0
88.5193 17.0
88.603 19.0
88.6867 18.0
88.7704 12.0
88.8541 15.0
88.9378 22.0
89.0215 10.0
89.1052 11.0
89.1889 9.0
89.2726 18.0
89.3563 17.0
89.44 13.0
89.5237 19.0
89.6074 14.0
89.6911 9.0
89.7749 20.0
89.8586 16.0
89.9423 15.0
90.026 6.0
90.1097 15.0
90.1934 20.0
90.2771 16.0
90.3608 19.0
90.4445 14.0
90.5282 11.0
90.6119 14.0
90.6956 18.0
90.7793 12.0
90.863 11.0
90.9467 14.0
91.0304 13.0
91.1141 16.0
91.1978 14.0
91.2816 12.0
91.3653 13.0
91.449 18.0
91.5327 6.0
91.6164 14.0
91.7001 12.0
91.7838 17.0
91.8675 22.0
91.9512 12.0
92.0349 18.0
92.1186 25.0
92.2023 19.0
92.286 15.0
92.3697 13.0
92.4534 18.0
92.5371 9.0
92.6208 14.0
92.7045 9.0
92.7883 15.0
92.872 11.0
92.9557 11.0
93.0394 12.0
93.1231 11.0
93.2068 11.0
93.2905 16.0
93.3742 15.0
93.4579 16.0
93.5416 18.0
93.6253 14.0
93.709 13.0
93.7927 16.0
93.8764 15.0
93.9601 16.0
94.0438 15.0
94.1275 17.0
94.2112 24.0
94.295 15.0
94.3787 8.0
94.4624 10.0
94.5461 16.0
94.6298 12.0
94.7135 17.0
94.7972 13.0
94.8809 24.0
94.9646 12.0
95.0483 12.0
95.132 20.0
95.2157 8.0
95.2994 14.0
95.3831 9.0
95.4668 7.0
95.5505 16.0
95.6342 19.0
95.7179 19.0
95.8017 15.0
95.8854 13.0
95.9691 15.0
96.0528 15.0
96.1365 16.0
96.2202 12.0
96.3039 21.0
96.3876 16.0
96.4713 13.0
96.555 15.0
96.6387 7.0
96.7224 12.0
96.8061 15.0
96.8898 14.0
96.9735 11.0
97.0572 8.0
97.1409 20.0
97.2246 18.0
97.3084 14.0
97.3921 19.0
97.4758 13.0
97.5595 13.0
97.6432 20.0
97.7269 17.0
97.8106 9.0
97.8943 15.0
97.978 15.0
98.0617 13.0
98.1454 11.0
98.2291 19.0
98.3128 16.0
98.3965 17.0
98.4802 14.0
98.5639 10.0
98.6476 13.0
98.7313 14.0
98.8151 15.0
98.8988 17.0
98.9825 15.0
99.0662 12.0
99.1499 12.0
99.2336 20.0
99.3173 19.0
99.401 12.0
99.4847 14.0
99.5684 15.0
99.6521 7.0
99.7358 7.0
99.8195 5.0
99.9032 13.0
99.9869 11.0
100.071 21.0
100.154 16.0
100.238 20.0
100.322 14.0
100.405 15.0
100.489 14.0
100.573 13.0
100.657 13.0
100.74 12.0
100.824 14.0
100.908 15.0
100.991 13.0
101.075 8.0
101.159 10.0
101.243 10.0
101.326 16.0
101.41 10.0
101.494 13.0
101.577 14.0
101.661 20.0
101.745 14.0
101.828 13.0
101.912 16.0
101.996 18.0
102.08 15.0
102.163 10.0
102.247 9.0
102.331 12.0
102.414 11.0
102.498 10.0
102.582 20.0
102.666 18.0
102.749 18.0
102.833 16.0
102.917 16.0
103 15.0
103.084 9.0
103.168 21.0
103.251 16.0
103.335 14.0
103.419 8.0
103.503 15.0
103.586 10.0
103.67 15.0
103.754 16.0
103.837 20.0
103.921 16.0
104.005 14.0
104.089 7.0
104.172 25.0
104.256 15.0
104.34 17.0
104.423 17.0
104.507 12.0
104.591 7.0
104.674 22.0
104.758 12.0
104.842 14.0
104.926 13.0
105.009 16.0
105.093 8.0
105.177 12.0
105.26 15.0
105.344 18.0
105.428 11.0
105.511 15.0
105.595 11.0
105.679 15.0
105.763 19.0
105.846 20.0
105.93 16.0
106.014 12.0
106.097 20.0
106.181 26.0
106.265 29.0
106.349 25.0
106.432 18.0
106.516 19.0
106.6 17.0
106.683 14.0
106.767 19.0
106.851 12.0
106.934 17.0
107.018 11.0
107.102 18.0
107.186 17.0
107.269 10.0
107.353 11.0
107.437 14.0
107.52 18.0
107.604 18.0
107.688 15.0
107.772 13.0
107.855 12.0
107.939 9.0
108.023 16.0
108.106 17.0
108.19 13.0
108.274 17.0
108.357 15.0
108.441 19.0
108.525 14.0
108.609 8.0
108.692 11.0
108.776 16.0
108.86 13.0
108.943 11.0
109.027 19.0
109.111 17.0
109.195 21.0
109.278 11.0
109.362 23.0
109.446 15.0
109.529 19.0
109.613 14.0
109.697 18.0
109.78 22.0
109.864 11.0
109.948 12.0
110.032 10.0
110.115 17.0
110.199 15.0
110.283 15.0
110.366 6.0
110.45 12.0
110.534 22.0
110.618 14.0
110.701 12.0
110.785 10.0
110.869 14.0
110.952 10.0
111.036 23.0
111.12 8.0
111.203 20.0
111.287 13.0
111.371 15.0
111.455 12.0
111.538 12.0
111.622 16.0
111.706 16.0
111.789 14.0
111.873 15.0
111.957 16.0
112.041 11.0
112.124 9.0
112.208 9.0
112.292 7.0
112.375 7.0
112.459 12.0
112.543 13.0
112.626 17.0
112.71 18.0
112.794 16.0
112.878 14.0
112.961 21.0
113.045 15.0
113.129 7.0
113.212 13.0
113.296 9.0
113.38 12.0
113.464 25.0
113.547 16.0
113.631 17.0
113.715 14.0
113.798 20.0
113.882 17.0
113.966 21.0
114.049 18.0
114.133 20.0
114.217 20.0
114.301 16.0
114.384 17.0
114.468 10.0
114.552 16.0
114.635 16.0
114.719 22.0
114.803 9.0
114.887 23.0
114.97 21.0
115.054 10.0
115.138 22.0
115.221 21.0
115.305 23.0
115.389 16.0
115.472 22.0
115.556 17.0
115.64 20.0
115.724 21.0
115.807 28.0
115.891 26.0
115.975 19.0
116.058 45.0
116.142 38.0
116.226 26.0
116.31 25.0
116.393 21.0
116.477 23.0
116.561 13.0
116.644 21.0
116.728 17.0
116.812 17.0
116.895 14.0
116.979 18.0
117.063 15.0
117.147 15.0
117.23 22.0
117.314 24.0
117.398 17.0
117.481 19.0
117.565 18.0
117.649 16.0
117.733 19.0
117.816 19.0
117.9 17.0
117.984 24.0
118.067 12.0
118.151 13.0
118.235 20.0
118.318 17.0
118.402 11.0
118.486 18.0
118.57 18.0
118.653 16.0
118.737 12.0
118.821 12.0
118.904 12.0
118.988 18.0
119.072 18.0
119.156 14.0
119.239 19.0
119.323 19.0
119.407 15.0
119.49 11.0
119.574 18.0
119.658 17.0
119.741 17.0
119.825 19.0
119.909 15.0
119.993 25.0
120.076 15.0
120.16 16.0
120.244 14.0
120.327 23.0
120.411 23.0
120.495 16.0
120.578 17.0
120.662 14.0
120.746 12.0
120.83 22.0
120.913 9.0
120.997 13.0
121.081 18.0
121.164 20.0
121.248 8.0
121.332 23.0
121.416 21.0
121.499 13.0
121.583 21.0
121.667 32.0
121.75 19.0
121.834 24.0
121.918 21.0
122.001 34.0
122.085 22.0
122.169 19.0
122.253 27.0
122.336 18.0
122.42 21.0
122.504 24.0
122.587 18.0
122.671 29.0
122.755 22.0
122.839 21.0
122.922 30.0
123.006 36.0
123.09 22.0
123.173 28.0
123.257 32.0
123.341 42.0
123.424 37.0
123.508 46.0
123.592 55.0
123.676 48.0
123.759 74.0
123.843 57.0
123.927 55.0
124.01 78.0
124.094 83.0
124.178 110.0
124.262 159.0
124.345 217.0
124.429 585.0
124.513 2355.0
124.596 9489.0
124.68 2126.0
124.764 663.0
124.847 344.0
124.931 308.0
125.015 702.0
125.099 3505.0
125.182 2811.0
125.266 662.0
125.35 267.0
125.433 139.0
125.517 104.0
125.601 90.0
125.685 53.0
125.768 63.0
125.852 64.0
125.936 36.0
126.019 45.0
126.103 31.0
126.187 38.0
126.27 35.0
126.354 29.0
126.438 34.0
126.522 31.0
126.605 32.0
126.689 34.0
126.773 28.0
126.856 30.0
126.94 28.0
127.024 17.0
127.108 32.0
127.191 23.0
127.275 28.0
127.359 24.0
127.442 15.0
127.526 16.0
127.61 30.0
127.693 28.0
127.777 25.0
127.861 27.0
127.945 27.0
128.028 18.0
128.112 21.0
128.196 21.0
128.279 30.0
128.363 19.0
128.447 23.0
128.531 21.0
128.614 23.0
128.698 21.0
128.782 16.0
128.865 30.0
128.949 26.0
129.033 17.0
129.116 18.0
129.2 20.0
129.284 18.0
129.368 18.0
129.451 21.0
129.535 23.0
129.619 23.0
129.702 22.0
129.786 14.0
129.87 17.0
129.954 21.0
129.998 21.0