File: data/W6814c1/XRD_Omega/scan_omega_4deg_step_0.005deg0_C1.xy
17.92360 32.0
17.92860 33.0
17.93360 34.0
17.93860 36.0
17.94360 28.0
17.94860 43.0
17.95360 30.0
17.95860 47.0
17.96360 28.0
17.96860 29.0
17.97360 36.0
17.97860 27.0
17.98360 27.0
17.98860 30.0
17.99360 37.0
17.99860 29.0
18.00360 41.0
18.00860 30.0
18.01360 37.0
18.01860 25.0
18.02360 39.0
18.02860 38.0
18.03360 39.0
18.03860 33.0
18.04360 32.0
18.04860 29.0
18.05360 24.0
18.05860 29.0
18.06360 36.0
18.06860 34.0
18.07360 24.0
18.07860 35.0
18.08360 27.0
18.08860 26.0
18.09360 26.0
18.09860 30.0
18.10360 32.0
18.10860 23.0
18.11360 25.0
18.11860 27.0
18.12360 28.0
18.12860 26.0
18.13360 25.0
18.13860 30.0
18.14360 40.0
18.14860 25.0
18.15360 42.0
18.15860 36.0
18.16360 27.0
18.16860 26.0
18.17360 17.0
18.17860 26.0
18.18360 31.0
18.18860 30.0
18.19360 32.0
18.19860 40.0
18.20360 36.0
18.20860 30.0
18.21360 29.0
18.21860 37.0
18.22360 35.0
18.22860 32.0
18.23360 26.0
18.23860 36.0
18.24360 34.0
18.24860 33.0
18.25360 27.0
18.25860 26.0
18.26360 33.0
18.26860 31.0
18.27360 35.0
18.27860 37.0
18.28360 36.0
18.28860 32.0
18.29360 39.0
18.29860 41.0
18.30360 32.0
18.30860 19.0
18.31360 42.0
18.31860 32.0
18.32360 25.0
18.32860 38.0
18.33360 43.0
18.33860 33.0
18.34360 35.0
18.34860 33.0
18.35360 32.0
18.35860 45.0
18.36360 23.0
18.36860 39.0
18.37360 30.0
18.37860 36.0
18.38360 37.0
18.38860 35.0
18.39360 43.0
18.39860 42.0
18.40360 44.0
18.40860 28.0
18.41360 43.0
18.41860 30.0
18.42360 28.0
18.42860 32.0
18.43360 28.0
18.43860 27.0
18.44360 25.0
18.44860 38.0
18.45360 33.0
18.45860 28.0
18.46360 35.0
18.46860 33.0
18.47360 41.0
18.47860 34.0
18.48360 36.0
18.48860 31.0
18.49360 30.0
18.49860 36.0
18.50360 38.0
18.50860 46.0
18.51360 37.0
18.51860 34.0
18.52360 35.0
18.52860 43.0
18.53360 36.0
18.53860 42.0
18.54360 33.0
18.54860 49.0
18.55360 33.0
18.55860 35.0
18.56360 35.0
18.56860 42.0
18.57360 34.0
18.57860 34.0
18.58360 35.0
18.58860 44.0
18.59360 39.0
18.59860 46.0
18.60360 36.0
18.60860 32.0
18.61360 45.0
18.61860 49.0
18.62360 35.0
18.62860 35.0
18.63360 35.0
18.63860 40.0
18.64360 49.0
18.64860 40.0
18.65360 31.0
18.65860 42.0
18.66360 49.0
18.66860 42.0
18.67360 50.0
18.67860 51.0
18.68360 52.0
18.68860 43.0
18.69360 56.0
18.69860 40.0
18.70360 52.0
18.70860 52.0
18.71360 46.0
18.71860 42.0
18.72360 37.0
18.72860 48.0
18.73360 53.0
18.73860 56.0
18.74360 51.0
18.74860 49.0
18.75360 48.0
18.75860 46.0
18.76360 58.0
18.76860 55.0
18.77360 41.0
18.77860 48.0
18.78360 44.0
18.78860 47.0
18.79360 45.0
18.79860 50.0
18.80360 55.0
18.80860 47.0
18.81360 59.0
18.81860 58.0
18.82360 52.0
18.82860 53.0
18.83360 56.0
18.83860 55.0
18.84360 61.0
18.84860 58.0
18.85360 57.0
18.85860 49.0
18.86360 51.0
18.86860 42.0
18.87360 68.0
18.87860 61.0
18.88360 43.0
18.88860 54.0
18.89360 57.0
18.89860 52.0
18.90360 68.0
18.90860 68.0
18.91360 69.0
18.91860 56.0
18.92360 53.0
18.92860 54.0
18.93360 62.0
18.93860 69.0
18.94360 55.0
18.94860 76.0
18.95360 59.0
18.95860 55.0
18.96360 82.0
18.96860 60.0
18.97360 84.0
18.97860 80.0
18.98360 67.0
18.98860 95.0
18.99360 87.0
18.99860 78.0
19.00360 64.0
19.00860 70.0
19.01360 99.0
19.01860 70.0
19.02360 90.0
19.02860 96.0
19.03360 76.0
19.03860 88.0
19.04360 74.0
19.04860 77.0
19.05360 76.0
19.05860 82.0
19.06360 95.0
19.06860 85.0
19.07360 111.0
19.07860 86.0
19.08360 109.0
19.08860 94.0
19.09360 71.0
19.09860 106.0
19.10360 104.0
19.10860 85.0
19.11360 112.0
19.11860 112.0
19.12360 94.0
19.12860 96.0
19.13360 109.0
19.13860 117.0
19.14360 117.0
19.14860 119.0
19.15360 116.0
19.15860 127.0
19.16360 112.0
19.16860 138.0
19.17360 137.0
19.17860 132.0
19.18360 134.0
19.18860 115.0
19.19360 138.0
19.19860 114.0
19.20360 152.0
19.20860 141.0
19.21360 153.0
19.21860 148.0
19.22360 153.0
19.22860 163.0
19.23360 168.0
19.23860 178.0
19.24360 166.0
19.24860 136.0
19.25360 159.0
19.25860 157.0
19.26360 207.0
19.26860 188.0
19.27360 177.0
19.27860 213.0
19.28360 209.0
19.28860 191.0
19.29360 223.0
19.29860 203.0
19.30360 217.0
19.30860 198.0
19.31360 244.0
19.31860 222.0
19.32360 230.0
19.32860 251.0
19.33360 260.0
19.33860 238.0
19.34360 266.0
19.34860 256.0
19.35360 243.0
19.35860 259.0
19.36360 297.0
19.36860 301.0
19.37360 324.0
19.37860 315.0
19.38360 305.0
19.38860 303.0
19.39360 351.0
19.39860 296.0
19.40360 325.0
19.40860 340.0
19.41360 333.0
19.41860 367.0
19.42360 381.0
19.42860 378.0
19.43360 377.0
19.43860 350.0
19.44360 403.0
19.44860 376.0
19.45360 425.0
19.45860 428.0
19.46360 466.0
19.46860 441.0
19.47360 440.0
19.47860 486.0
19.48360 513.0
19.48860 484.0
19.49360 514.0
19.49860 521.0
19.50360 509.0
19.50860 496.0
19.51360 571.0
19.51860 572.0
19.52360 565.0
19.52860 575.0
19.53360 632.0
19.53860 677.0
19.54360 628.0
19.54860 687.0
19.55360 695.0
19.55860 686.0
19.56360 731.0
19.56860 764.0
19.57360 708.0
19.57860 773.0
19.58360 789.0
19.58860 821.0
19.59360 806.0
19.59860 851.0
19.60360 803.0
19.60860 838.0
19.61360 871.0
19.61860 966.0
19.62360 921.0
19.62860 988.0
19.63360 979.0
19.63860 1000.0
19.64360 1030.0
19.64860 992.0
19.65360 1158.0
19.65860 1007.0
19.66360 1091.0
19.66860 1109.0
19.67360 1191.0
19.67860 1233.0
19.68360 1265.0
19.68860 1257.0
19.69360 1284.0
19.69860 1279.0
19.70360 1351.0
19.70860 1357.0
19.71360 1416.0
19.71860 1396.0
19.72360 1452.0
19.72860 1457.0
19.73360 1520.0
19.73860 1522.0
19.74360 1527.0
19.74860 1556.0
19.75360 1600.0
19.75860 1608.0
19.76360 1615.0
19.76860 1721.0
19.77360 1689.0
19.77860 1735.0
19.78360 1715.0
19.78860 1855.0
19.79360 1815.0
19.79860 1849.0
19.80360 1883.0
19.80860 1969.0
19.81360 1983.0
19.81860 1995.0
19.82360 1974.0
19.82860 2025.0
19.83360 1952.0
19.83860 2052.0
19.84360 2076.0
19.84860 2039.0
19.85360 2037.0
19.85860 2076.0
19.86360 2076.0
19.86860 2174.0
19.87360 2118.0
19.87860 2125.0
19.88360 2110.0
19.88860 2182.0
19.89360 2205.0
19.89860 2128.0
19.90360 2191.0
19.90860 2173.0
19.91360 2137.0
19.91860 2114.0
19.92360 2057.0
19.92860 2201.0
19.93360 2031.0
19.93860 2163.0
19.94360 2111.0
19.94860 2053.0
19.95360 2034.0
19.95860 2074.0
19.96360 2006.0
19.96860 1966.0
19.97360 1982.0
19.97860 2026.0
19.98360 1918.0
19.98860 1944.0
19.99360 1917.0
19.99860 1843.0
20.00360 1822.0
20.00860 1810.0
20.01360 1796.0
20.01860 1787.0
20.02360 1834.0
20.02860 1841.0
20.03360 1696.0
20.03860 1724.0
20.04360 1633.0
20.04860 1602.0
20.05360 1619.0
20.05860 1500.0
20.06360 1560.0
20.06860 1516.0
20.07360 1480.0
20.07860 1401.0
20.08360 1447.0
20.08860 1383.0
20.09360 1418.0
20.09860 1341.0
20.10360 1296.0
20.10860 1262.0
20.11360 1253.0
20.11860 1230.0
20.12360 1222.0
20.12860 1116.0
20.13360 1129.0
20.13860 1110.0
20.14360 1068.0
20.14860 1081.0
20.15360 1010.0
20.15860 1018.0
20.16360 986.0
20.16860 975.0
20.17360 970.0
20.17860 948.0
20.18360 889.0
20.18860 900.0
20.19360 878.0
20.19860 836.0
20.20360 823.0
20.20860 803.0
20.21360 819.0
20.21860 751.0
20.22360 755.0
20.22860 782.0
20.23360 704.0
20.23860 709.0
20.24360 654.0
20.24860 647.0
20.25360 613.0
20.25860 594.0
20.26360 635.0
20.26860 543.0
20.27360 570.0
20.27860 537.0
20.28360 552.0
20.28860 482.0
20.29360 498.0
20.29860 497.0
20.30360 485.0
20.30860 494.0
20.31360 454.0
20.31860 431.0
20.32360 395.0
20.32860 426.0
20.33360 417.0
20.33860 401.0
20.34360 444.0
20.34860 412.0
20.35360 344.0
20.35860 359.0
20.36360 365.0
20.36860 391.0
20.37360 355.0
20.37860 341.0
20.38360 341.0
20.38860 334.0
20.39360 297.0
20.39860 327.0
20.40360 282.0
20.40860 305.0
20.41360 304.0
20.41860 273.0
20.42360 251.0
20.42860 260.0
20.43360 250.0
20.43860 252.0
20.44360 242.0
20.44860 241.0
20.45360 229.0
20.45860 239.0
20.46360 228.0
20.46860 229.0
20.47360 203.0
20.47860 191.0
20.48360 197.0
20.48860 194.0
20.49360 204.0
20.49860 208.0
20.50360 182.0
20.50860 204.0
20.51360 169.0
20.51860 149.0
20.52360 174.0
20.52860 179.0
20.53360 152.0
20.53860 164.0
20.54360 165.0
20.54860 139.0
20.55360 156.0
20.55860 155.0
20.56360 157.0
20.56860 150.0
20.57360 144.0
20.57860 151.0
20.58360 129.0
20.58860 112.0
20.59360 133.0
20.59860 155.0
20.60360 121.0
20.60860 103.0
20.61360 128.0
20.61860 118.0
20.62360 126.0
20.62860 107.0
20.63360 112.0
20.63860 101.0
20.64360 108.0
20.64860 118.0
20.65360 107.0
20.65860 105.0
20.66360 111.0
20.66860 85.0
20.67360 97.0
20.67860 109.0
20.68360 87.0
20.68860 86.0
20.69360 98.0
20.69860 95.0
20.70360 100.0
20.70860 72.0
20.71360 103.0
20.71860 91.0
20.72360 67.0
20.72860 84.0
20.73360 88.0
20.73860 77.0
20.74360 79.0
20.74860 80.0
20.75360 89.0
20.75860 84.0
20.76360 78.0
20.76860 81.0
20.77360 78.0
20.77860 69.0
20.78360 58.0
20.78860 73.0
20.79360 70.0
20.79860 73.0
20.80360 69.0
20.80860 72.0
20.81360 74.0
20.81860 72.0
20.82360 48.0
20.82860 63.0
20.83360 60.0
20.83860 56.0
20.84360 57.0
20.84860 53.0
20.85360 68.0
20.85860 57.0
20.86360 70.0
20.86860 82.0
20.87360 51.0
20.87860 52.0
20.88360 55.0
20.88860 59.0
20.89360 49.0
20.89860 60.0
20.90360 46.0
20.90860 61.0
20.91360 63.0
20.91860 43.0
20.92360 51.0
20.92860 42.0
20.93360 52.0
20.93860 66.0
20.94360 42.0
20.94860 55.0
20.95360 52.0
20.95860 51.0
20.96360 54.0
20.96860 55.0
20.97360 31.0
20.97860 42.0
20.98360 48.0
20.98860 44.0
20.99360 51.0
20.99860 39.0
21.00360 43.0
21.00860 53.0
21.01360 48.0
21.01860 33.0
21.02360 40.0
21.02860 60.0
21.03360 40.0
21.03860 45.0
21.04360 51.0
21.04860 49.0
21.05360 44.0
21.05860 31.0
21.06360 39.0
21.06860 54.0
21.07360 47.0
21.07860 39.0
21.08360 34.0
21.08860 40.0
21.09360 36.0
21.09860 48.0
21.10360 39.0
21.10860 41.0
21.11360 44.0
21.11860 38.0
21.12360 52.0
21.12860 29.0
21.13360 48.0
21.13860 43.0
21.14360 35.0
21.14860 42.0
21.15360 36.0
21.15860 38.0
21.16360 31.0
21.16860 43.0
21.17360 42.0
21.17860 44.0
21.18360 27.0
21.18860 40.0
21.19360 30.0
21.19860 29.0
21.20360 37.0
21.20860 43.0
21.21360 42.0
21.21860 40.0
21.22360 33.0
21.22860 41.0
21.23360 28.0
21.23860 42.0
21.24360 34.0
21.24860 28.0
21.25360 28.0
21.25860 33.0
21.26360 29.0
21.26860 47.0
21.27360 35.0
21.27860 31.0
21.28360 26.0
21.28860 32.0
21.29360 36.0
21.29860 41.0
21.30360 28.0
21.30860 38.0
21.31360 31.0
21.31860 28.0
21.32360 40.0
21.32860 40.0
21.33360 37.0
21.33860 23.0
21.34360 28.0
21.34860 21.0
21.35360 37.0
21.35860 45.0
21.36360 29.0
21.36860 40.0
21.37360 37.0
21.37860 29.0
21.38360 33.0
21.38860 24.0
21.39360 36.0
21.39860 29.0
21.40360 29.0
21.40860 33.0
21.41360 37.0
21.41860 33.0
21.42360 31.0
21.42860 28.0
21.43360 35.0
21.43860 32.0
21.44360 39.0
21.44860 40.0
21.45360 31.0
21.45860 41.0
21.46360 32.0
21.46860 30.0
21.47360 35.0
21.47860 24.0
21.48360 34.0
21.48860 25.0
21.49360 25.0
21.49860 36.0
21.50360 38.0
21.50860 28.0
21.51360 21.0
21.51860 28.0
21.52360 47.0
21.52860 31.0
21.53360 27.0
21.53860 38.0
21.54360 32.0
21.54860 36.0
21.55360 35.0
21.55860 26.0
21.56360 33.0
21.56860 34.0
21.57360 32.0
21.57860 33.0
21.58360 31.0
21.58860 36.0
21.59360 29.0
21.59860 29.0
21.60360 20.0
21.60860 27.0
21.61360 31.0
21.61860 25.0
21.62360 38.0
21.62860 35.0
21.63360 31.0
21.63860 23.0
21.64360 30.0
21.64860 37.0
21.65360 29.0
21.65860 32.0
21.66360 29.0
21.66860 33.0
21.67360 20.0
21.67860 22.0
21.68360 29.0
21.68860 32.0
21.69360 30.0
21.69860 26.0
21.70360 36.0
21.70860 31.0
21.71360 28.0
21.71860 34.0
21.72360 32.0
21.72860 26.0
21.73360 30.0
21.73860 19.0
21.74360 35.0
21.74860 44.0
21.75360 25.0
21.75860 33.0
21.76360 32.0
21.76860 16.0
21.77360 30.0
21.77860 23.0
21.78360 38.0
21.78860 28.0
21.79360 25.0
21.79860 29.0
21.80360 26.0
21.80860 27.0
21.81360 27.0
21.81860 34.0
21.82360 32.0
21.82860 46.0
21.83360 34.0
21.83860 31.0
21.84360 27.0
21.84860 18.0
21.85360 28.0
21.85860 20.0
21.86360 16.0
21.86860 27.0
21.87360 30.0
21.87860 32.0
21.88360 32.0