File: data/W6905m/XRD_Omega/scan_omega_4deg_step_0.005deg0_C6_2.xy
30.92890 69.0
30.93390 65.0
30.93890 73.0
30.94390 85.0
30.94890 80.0
30.95390 84.0
30.95890 94.0
30.96390 71.0
30.96890 94.0
30.97390 84.0
30.97890 81.0
30.98390 90.0
30.98890 75.0
30.99390 80.0
30.99890 63.0
31.00390 81.0
31.00890 91.0
31.01390 70.0
31.01890 70.0
31.02390 71.0
31.02890 78.0
31.03390 104.0
31.03890 92.0
31.04390 64.0
31.04890 89.0
31.05390 88.0
31.05890 69.0
31.06390 70.0
31.06890 99.0
31.07390 94.0
31.07890 96.0
31.08390 85.0
31.08890 92.0
31.09390 70.0
31.09890 103.0
31.10390 72.0
31.10890 82.0
31.11390 82.0
31.11890 88.0
31.12390 108.0
31.12890 84.0
31.13390 79.0
31.13890 92.0
31.14390 85.0
31.14890 85.0
31.15390 92.0
31.15890 74.0
31.16390 86.0
31.16890 74.0
31.17390 93.0
31.17890 82.0
31.18390 89.0
31.18890 79.0
31.19390 71.0
31.19890 97.0
31.20390 85.0
31.20890 96.0
31.21390 80.0
31.21890 93.0
31.22390 105.0
31.22890 98.0
31.23390 78.0
31.23890 94.0
31.24390 91.0
31.24890 83.0
31.25390 89.0
31.25890 87.0
31.26390 85.0
31.26890 90.0
31.27390 91.0
31.27890 73.0
31.28390 113.0
31.28890 86.0
31.29390 86.0
31.29890 94.0
31.30390 88.0
31.30890 90.0
31.31390 81.0
31.31890 102.0
31.32390 77.0
31.32890 102.0
31.33390 92.0
31.33890 93.0
31.34390 113.0
31.34890 98.0
31.35390 82.0
31.35890 100.0
31.36390 118.0
31.36890 91.0
31.37390 99.0
31.37890 83.0
31.38390 77.0
31.38890 96.0
31.39390 102.0
31.39890 106.0
31.40390 98.0
31.40890 113.0
31.41390 96.0
31.41890 94.0
31.42390 106.0
31.42890 90.0
31.43390 91.0
31.43890 99.0
31.44390 108.0
31.44890 93.0
31.45390 102.0
31.45890 85.0
31.46390 103.0
31.46890 96.0
31.47390 112.0
31.47890 99.0
31.48390 107.0
31.48890 111.0
31.49390 93.0
31.49890 108.0
31.50390 98.0
31.50890 116.0
31.51390 119.0
31.51890 120.0
31.52390 113.0
31.52890 117.0
31.53390 105.0
31.53890 105.0
31.54390 109.0
31.54890 113.0
31.55390 113.0
31.55890 123.0
31.56390 120.0
31.56890 101.0
31.57390 123.0
31.57890 117.0
31.58390 92.0
31.58890 111.0
31.59390 118.0
31.59890 101.0
31.60390 117.0
31.60890 115.0
31.61390 117.0
31.61890 130.0
31.62390 128.0
31.62890 115.0
31.63390 128.0
31.63890 123.0
31.64390 130.0
31.64890 126.0
31.65390 123.0
31.65890 135.0
31.66390 123.0
31.66890 118.0
31.67390 119.0
31.67890 131.0
31.68390 121.0
31.68890 110.0
31.69390 117.0
31.69890 133.0
31.70390 140.0
31.70890 123.0
31.71390 124.0
31.71890 111.0
31.72390 145.0
31.72890 147.0
31.73390 156.0
31.73890 145.0
31.74390 127.0
31.74890 143.0
31.75390 135.0
31.75890 154.0
31.76390 140.0
31.76890 132.0
31.77390 151.0
31.77890 159.0
31.78390 185.0
31.78890 146.0
31.79390 148.0
31.79890 159.0
31.80390 162.0
31.80890 173.0
31.81390 183.0
31.81890 144.0
31.82390 170.0
31.82890 154.0
31.83390 156.0
31.83890 173.0
31.84390 151.0
31.84890 157.0
31.85390 190.0
31.85890 150.0
31.86390 181.0
31.86890 191.0
31.87390 194.0
31.87890 216.0
31.88390 194.0
31.88890 207.0
31.89390 195.0
31.89890 188.0
31.90390 225.0
31.90890 207.0
31.91390 183.0
31.91890 194.0
31.92390 217.0
31.92890 201.0
31.93390 206.0
31.93890 222.0
31.94390 203.0
31.94890 216.0
31.95390 204.0
31.95890 213.0
31.96390 217.0
31.96890 241.0
31.97390 226.0
31.97890 221.0
31.98390 232.0
31.98890 237.0
31.99390 217.0
31.99890 251.0
32.00390 227.0
32.00890 265.0
32.01390 270.0
32.01890 273.0
32.02390 271.0
32.02890 255.0
32.03390 264.0
32.03890 281.0
32.04390 267.0
32.04890 307.0
32.05390 281.0
32.05890 276.0
32.06390 288.0
32.06890 314.0
32.07390 298.0
32.07890 312.0
32.08390 297.0
32.08890 308.0
32.09390 304.0
32.09890 314.0
32.10390 317.0
32.10890 333.0
32.11390 341.0
32.11890 330.0
32.12390 345.0
32.12890 359.0
32.13390 382.0
32.13890 352.0
32.14390 380.0
32.14890 357.0
32.15390 412.0
32.15890 413.0
32.16390 429.0
32.16890 381.0
32.17390 405.0
32.17890 443.0
32.18390 425.0
32.18890 460.0
32.19390 434.0
32.19890 459.0
32.20390 469.0
32.20890 502.0
32.21390 480.0
32.21890 484.0
32.22390 467.0
32.22890 486.0
32.23390 530.0
32.23890 496.0
32.24390 492.0
32.24890 557.0
32.25390 580.0
32.25890 578.0
32.26390 557.0
32.26890 603.0
32.27390 581.0
32.27890 581.0
32.28390 623.0
32.28890 640.0
32.29390 622.0
32.29890 602.0
32.30390 627.0
32.30890 585.0
32.31390 655.0
32.31890 634.0
32.32390 657.0
32.32890 679.0
32.33390 698.0
32.33890 645.0
32.34390 645.0
32.34890 684.0
32.35390 757.0
32.35890 747.0
32.36390 761.0
32.36890 814.0
32.37390 777.0
32.37890 815.0
32.38390 770.0
32.38890 872.0
32.39390 792.0
32.39890 832.0
32.40390 837.0
32.40890 850.0
32.41390 853.0
32.41890 844.0
32.42390 826.0
32.42890 964.0
32.43390 986.0
32.43890 953.0
32.44390 952.0
32.44890 940.0
32.45390 1000.0
32.45890 993.0
32.46390 1001.0
32.46890 1037.0
32.47390 993.0
32.47890 1069.0
32.48390 1065.0
32.48890 1065.0
32.49390 1075.0
32.49890 1073.0
32.50390 1070.0
32.50890 1107.0
32.51390 1182.0
32.51890 1069.0
32.52390 1188.0
32.52890 1154.0
32.53390 1209.0
32.53890 1196.0
32.54390 1253.0
32.54890 1302.0
32.55390 1313.0
32.55890 1327.0
32.56390 1268.0
32.56890 1341.0
32.57390 1344.0
32.57890 1336.0
32.58390 1419.0
32.58890 1458.0
32.59390 1391.0
32.59890 1425.0
32.60390 1408.0
32.60890 1445.0
32.61390 1426.0
32.61890 1492.0
32.62390 1473.0
32.62890 1571.0
32.63390 1585.0
32.63890 1567.0
32.64390 1588.0
32.64890 1652.0
32.65390 1609.0
32.65890 1623.0
32.66390 1728.0
32.66890 1698.0
32.67390 1671.0
32.67890 1656.0
32.68390 1704.0
32.68890 1808.0
32.69390 1777.0
32.69890 1817.0
32.70390 1795.0
32.70890 1825.0
32.71390 1774.0
32.71890 1941.0
32.72390 1830.0
32.72890 1805.0
32.73390 1883.0
32.73890 1896.0
32.74390 1906.0
32.74890 1929.0
32.75390 1944.0
32.75890 1917.0
32.76390 2008.0
32.76890 1942.0
32.77390 1993.0
32.77890 2033.0
32.78390 2081.0
32.78890 2026.0
32.79390 2116.0
32.79890 2126.0
32.80390 2147.0
32.80890 2068.0
32.81390 2144.0
32.81890 2129.0
32.82390 2165.0
32.82890 2119.0
32.83390 2169.0
32.83890 2156.0
32.84390 2187.0
32.84890 2185.0
32.85390 2205.0
32.85890 2252.0
32.86390 2240.0
32.86890 2278.0
32.87390 2246.0
32.87890 2331.0
32.88390 2163.0
32.88890 2191.0
32.89390 2280.0
32.89890 2279.0
32.90390 2226.0
32.90890 2285.0
32.91390 2291.0
32.91890 2226.0
32.92390 2266.0
32.92890 2272.0
32.93390 2347.0
32.93890 2136.0
32.94390 2261.0
32.94890 2168.0
32.95390 2169.0
32.95890 2242.0
32.96390 2202.0
32.96890 2255.0
32.97390 2165.0
32.97890 2045.0
32.98390 2170.0
32.98890 2180.0
32.99390 2136.0
32.99890 2101.0
33.00390 2146.0
33.00890 1989.0
33.01390 2030.0
33.01890 1936.0
33.02390 2014.0
33.02890 2097.0
33.03390 1993.0
33.03890 1967.0
33.04390 1930.0
33.04890 1837.0
33.05390 1906.0
33.05890 1833.0
33.06390 1864.0
33.06890 1877.0
33.07390 1845.0
33.07890 1781.0
33.08390 1739.0
33.08890 1760.0
33.09390 1679.0
33.09890 1735.0
33.10390 1704.0
33.10890 1587.0
33.11390 1666.0
33.11890 1547.0
33.12390 1520.0
33.12890 1582.0
33.13390 1470.0
33.13890 1486.0
33.14390 1475.0
33.14890 1362.0
33.15390 1384.0
33.15890 1353.0
33.16390 1322.0
33.16890 1287.0
33.17390 1282.0
33.17890 1317.0
33.18390 1243.0
33.18890 1268.0
33.19390 1203.0
33.19890 1184.0
33.20390 1148.0
33.20890 1084.0
33.21390 1124.0
33.21890 1055.0
33.22390 1085.0
33.22890 1074.0
33.23390 1013.0
33.23890 1073.0
33.24390 1015.0
33.24890 984.0
33.25390 950.0
33.25890 943.0
33.26390 911.0
33.26890 874.0
33.27390 936.0
33.27890 869.0
33.28390 842.0
33.28890 743.0
33.29390 806.0
33.29890 778.0
33.30390 806.0
33.30890 719.0
33.31390 706.0
33.31890 760.0
33.32390 711.0
33.32890 705.0
33.33390 704.0
33.33890 711.0
33.34390 716.0
33.34890 682.0
33.35390 639.0
33.35890 635.0
33.36390 584.0
33.36890 559.0
33.37390 552.0
33.37890 566.0
33.38390 516.0
33.38890 553.0
33.39390 515.0
33.39890 543.0
33.40390 490.0
33.40890 511.0
33.41390 484.0
33.41890 502.0
33.42390 514.0
33.42890 474.0
33.43390 450.0
33.43890 469.0
33.44390 425.0
33.44890 508.0
33.45390 412.0
33.45890 439.0
33.46390 403.0
33.46890 391.0
33.47390 412.0
33.47890 424.0
33.48390 376.0
33.48890 391.0
33.49390 393.0
33.49890 360.0
33.50390 387.0
33.50890 368.0
33.51390 360.0
33.51890 357.0
33.52390 350.0
33.52890 366.0
33.53390 330.0
33.53890 322.0
33.54390 301.0
33.54890 313.0
33.55390 299.0
33.55890 326.0
33.56390 290.0
33.56890 288.0
33.57390 276.0
33.57890 286.0
33.58390 267.0
33.58890 283.0
33.59390 245.0
33.59890 294.0
33.60390 242.0
33.60890 288.0
33.61390 267.0
33.61890 269.0
33.62390 272.0
33.62890 250.0
33.63390 239.0
33.63890 243.0
33.64390 229.0
33.64890 228.0
33.65390 220.0
33.65890 239.0
33.66390 229.0
33.66890 216.0
33.67390 200.0
33.67890 213.0
33.68390 199.0
33.68890 223.0
33.69390 210.0
33.69890 196.0
33.70390 195.0
33.70890 180.0
33.71390 192.0
33.71890 200.0
33.72390 181.0
33.72890 208.0
33.73390 173.0
33.73890 166.0
33.74390 189.0
33.74890 182.0
33.75390 183.0
33.75890 184.0
33.76390 202.0
33.76890 163.0
33.77390 171.0
33.77890 175.0
33.78390 166.0
33.78890 146.0
33.79390 171.0
33.79890 142.0
33.80390 144.0
33.80890 148.0
33.81390 167.0
33.81890 202.0
33.82390 158.0
33.82890 154.0
33.83390 156.0
33.83890 129.0
33.84390 156.0
33.84890 153.0
33.85390 151.0
33.85890 154.0
33.86390 146.0
33.86890 134.0
33.87390 142.0
33.87890 131.0
33.88390 129.0
33.88890 124.0
33.89390 142.0
33.89890 152.0
33.90390 123.0
33.90890 115.0
33.91390 133.0
33.91890 132.0
33.92390 130.0
33.92890 147.0
33.93390 147.0
33.93890 127.0
33.94390 133.0
33.94890 114.0
33.95390 120.0
33.95890 107.0
33.96390 124.0
33.96890 124.0
33.97390 124.0
33.97890 126.0
33.98390 112.0
33.98890 96.0
33.99390 128.0
33.99890 124.0
34.00390 112.0
34.00890 148.0
34.01390 113.0
34.01890 125.0
34.02390 110.0
34.02890 121.0
34.03390 106.0
34.03890 127.0
34.04390 113.0
34.04890 87.0
34.05390 136.0
34.05890 102.0
34.06390 110.0
34.06890 92.0
34.07390 93.0
34.07890 99.0
34.08390 104.0
34.08890 104.0
34.09390 111.0
34.09890 109.0
34.10390 97.0
34.10890 111.0
34.11390 106.0
34.11890 103.0
34.12390 106.0
34.12890 94.0
34.13390 121.0
34.13890 91.0
34.14390 105.0
34.14890 92.0
34.15390 95.0
34.15890 111.0
34.16390 92.0
34.16890 94.0
34.17390 75.0
34.17890 79.0
34.18390 91.0
34.18890 92.0
34.19390 77.0
34.19890 102.0
34.20390 96.0
34.20890 106.0
34.21390 93.0
34.21890 100.0
34.22390 98.0
34.22890 92.0
34.23390 96.0
34.23890 88.0
34.24390 63.0
34.24890 72.0
34.25390 92.0
34.25890 88.0
34.26390 69.0
34.26890 71.0
34.27390 83.0
34.27890 92.0
34.28390 82.0
34.28890 98.0
34.29390 77.0
34.29890 96.0
34.30390 84.0
34.30890 87.0
34.31390 90.0
34.31890 84.0
34.32390 70.0
34.32890 85.0
34.33390 86.0
34.33890 77.0
34.34390 93.0
34.34890 90.0
34.35390 104.0
34.35890 75.0
34.36390 96.0
34.36890 94.0
34.37390 78.0
34.37890 75.0
34.38390 99.0
34.38890 89.0
34.39390 77.0
34.39890 88.0
34.40390 93.0
34.40890 70.0
34.41390 85.0
34.41890 77.0
34.42390 78.0
34.42890 77.0
34.43390 90.0
34.43890 73.0
34.44390 79.0
34.44890 71.0
34.45390 87.0
34.45890 72.0
34.46390 82.0
34.46890 73.0
34.47390 61.0
34.47890 79.0
34.48390 74.0
34.48890 81.0
34.49390 85.0
34.49890 83.0
34.50390 96.0
34.50890 58.0
34.51390 64.0
34.51890 79.0
34.52390 85.0
34.52890 74.0
34.53390 75.0
34.53890 86.0
34.54390 80.0
34.54890 88.0
34.55390 74.0
34.55890 77.0
34.56390 61.0
34.56890 78.0
34.57390 60.0
34.57890 70.0
34.58390 79.0
34.58890 75.0
34.59390 73.0
34.59890 77.0
34.60390 92.0
34.60890 74.0
34.61390 80.0
34.61890 92.0
34.62390 77.0
34.62890 74.0
34.63390 55.0
34.63890 63.0
34.64390 86.0
34.64890 74.0
34.65390 56.0
34.65890 69.0
34.66390 82.0
34.66890 74.0
34.67390 95.0
34.67890 56.0
34.68390 78.0
34.68890 59.0
34.69390 85.0
34.69890 65.0
34.70390 74.0
34.70890 78.0
34.71390 74.0
34.71890 73.0
34.72390 70.0
34.72890 81.0
34.73390 77.0
34.73890 65.0
34.74390 81.0
34.74890 72.0
34.75390 69.0
34.75890 70.0
34.76390 67.0
34.76890 68.0
34.77390 78.0
34.77890 58.0
34.78390 71.0
34.78890 73.0
34.79390 81.0
34.79890 86.0
34.80390 79.0
34.80890 63.0
34.81390 62.0
34.81890 85.0
34.82390 65.0
34.82890 67.0
34.83390 85.0
34.83890 75.0
34.84390 58.0
34.84890 66.0
34.85390 69.0
34.85890 86.0
34.86390 59.0
34.86890 74.0
34.87390 71.0
34.87890 64.0
34.88390 66.0
34.88890 67.0