File: data/W6908c/XRD_Omega/scan_omega_4deg_step_0.005deg0_C9_3.xy
17.48640 60.0
17.49140 72.0
17.49640 64.0
17.50140 60.0
17.50640 65.0
17.51140 54.0
17.51640 48.0
17.52140 62.0
17.52640 67.0
17.53140 54.0
17.53640 62.0
17.54140 70.0
17.54640 68.0
17.55140 65.0
17.55640 60.0
17.56140 64.0
17.56640 77.0
17.57140 66.0
17.57640 67.0
17.58140 59.0
17.58640 64.0
17.59140 59.0
17.59640 56.0
17.60140 57.0
17.60640 54.0
17.61140 68.0
17.61640 65.0
17.62140 63.0
17.62640 63.0
17.63140 73.0
17.63640 63.0
17.64140 78.0
17.64640 56.0
17.65140 63.0
17.65640 49.0
17.66140 59.0
17.66640 78.0
17.67140 73.0
17.67640 49.0
17.68140 48.0
17.68640 71.0
17.69140 60.0
17.69640 67.0
17.70140 64.0
17.70640 68.0
17.71140 68.0
17.71640 62.0
17.72140 64.0
17.72640 60.0
17.73140 67.0
17.73640 52.0
17.74140 56.0
17.74640 63.0
17.75140 54.0
17.75640 58.0
17.76140 59.0
17.76640 57.0
17.77140 55.0
17.77640 74.0
17.78140 57.0
17.78640 74.0
17.79140 61.0
17.79640 60.0
17.80140 45.0
17.80640 49.0
17.81140 64.0
17.81640 76.0
17.82140 81.0
17.82640 51.0
17.83140 61.0
17.83640 48.0
17.84140 57.0
17.84640 53.0
17.85140 88.0
17.85640 77.0
17.86140 68.0
17.86640 56.0
17.87140 73.0
17.87640 59.0
17.88140 57.0
17.88640 73.0
17.89140 70.0
17.89640 52.0
17.90140 52.0
17.90640 71.0
17.91140 80.0
17.91640 56.0
17.92140 60.0
17.92640 64.0
17.93140 69.0
17.93640 68.0
17.94140 51.0
17.94640 55.0
17.95140 71.0
17.95640 75.0
17.96140 58.0
17.96640 60.0
17.97140 61.0
17.97640 67.0
17.98140 63.0
17.98640 62.0
17.99140 58.0
17.99640 65.0
18.00140 54.0
18.00640 65.0
18.01140 75.0
18.01640 58.0
18.02140 61.0
18.02640 70.0
18.03140 78.0
18.03640 65.0
18.04140 66.0
18.04640 59.0
18.05140 74.0
18.05640 69.0
18.06140 56.0
18.06640 62.0
18.07140 63.0
18.07640 72.0
18.08140 66.0
18.08640 73.0
18.09140 53.0
18.09640 70.0
18.10140 62.0
18.10640 69.0
18.11140 71.0
18.11640 53.0
18.12140 56.0
18.12640 63.0
18.13140 76.0
18.13640 56.0
18.14140 57.0
18.14640 55.0
18.15140 58.0
18.15640 63.0
18.16140 53.0
18.16640 71.0
18.17140 66.0
18.17640 59.0
18.18140 66.0
18.18640 60.0
18.19140 68.0
18.19640 63.0
18.20140 77.0
18.20640 65.0
18.21140 67.0
18.21640 70.0
18.22140 57.0
18.22640 52.0
18.23140 71.0
18.23640 53.0
18.24140 57.0
18.24640 59.0
18.25140 56.0
18.25640 51.0
18.26140 60.0
18.26640 64.0
18.27140 58.0
18.27640 62.0
18.28140 53.0
18.28640 59.0
18.29140 72.0
18.29640 72.0
18.30140 77.0
18.30640 55.0
18.31140 63.0
18.31640 57.0
18.32140 64.0
18.32640 63.0
18.33140 49.0
18.33640 57.0
18.34140 56.0
18.34640 70.0
18.35140 70.0
18.35640 68.0
18.36140 73.0
18.36640 64.0
18.37140 77.0
18.37640 49.0
18.38140 80.0
18.38640 61.0
18.39140 61.0
18.39640 53.0
18.40140 54.0
18.40640 81.0
18.41140 46.0
18.41640 51.0
18.42140 55.0
18.42640 72.0
18.43140 53.0
18.43640 53.0
18.44140 67.0
18.44640 66.0
18.45140 62.0
18.45640 67.0
18.46140 60.0
18.46640 67.0
18.47140 77.0
18.47640 68.0
18.48140 57.0
18.48640 54.0
18.49140 65.0
18.49640 70.0
18.50140 64.0
18.50640 64.0
18.51140 51.0
18.51640 75.0
18.52140 58.0
18.52640 75.0
18.53140 59.0
18.53640 67.0
18.54140 61.0
18.54640 52.0
18.55140 58.0
18.55640 42.0
18.56140 66.0
18.56640 68.0
18.57140 59.0
18.57640 62.0
18.58140 52.0
18.58640 64.0
18.59140 63.0
18.59640 67.0
18.60140 65.0
18.60640 73.0
18.61140 57.0
18.61640 62.0
18.62140 70.0
18.62640 67.0
18.63140 57.0
18.63640 60.0
18.64140 59.0
18.64640 63.0
18.65140 59.0
18.65640 64.0
18.66140 72.0
18.66640 71.0
18.67140 60.0
18.67640 50.0
18.68140 61.0
18.68640 63.0
18.69140 59.0
18.69640 53.0
18.70140 74.0
18.70640 64.0
18.71140 45.0
18.71640 62.0
18.72140 70.0
18.72640 62.0
18.73140 66.0
18.73640 66.0
18.74140 72.0
18.74640 56.0
18.75140 62.0
18.75640 62.0
18.76140 65.0
18.76640 69.0
18.77140 54.0
18.77640 64.0
18.78140 53.0
18.78640 76.0
18.79140 56.0
18.79640 66.0
18.80140 67.0
18.80640 79.0
18.81140 49.0
18.81640 72.0
18.82140 76.0
18.82640 63.0
18.83140 69.0
18.83640 66.0
18.84140 58.0
18.84640 67.0
18.85140 58.0
18.85640 60.0
18.86140 55.0
18.86640 58.0
18.87140 70.0
18.87640 72.0
18.88140 58.0
18.88640 57.0
18.89140 53.0
18.89640 67.0
18.90140 52.0
18.90640 71.0
18.91140 66.0
18.91640 75.0
18.92140 68.0
18.92640 63.0
18.93140 63.0
18.93640 59.0
18.94140 55.0
18.94640 71.0
18.95140 78.0
18.95640 75.0
18.96140 66.0
18.96640 71.0
18.97140 64.0
18.97640 70.0
18.98140 75.0
18.98640 73.0
18.99140 56.0
18.99640 70.0
19.00140 71.0
19.00640 65.0
19.01140 80.0
19.01640 69.0
19.02140 75.0
19.02640 64.0
19.03140 80.0
19.03640 83.0
19.04140 72.0
19.04640 70.0
19.05140 73.0
19.05640 66.0
19.06140 74.0
19.06640 78.0
19.07140 55.0
19.07640 85.0
19.08140 75.0
19.08640 60.0
19.09140 62.0
19.09640 70.0
19.10140 69.0
19.10640 76.0
19.11140 77.0
19.11640 67.0
19.12140 89.0
19.12640 74.0
19.13140 78.0
19.13640 67.0
19.14140 73.0
19.14640 78.0
19.15140 90.0
19.15640 73.0
19.16140 76.0
19.16640 77.0
19.17140 93.0
19.17640 68.0
19.18140 88.0
19.18640 77.0
19.19140 76.0
19.19640 79.0
19.20140 84.0
19.20640 88.0
19.21140 87.0
19.21640 58.0
19.22140 77.0
19.22640 82.0
19.23140 88.0
19.23640 96.0
19.24140 97.0
19.24640 92.0
19.25140 105.0
19.25640 106.0
19.26140 115.0
19.26640 88.0
19.27140 95.0
19.27640 99.0
19.28140 84.0
19.28640 71.0
19.29140 103.0
19.29640 94.0
19.30140 102.0
19.30640 110.0
19.31140 106.0
19.31640 122.0
19.32140 117.0
19.32640 143.0
19.33140 181.0
19.33640 200.0
19.34140 248.0
19.34640 263.0
19.35140 306.0
19.35640 298.0
19.36140 318.0
19.36640 293.0
19.37140 301.0
19.37640 290.0
19.38140 304.0
19.38640 300.0
19.39140 297.0
19.39640 298.0
19.40140 291.0
19.40640 320.0
19.41140 321.0
19.41640 334.0
19.42140 341.0
19.42640 327.0
19.43140 357.0
19.43640 304.0
19.44140 315.0
19.44640 332.0
19.45140 340.0
19.45640 312.0
19.46140 339.0
19.46640 356.0
19.47140 335.0
19.47640 322.0
19.48140 342.0
19.48640 366.0
19.49140 330.0
19.49640 334.0
19.50140 308.0
19.50640 321.0
19.51140 369.0
19.51640 332.0
19.52140 321.0
19.52640 321.0
19.53140 295.0
19.53640 321.0
19.54140 302.0
19.54640 316.0
19.55140 346.0
19.55640 299.0
19.56140 288.0
19.56640 314.0
19.57140 334.0
19.57640 276.0
19.58140 293.0
19.58640 278.0
19.59140 267.0
19.59640 236.0
19.60140 210.0
19.60640 175.0
19.61140 149.0
19.61640 140.0
19.62140 114.0
19.62640 102.0
19.63140 87.0
19.63640 76.0
19.64140 98.0
19.64640 115.0
19.65140 91.0
19.65640 100.0
19.66140 94.0
19.66640 76.0
19.67140 79.0
19.67640 112.0
19.68140 90.0
19.68640 85.0
19.69140 99.0
19.69640 94.0
19.70140 74.0
19.70640 92.0
19.71140 86.0
19.71640 94.0
19.72140 90.0
19.72640 84.0
19.73140 77.0
19.73640 90.0
19.74140 95.0
19.74640 88.0
19.75140 74.0
19.75640 68.0
19.76140 69.0
19.76640 72.0
19.77140 81.0
19.77640 72.0
19.78140 54.0
19.78640 77.0
19.79140 77.0
19.79640 79.0
19.80140 94.0
19.80640 50.0
19.81140 67.0
19.81640 80.0
19.82140 73.0
19.82640 76.0
19.83140 83.0
19.83640 75.0
19.84140 79.0
19.84640 86.0
19.85140 61.0
19.85640 66.0
19.86140 66.0
19.86640 67.0
19.87140 69.0
19.87640 83.0
19.88140 68.0
19.88640 61.0
19.89140 67.0
19.89640 62.0
19.90140 67.0
19.90640 60.0
19.91140 58.0
19.91640 76.0
19.92140 75.0
19.92640 77.0
19.93140 73.0
19.93640 72.0
19.94140 69.0
19.94640 58.0
19.95140 55.0
19.95640 64.0
19.96140 67.0
19.96640 67.0
19.97140 64.0
19.97640 55.0
19.98140 55.0
19.98640 77.0
19.99140 62.0
19.99640 62.0
20.00140 57.0
20.00640 57.0
20.01140 50.0
20.01640 62.0
20.02140 61.0
20.02640 67.0
20.03140 75.0
20.03640 61.0
20.04140 62.0
20.04640 54.0
20.05140 52.0
20.05640 62.0
20.06140 63.0
20.06640 75.0
20.07140 65.0
20.07640 56.0
20.08140 63.0
20.08640 65.0
20.09140 57.0
20.09640 68.0
20.10140 59.0
20.10640 53.0
20.11140 76.0
20.11640 55.0
20.12140 64.0
20.12640 58.0
20.13140 66.0
20.13640 56.0
20.14140 55.0
20.14640 53.0
20.15140 51.0
20.15640 62.0
20.16140 63.0
20.16640 73.0
20.17140 50.0
20.17640 68.0
20.18140 67.0
20.18640 61.0
20.19140 60.0
20.19640 58.0
20.20140 57.0
20.20640 62.0
20.21140 57.0
20.21640 61.0
20.22140 50.0
20.22640 64.0
20.23140 53.0
20.23640 56.0
20.24140 62.0
20.24640 57.0
20.25140 61.0
20.25640 56.0
20.26140 63.0
20.26640 53.0
20.27140 62.0
20.27640 56.0
20.28140 50.0
20.28640 58.0
20.29140 63.0
20.29640 53.0
20.30140 66.0
20.30640 53.0
20.31140 50.0
20.31640 61.0
20.32140 45.0
20.32640 59.0
20.33140 56.0
20.33640 62.0
20.34140 59.0
20.34640 57.0
20.35140 53.0
20.35640 53.0
20.36140 56.0
20.36640 65.0
20.37140 53.0
20.37640 60.0
20.38140 53.0
20.38640 47.0
20.39140 57.0
20.39640 61.0
20.40140 50.0
20.40640 68.0
20.41140 54.0
20.41640 57.0
20.42140 59.0
20.42640 48.0
20.43140 62.0
20.43640 57.0
20.44140 48.0
20.44640 56.0
20.45140 58.0
20.45640 55.0
20.46140 59.0
20.46640 56.0
20.47140 62.0
20.47640 69.0
20.48140 58.0
20.48640 49.0
20.49140 58.0
20.49640 46.0
20.50140 47.0
20.50640 49.0
20.51140 57.0
20.51640 58.0
20.52140 49.0
20.52640 56.0
20.53140 57.0
20.53640 56.0
20.54140 50.0
20.54640 55.0
20.55140 47.0
20.55640 62.0
20.56140 62.0
20.56640 48.0
20.57140 51.0
20.57640 58.0
20.58140 49.0
20.58640 59.0
20.59140 71.0
20.59640 58.0
20.60140 58.0
20.60640 56.0
20.61140 56.0
20.61640 55.0
20.62140 54.0
20.62640 48.0
20.63140 60.0
20.63640 61.0
20.64140 56.0
20.64640 53.0
20.65140 56.0
20.65640 63.0
20.66140 53.0
20.66640 50.0
20.67140 55.0
20.67640 47.0
20.68140 62.0
20.68640 49.0
20.69140 57.0
20.69640 50.0
20.70140 50.0
20.70640 50.0
20.71140 62.0
20.71640 34.0
20.72140 58.0
20.72640 50.0
20.73140 54.0
20.73640 52.0
20.74140 55.0
20.74640 66.0
20.75140 44.0
20.75640 56.0
20.76140 65.0
20.76640 43.0
20.77140 64.0
20.77640 53.0
20.78140 51.0
20.78640 61.0
20.79140 59.0
20.79640 51.0
20.80140 62.0
20.80640 65.0
20.81140 65.0
20.81640 53.0
20.82140 45.0
20.82640 65.0
20.83140 55.0
20.83640 60.0
20.84140 57.0
20.84640 46.0
20.85140 50.0
20.85640 61.0
20.86140 47.0
20.86640 47.0
20.87140 44.0
20.87640 63.0
20.88140 63.0
20.88640 42.0
20.89140 49.0
20.89640 60.0
20.90140 56.0
20.90640 57.0
20.91140 74.0
20.91640 56.0
20.92140 44.0
20.92640 65.0
20.93140 60.0
20.93640 55.0
20.94140 53.0
20.94640 64.0
20.95140 60.0
20.95640 60.0
20.96140 49.0
20.96640 50.0
20.97140 29.0
20.97640 59.0
20.98140 51.0
20.98640 60.0
20.99140 46.0
20.99640 56.0
21.00140 51.0
21.00640 57.0
21.01140 51.0
21.01640 48.0
21.02140 57.0
21.02640 47.0
21.03140 56.0
21.03640 51.0
21.04140 48.0
21.04640 60.0
21.05140 53.0
21.05640 56.0
21.06140 64.0
21.06640 48.0
21.07140 40.0
21.07640 58.0
21.08140 43.0
21.08640 45.0
21.09140 58.0
21.09640 52.0
21.10140 41.0
21.10640 40.0
21.11140 54.0
21.11640 49.0
21.12140 52.0
21.12640 42.0
21.13140 56.0
21.13640 57.0
21.14140 51.0
21.14640 68.0
21.15140 49.0
21.15640 56.0
21.16140 43.0
21.16640 53.0
21.17140 57.0
21.17640 59.0
21.18140 57.0
21.18640 50.0
21.19140 52.0
21.19640 63.0
21.20140 50.0
21.20640 36.0
21.21140 53.0
21.21640 60.0
21.22140 51.0
21.22640 49.0
21.23140 67.0
21.23640 49.0
21.24140 50.0
21.24640 40.0
21.25140 46.0
21.25640 65.0
21.26140 55.0
21.26640 61.0
21.27140 50.0
21.27640 48.0
21.28140 59.0
21.28640 59.0
21.29140 49.0
21.29640 59.0
21.30140 54.0
21.30640 61.0
21.31140 58.0
21.31640 59.0
21.32140 45.0
21.32640 50.0
21.33140 42.0
21.33640 35.0
21.34140 41.0
21.34640 65.0
21.35140 42.0
21.35640 46.0
21.36140 50.0
21.36640 47.0
21.37140 57.0
21.37640 49.0
21.38140 49.0
21.38640 65.0
21.39140 47.0
21.39640 39.0
21.40140 52.0
21.40640 48.0
21.41140 55.0
21.41640 56.0
21.42140 49.0
21.42640 54.0
21.43140 59.0
21.43640 47.0
21.44140 49.0
21.44640 53.0