File: data/w6930m/XRD_Omega/film_m_can_omega_4deg_step_0.005deg0_C3.xy
30.33640 34.0
30.34140 37.0
30.34640 40.0
30.35140 32.0
30.35640 36.0
30.36140 33.0
30.36640 28.0
30.37140 37.0
30.37640 39.0
30.38140 44.0
30.38640 34.0
30.39140 33.0
30.39640 32.0
30.40140 32.0
30.40640 39.0
30.41140 29.0
30.41640 36.0
30.42140 38.0
30.42640 41.0
30.43140 37.0
30.43640 38.0
30.44140 40.0
30.44640 26.0
30.45140 36.0
30.45640 32.0
30.46140 44.0
30.46640 44.0
30.47140 32.0
30.47640 32.0
30.48140 45.0
30.48640 30.0
30.49140 41.0
30.49640 29.0
30.50140 44.0
30.50640 40.0
30.51140 28.0
30.51640 36.0
30.52140 40.0
30.52640 33.0
30.53140 38.0
30.53640 40.0
30.54140 31.0
30.54640 33.0
30.55140 34.0
30.55640 46.0
30.56140 34.0
30.56640 24.0
30.57140 34.0
30.57640 33.0
30.58140 39.0
30.58640 46.0
30.59140 46.0
30.59640 27.0
30.60140 37.0
30.60640 44.0
30.61140 39.0
30.61640 42.0
30.62140 31.0
30.62640 36.0
30.63140 25.0
30.63640 50.0
30.64140 36.0
30.64640 42.0
30.65140 36.0
30.65640 38.0
30.66140 33.0
30.66640 42.0
30.67140 30.0
30.67640 41.0
30.68140 41.0
30.68640 29.0
30.69140 39.0
30.69640 44.0
30.70140 37.0
30.70640 39.0
30.71140 37.0
30.71640 48.0
30.72140 23.0
30.72640 41.0
30.73140 36.0
30.73640 31.0
30.74140 31.0
30.74640 25.0
30.75140 36.0
30.75640 37.0
30.76140 29.0
30.76640 33.0
30.77140 19.0
30.77640 26.0
30.78140 37.0
30.78640 38.0
30.79140 39.0
30.79640 28.0
30.80140 29.0
30.80640 39.0
30.81140 36.0
30.81640 35.0
30.82140 36.0
30.82640 37.0
30.83140 35.0
30.83640 35.0
30.84140 40.0
30.84640 36.0
30.85140 44.0
30.85640 33.0
30.86140 38.0
30.86640 25.0
30.87140 34.0
30.87640 33.0
30.88140 33.0
30.88640 32.0
30.89140 29.0
30.89640 36.0
30.90140 38.0
30.90640 29.0
30.91140 32.0
30.91640 32.0
30.92140 45.0
30.92640 30.0
30.93140 50.0
30.93640 36.0
30.94140 33.0
30.94640 28.0
30.95140 37.0
30.95640 36.0
30.96140 33.0
30.96640 34.0
30.97140 36.0
30.97640 35.0
30.98140 34.0
30.98640 44.0
30.99140 40.0
30.99640 46.0
31.00140 30.0
31.00640 32.0
31.01140 26.0
31.01640 40.0
31.02140 31.0
31.02640 25.0
31.03140 35.0
31.03640 34.0
31.04140 44.0
31.04640 29.0
31.05140 30.0
31.05640 39.0
31.06140 34.0
31.06640 25.0
31.07140 48.0
31.07640 37.0
31.08140 36.0
31.08640 35.0
31.09140 39.0
31.09640 34.0
31.10140 37.0
31.10640 31.0
31.11140 42.0
31.11640 35.0
31.12140 34.0
31.12640 33.0
31.13140 36.0
31.13640 31.0
31.14140 34.0
31.14640 36.0
31.15140 30.0
31.15640 43.0
31.16140 49.0
31.16640 32.0
31.17140 41.0
31.17640 38.0
31.18140 33.0
31.18640 34.0
31.19140 27.0
31.19640 34.0
31.20140 34.0
31.20640 32.0
31.21140 32.0
31.21640 32.0
31.22140 47.0
31.22640 31.0
31.23140 34.0
31.23640 44.0
31.24140 34.0
31.24640 36.0
31.25140 22.0
31.25640 21.0
31.26140 46.0
31.26640 42.0
31.27140 33.0
31.27640 35.0
31.28140 36.0
31.28640 34.0
31.29140 32.0
31.29640 35.0
31.30140 34.0
31.30640 32.0
31.31140 28.0
31.31640 28.0
31.32140 34.0
31.32640 41.0
31.33140 41.0
31.33640 40.0
31.34140 42.0
31.34640 40.0
31.35140 30.0
31.35640 42.0
31.36140 33.0
31.36640 37.0
31.37140 40.0
31.37640 36.0
31.38140 30.0
31.38640 39.0
31.39140 30.0
31.39640 25.0
31.40140 26.0
31.40640 33.0
31.41140 30.0
31.41640 26.0
31.42140 37.0
31.42640 31.0
31.43140 33.0
31.43640 43.0
31.44140 31.0
31.44640 35.0
31.45140 28.0
31.45640 40.0
31.46140 38.0
31.46640 34.0
31.47140 27.0
31.47640 41.0
31.48140 32.0
31.48640 34.0
31.49140 31.0
31.49640 33.0
31.50140 32.0
31.50640 31.0
31.51140 41.0
31.51640 34.0
31.52140 26.0
31.52640 37.0
31.53140 29.0
31.53640 44.0
31.54140 43.0
31.54640 39.0
31.55140 39.0
31.55640 35.0
31.56140 29.0
31.56640 43.0
31.57140 28.0
31.57640 38.0
31.58140 31.0
31.58640 33.0
31.59140 42.0
31.59640 35.0
31.60140 38.0
31.60640 39.0
31.61140 39.0
31.61640 39.0
31.62140 30.0
31.62640 25.0
31.63140 35.0
31.63640 33.0
31.64140 28.0
31.64640 41.0
31.65140 41.0
31.65640 46.0
31.66140 32.0
31.66640 46.0
31.67140 46.0
31.67640 28.0
31.68140 41.0
31.68640 29.0
31.69140 37.0
31.69640 36.0
31.70140 35.0
31.70640 32.0
31.71140 38.0
31.71640 37.0
31.72140 38.0
31.72640 31.0
31.73140 40.0
31.73640 44.0
31.74140 48.0
31.74640 40.0
31.75140 33.0
31.75640 56.0
31.76140 36.0
31.76640 28.0
31.77140 35.0
31.77640 46.0
31.78140 37.0
31.78640 32.0
31.79140 44.0
31.79640 37.0
31.80140 49.0
31.80640 42.0
31.81140 35.0
31.81640 31.0
31.82140 35.0
31.82640 34.0
31.83140 42.0
31.83640 42.0
31.84140 32.0
31.84640 42.0
31.85140 37.0
31.85640 27.0
31.86140 38.0
31.86640 50.0
31.87140 41.0
31.87640 37.0
31.88140 38.0
31.88640 39.0
31.89140 43.0
31.89640 36.0
31.90140 51.0
31.90640 29.0
31.91140 43.0
31.91640 45.0
31.92140 39.0
31.92640 37.0
31.93140 41.0
31.93640 38.0
31.94140 43.0
31.94640 42.0
31.95140 47.0
31.95640 37.0
31.96140 39.0
31.96640 38.0
31.97140 33.0
31.97640 33.0
31.98140 37.0
31.98640 37.0
31.99140 39.0
31.99640 33.0
32.00140 33.0
32.00640 45.0
32.01140 46.0
32.01640 39.0
32.02140 45.0
32.02640 47.0
32.03140 39.0
32.03640 41.0
32.04140 47.0
32.04640 48.0
32.05140 40.0
32.05640 40.0
32.06140 44.0
32.06640 36.0
32.07140 43.0
32.07640 45.0
32.08140 50.0
32.08640 48.0
32.09140 35.0
32.09640 41.0
32.10140 37.0
32.10640 48.0
32.11140 39.0
32.11640 38.0
32.12140 44.0
32.12640 40.0
32.13140 49.0
32.13640 43.0
32.14140 38.0
32.14640 50.0
32.15140 48.0
32.15640 35.0
32.16140 46.0
32.16640 36.0
32.17140 53.0
32.17640 46.0
32.18140 40.0
32.18640 52.0
32.19140 47.0
32.19640 57.0
32.20140 39.0
32.20640 58.0
32.21140 52.0
32.21640 60.0
32.22140 71.0
32.22640 70.0
32.23140 69.0
32.23640 70.0
32.24140 80.0
32.24640 64.0
32.25140 56.0
32.25640 83.0
32.26140 76.0
32.26640 67.0
32.27140 72.0
32.27640 91.0
32.28140 84.0
32.28640 74.0
32.29140 89.0
32.29640 87.0
32.30140 92.0
32.30640 122.0
32.31140 116.0
32.31640 131.0
32.32140 115.0
32.32640 111.0
32.33140 112.0
32.33640 105.0
32.34140 86.0
32.34640 101.0
32.35140 97.0
32.35640 101.0
32.36140 76.0
32.36640 86.0
32.37140 83.0
32.37640 87.0
32.38140 73.0
32.38640 68.0
32.39140 100.0
32.39640 92.0
32.40140 88.0
32.40640 78.0
32.41140 70.0
32.41640 70.0
32.42140 66.0
32.42640 78.0
32.43140 81.0
32.43640 69.0
32.44140 72.0
32.44640 76.0
32.45140 78.0
32.45640 88.0
32.46140 73.0
32.46640 51.0
32.47140 49.0
32.47640 62.0
32.48140 43.0
32.48640 47.0
32.49140 58.0
32.49640 47.0
32.50140 52.0
32.50640 57.0
32.51140 38.0
32.51640 42.0
32.52140 53.0
32.52640 48.0
32.53140 49.0
32.53640 35.0
32.54140 44.0
32.54640 37.0
32.55140 41.0
32.55640 38.0
32.56140 44.0
32.56640 46.0
32.57140 42.0
32.57640 40.0
32.58140 44.0
32.58640 41.0
32.59140 39.0
32.59640 48.0
32.60140 42.0
32.60640 47.0
32.61140 54.0
32.61640 46.0
32.62140 44.0
32.62640 45.0
32.63140 35.0
32.63640 44.0
32.64140 36.0
32.64640 41.0
32.65140 45.0
32.65640 33.0
32.66140 26.0
32.66640 36.0
32.67140 30.0
32.67640 38.0
32.68140 41.0
32.68640 34.0
32.69140 49.0
32.69640 40.0
32.70140 35.0
32.70640 49.0
32.71140 25.0
32.71640 34.0
32.72140 53.0
32.72640 42.0
32.73140 48.0
32.73640 38.0
32.74140 39.0
32.74640 40.0
32.75140 39.0
32.75640 36.0
32.76140 29.0
32.76640 47.0
32.77140 41.0
32.77640 40.0
32.78140 51.0
32.78640 32.0
32.79140 34.0
32.79640 39.0
32.80140 32.0
32.80640 34.0
32.81140 37.0
32.81640 44.0
32.82140 39.0
32.82640 39.0
32.83140 37.0
32.83640 40.0
32.84140 44.0
32.84640 42.0
32.85140 28.0
32.85640 42.0
32.86140 35.0
32.86640 33.0
32.87140 30.0
32.87640 45.0
32.88140 39.0
32.88640 50.0
32.89140 43.0
32.89640 40.0
32.90140 40.0
32.90640 35.0
32.91140 29.0
32.91640 41.0
32.92140 33.0
32.92640 36.0
32.93140 35.0
32.93640 31.0
32.94140 29.0
32.94640 42.0
32.95140 38.0
32.95640 43.0
32.96140 42.0
32.96640 50.0
32.97140 26.0
32.97640 36.0
32.98140 28.0
32.98640 35.0
32.99140 33.0
32.99640 34.0
33.00140 29.0
33.00640 36.0
33.01140 27.0
33.01640 42.0
33.02140 42.0
33.02640 41.0
33.03140 31.0
33.03640 31.0
33.04140 43.0
33.04640 31.0
33.05140 38.0
33.05640 37.0
33.06140 30.0
33.06640 35.0
33.07140 33.0
33.07640 38.0
33.08140 24.0
33.08640 40.0
33.09140 45.0
33.09640 31.0
33.10140 38.0
33.10640 42.0
33.11140 26.0
33.11640 32.0
33.12140 27.0
33.12640 36.0
33.13140 46.0
33.13640 15.0
33.14140 37.0
33.14640 46.0
33.15140 39.0
33.15640 46.0
33.16140 34.0
33.16640 26.0
33.17140 37.0
33.17640 48.0
33.18140 43.0
33.18640 32.0
33.19140 29.0
33.19640 44.0
33.20140 32.0
33.20640 27.0
33.21140 32.0
33.21640 34.0
33.22140 35.0
33.22640 34.0
33.23140 41.0
33.23640 40.0
33.24140 40.0
33.24640 43.0
33.25140 30.0
33.25640 34.0
33.26140 36.0
33.26640 38.0
33.27140 41.0
33.27640 48.0
33.28140 39.0
33.28640 31.0
33.29140 35.0
33.29640 33.0
33.30140 31.0
33.30640 38.0
33.31140 33.0
33.31640 41.0
33.32140 35.0
33.32640 31.0
33.33140 27.0
33.33640 36.0
33.34140 29.0
33.34640 38.0
33.35140 40.0
33.35640 26.0
33.36140 44.0
33.36640 38.0
33.37140 33.0
33.37640 27.0
33.38140 34.0
33.38640 33.0
33.39140 31.0
33.39640 43.0
33.40140 47.0
33.40640 30.0
33.41140 47.0
33.41640 34.0
33.42140 37.0
33.42640 35.0
33.43140 28.0
33.43640 33.0
33.44140 33.0
33.44640 37.0
33.45140 32.0
33.45640 37.0
33.46140 26.0
33.46640 31.0
33.47140 34.0
33.47640 39.0
33.48140 40.0
33.48640 39.0
33.49140 43.0
33.49640 32.0
33.50140 30.0
33.50640 50.0
33.51140 28.0
33.51640 35.0
33.52140 38.0
33.52640 40.0
33.53140 36.0
33.53640 43.0
33.54140 38.0
33.54640 32.0
33.55140 46.0
33.55640 42.0
33.56140 27.0
33.56640 34.0
33.57140 38.0
33.57640 40.0
33.58140 35.0
33.58640 27.0
33.59140 23.0
33.59640 42.0
33.60140 39.0
33.60640 28.0
33.61140 26.0
33.61640 28.0
33.62140 30.0
33.62640 27.0
33.63140 27.0
33.63640 27.0
33.64140 35.0
33.64640 30.0
33.65140 33.0
33.65640 34.0
33.66140 28.0
33.66640 50.0
33.67140 32.0
33.67640 36.0
33.68140 34.0
33.68640 32.0
33.69140 31.0
33.69640 28.0
33.70140 29.0
33.70640 36.0
33.71140 37.0
33.71640 34.0
33.72140 25.0
33.72640 28.0
33.73140 40.0
33.73640 28.0
33.74140 30.0
33.74640 32.0
33.75140 45.0
33.75640 26.0
33.76140 33.0
33.76640 33.0
33.77140 40.0
33.77640 40.0
33.78140 33.0
33.78640 31.0
33.79140 32.0
33.79640 23.0
33.80140 43.0
33.80640 32.0
33.81140 38.0
33.81640 38.0
33.82140 26.0
33.82640 28.0
33.83140 31.0
33.83640 30.0
33.84140 27.0
33.84640 34.0
33.85140 29.0
33.85640 36.0
33.86140 34.0
33.86640 27.0
33.87140 30.0
33.87640 25.0
33.88140 35.0
33.88640 20.0
33.89140 36.0
33.89640 35.0
33.90140 26.0
33.90640 37.0
33.91140 45.0
33.91640 34.0
33.92140 31.0
33.92640 35.0
33.93140 40.0
33.93640 33.0
33.94140 34.0
33.94640 33.0
33.95140 36.0
33.95640 38.0
33.96140 32.0
33.96640 32.0
33.97140 31.0
33.97640 41.0
33.98140 26.0
33.98640 35.0
33.99140 35.0
33.99640 28.0
34.00140 22.0
34.00640 32.0
34.01140 37.0
34.01640 34.0
34.02140 23.0
34.02640 35.0
34.03140 26.0
34.03640 37.0
34.04140 34.0
34.04640 39.0
34.05140 45.0
34.05640 26.0
34.06140 32.0
34.06640 34.0
34.07140 42.0
34.07640 29.0
34.08140 26.0
34.08640 26.0
34.09140 29.0
34.09640 26.0
34.10140 38.0
34.10640 36.0
34.11140 24.0
34.11640 34.0
34.12140 33.0
34.12640 24.0
34.13140 40.0
34.13640 28.0
34.14140 24.0
34.14640 34.0
34.15140 24.0
34.15640 28.0
34.16140 25.0
34.16640 23.0
34.17140 32.0
34.17640 31.0
34.18140 43.0
34.18640 31.0
34.19140 33.0
34.19640 27.0
34.20140 29.0
34.20640 31.0
34.21140 28.0
34.21640 29.0
34.22140 36.0
34.22640 35.0
34.23140 31.0
34.23640 29.0
34.24140 25.0
34.24640 29.0
34.25140 25.0
34.25640 37.0
34.26140 28.0
34.26640 27.0
34.27140 35.0
34.27640 24.0
34.28140 36.0
34.28640 33.0
34.29140 31.0
34.29640 36.0