File: data/W6900r/XRD_2ThetaOmega/scan_2th-om_r2_Cr2O3_45-55deg_PIXscan_5min_C1.xy
45.0025 99.0
45.0123 102.0
45.0222 97.0
45.032 99.0
45.0419 98.0
45.0517 106.0
45.0615 99.0
45.0714 86.0
45.0812 108.0
45.0911 87.0
45.1009 107.0
45.1108 101.0
45.1206 105.0
45.1305 85.0
45.1403 85.0
45.1502 100.0
45.16 111.0
45.1699 85.0
45.1797 107.0
45.1896 92.0
45.1994 97.0
45.2093 77.0
45.2191 119.0
45.229 115.0
45.2388 94.0
45.2487 98.0
45.2585 87.0
45.2684 96.0
45.2782 121.0
45.288 111.0
45.2979 97.0
45.3077 111.0
45.3176 93.0
45.3274 93.0
45.3373 107.0
45.3471 83.0
45.357 96.0
45.3668 102.0
45.3767 120.0
45.3865 105.0
45.3964 106.0
45.4062 97.0
45.4161 87.0
45.4259 97.0
45.4358 112.0
45.4456 104.0
45.4555 112.0
45.4653 95.0
45.4752 112.0
45.485 97.0
45.4948 95.0
45.5047 93.0
45.5145 103.0
45.5244 103.0
45.5342 96.0
45.5441 98.0
45.5539 87.0
45.5638 90.0
45.5736 94.0
45.5835 103.0
45.5933 81.0
45.6032 100.0
45.613 108.0
45.6229 87.0
45.6327 118.0
45.6426 90.0
45.6524 86.0
45.6623 123.0
45.6721 94.0
45.682 93.0
45.6918 97.0
45.7016 127.0
45.7115 104.0
45.7213 95.0
45.7312 95.0
45.741 112.0
45.7509 97.0
45.7607 94.0
45.7706 105.0
45.7804 105.0
45.7903 97.0
45.8001 93.0
45.81 111.0
45.8198 103.0
45.8297 95.0
45.8395 96.0
45.8494 110.0
45.8592 97.0
45.8691 87.0
45.8789 89.0
45.8888 114.0
45.8986 103.0
45.9085 110.0
45.9183 92.0
45.9281 98.0
45.938 93.0
45.9478 94.0
45.9577 94.0
45.9675 102.0
45.9774 105.0
45.9872 97.0
45.9971 109.0
46.0069 94.0
46.0168 99.0
46.0266 93.0
46.0365 111.0
46.0463 111.0
46.0562 90.0
46.066 105.0
46.0759 87.0
46.0857 101.0
46.0956 91.0
46.1054 108.0
46.1153 85.0
46.1251 92.0
46.1349 113.0
46.1448 92.0
46.1546 77.0
46.1645 102.0
46.1743 86.0
46.1842 122.0
46.194 100.0
46.2039 99.0
46.2137 91.0
46.2236 101.0
46.2334 108.0
46.2433 106.0
46.2531 100.0
46.263 96.0
46.2728 88.0
46.2827 87.0
46.2925 102.0
46.3024 91.0
46.3122 86.0
46.3221 108.0
46.3319 100.0
46.3418 90.0
46.3516 106.0
46.3614 102.0
46.3713 117.0
46.3811 95.0
46.391 90.0
46.4008 87.0
46.4107 94.0
46.4205 120.0
46.4304 98.0
46.4402 106.0
46.4501 94.0
46.4599 100.0
46.4698 86.0
46.4796 96.0
46.4895 93.0
46.4993 87.0
46.5092 115.0
46.519 103.0
46.5289 85.0
46.5387 107.0
46.5486 96.0
46.5584 116.0
46.5682 115.0
46.5781 100.0
46.5879 96.0
46.5978 87.0
46.6076 87.0
46.6175 105.0
46.6273 113.0
46.6372 108.0
46.647 114.0
46.6569 120.0
46.6667 120.0
46.6766 118.0
46.6864 125.0
46.6963 91.0
46.7061 118.0
46.716 109.0
46.7258 129.0
46.7357 120.0
46.7455 114.0
46.7554 103.0
46.7652 106.0
46.7751 123.0
46.7849 92.0
46.7947 121.0
46.8046 111.0
46.8144 110.0
46.8243 99.0
46.8341 100.0
46.844 99.0
46.8538 113.0
46.8637 122.0
46.8735 104.0
46.8834 100.0
46.8932 118.0
46.9031 115.0
46.9129 103.0
46.9228 127.0
46.9326 113.0
46.9425 116.0
46.9523 108.0
46.9622 101.0
46.972 125.0
46.9819 113.0
46.9917 133.0
47.0015 156.0
47.0114 159.0
47.0212 157.0
47.0311 186.0
47.0409 276.0
47.0508 351.0
47.0606 460.0
47.0705 687.0
47.0803 1027.0
47.0902 1432.0
47.1 1655.0
47.1099 1756.0
47.1197 1683.0
47.1296 1479.0
47.1394 1212.0
47.1493 793.0
47.1591 594.0
47.169 426.0
47.1788 359.0
47.1887 305.0
47.1985 232.0
47.2083 235.0
47.2182 213.0
47.228 168.0
47.2379 140.0
47.2477 162.0
47.2576 150.0
47.2674 155.0
47.2773 147.0
47.2871 124.0
47.297 134.0
47.3068 131.0
47.3167 128.0
47.3265 159.0
47.3364 139.0
47.3462 137.0
47.3561 128.0
47.3659 107.0
47.3758 120.0
47.3856 137.0
47.3955 126.0
47.4053 121.0
47.4152 112.0
47.425 124.0
47.4348 118.0
47.4447 134.0
47.4545 108.0
47.4644 104.0
47.4742 132.0
47.4841 121.0
47.4939 111.0
47.5038 110.0
47.5136 109.0
47.5235 107.0
47.5333 112.0
47.5432 118.0
47.553 113.0
47.5629 105.0
47.5727 118.0
47.5826 105.0
47.5924 102.0
47.6023 138.0
47.6121 99.0
47.622 117.0
47.6318 118.0
47.6416 124.0
47.6515 103.0
47.6613 96.0
47.6712 106.0
47.681 106.0
47.6909 116.0
47.7007 102.0
47.7106 108.0
47.7204 118.0
47.7303 113.0
47.7401 110.0
47.75 121.0
47.7598 113.0
47.7697 98.0
47.7795 116.0
47.7894 116.0
47.7992 114.0
47.8091 113.0
47.8189 99.0
47.8288 120.0
47.8386 132.0
47.8485 111.0
47.8583 116.0
47.8681 117.0
47.878 112.0
47.8878 113.0
47.8977 124.0
47.9075 105.0
47.9174 104.0
47.9272 133.0
47.9371 101.0
47.9469 133.0
47.9568 134.0
47.9666 137.0
47.9765 114.0
47.9863 130.0
47.9962 110.0
48.006 109.0
48.0159 118.0
48.0257 109.0
48.0356 123.0
48.0454 127.0
48.0553 116.0
48.0651 131.0
48.0749 131.0
48.0848 121.0
48.0946 124.0
48.1045 108.0
48.1143 127.0
48.1242 121.0
48.134 120.0
48.1439 123.0
48.1537 118.0
48.1636 121.0
48.1734 117.0
48.1833 125.0
48.1931 124.0
48.203 109.0
48.2128 95.0
48.2227 107.0
48.2325 119.0
48.2424 121.0
48.2522 129.0
48.2621 106.0
48.2719 119.0
48.2818 129.0
48.2916 114.0
48.3014 114.0
48.3113 122.0
48.3211 115.0
48.331 114.0
48.3408 112.0
48.3507 132.0
48.3605 115.0
48.3704 113.0
48.3802 126.0
48.3901 134.0
48.3999 134.0
48.4098 122.0
48.4196 114.0
48.4295 122.0
48.4393 105.0
48.4492 119.0
48.459 124.0
48.4689 131.0
48.4787 114.0
48.4886 124.0
48.4984 118.0
48.5082 122.0
48.5181 158.0
48.5279 119.0
48.5378 126.0
48.5476 124.0
48.5575 125.0
48.5673 132.0
48.5772 127.0
48.587 129.0
48.5969 123.0
48.6067 125.0
48.6166 119.0
48.6264 123.0
48.6363 128.0
48.6461 127.0
48.656 144.0
48.6658 120.0
48.6757 102.0
48.6855 115.0
48.6954 127.0
48.7052 119.0
48.715 114.0
48.7249 155.0
48.7347 133.0
48.7446 124.0
48.7544 129.0
48.7643 136.0
48.7741 123.0
48.784 116.0
48.7938 127.0
48.8037 138.0
48.8135 131.0
48.8234 139.0
48.8332 151.0
48.8431 147.0
48.8529 138.0
48.8628 127.0
48.8726 148.0
48.8825 133.0
48.8923 148.0
48.9022 143.0
48.912 149.0
48.9219 158.0
48.9317 129.0
48.9415 142.0
48.9514 134.0
48.9612 142.0
48.9711 145.0
48.9809 140.0
48.9908 130.0
49.0006 159.0
49.0105 162.0
49.0203 162.0
49.0302 142.0
49.04 156.0
49.0499 150.0
49.0597 135.0
49.0696 152.0
49.0794 154.0
49.0893 125.0
49.0991 176.0
49.109 166.0
49.1188 143.0
49.1287 170.0
49.1385 168.0
49.1483 150.0
49.1582 186.0
49.168 202.0
49.1779 159.0
49.1877 186.0
49.1976 173.0
49.2074 170.0
49.2173 175.0
49.2271 187.0
49.237 164.0
49.2468 174.0
49.2567 173.0
49.2665 193.0
49.2764 203.0
49.2862 191.0
49.2961 198.0
49.3059 216.0
49.3158 211.0
49.3256 221.0
49.3355 216.0
49.3453 243.0
49.3552 210.0
49.365 225.0
49.3748 223.0
49.3847 230.0
49.3945 248.0
49.4044 224.0
49.4142 274.0
49.4241 267.0
49.4339 283.0
49.4438 286.0
49.4536 274.0
49.4635 291.0
49.4733 332.0
49.4832 290.0
49.493 324.0
49.5029 319.0
49.5127 324.0
49.5226 362.0
49.5324 371.0
49.5423 352.0
49.5521 370.0
49.562 380.0
49.5718 411.0
49.5816 441.0
49.5915 418.0
49.6013 446.0
49.6112 449.0
49.621 449.0
49.6309 425.0
49.6407 484.0
49.6506 483.0
49.6604 482.0
49.6703 486.0
49.6801 486.0
49.69 514.0
49.6998 534.0
49.7097 570.0
49.7195 497.0
49.7294 567.0
49.7392 521.0
49.7491 561.0
49.7589 564.0
49.7688 584.0
49.7786 573.0
49.7884 537.0
49.7983 554.0
49.8081 555.0
49.818 547.0
49.8278 536.0
49.8377 554.0
49.8475 527.0
49.8574 505.0
49.8672 535.0
49.8771 549.0
49.8869 546.0
49.8968 501.0
49.9066 489.0
49.9165 502.0
49.9263 479.0
49.9362 483.0
49.946 452.0
49.9559 480.0
49.9657 449.0
49.9756 420.0
49.9854 431.0
49.9953 469.0
50.0051 414.0
50.0149 406.0
50.0248 404.0
50.0346 364.0
50.0445 373.0
50.0543 371.0
50.0642 388.0
50.074 369.0
50.0839 380.0
50.0937 317.0
50.1036 333.0
50.1134 322.0
50.1233 399.0
50.1331 337.0
50.143 365.0
50.1528 354.0
50.1627 359.0
50.1725 306.0
50.1824 300.0
50.1922 312.0
50.2021 279.0
50.2119 311.0
50.2217 291.0
50.2316 281.0
50.2414 273.0
50.2513 282.0
50.2611 282.0
50.271 208.0
50.2808 212.0
50.2907 255.0
50.3005 239.0
50.3104 241.0
50.3202 201.0
50.3301 216.0
50.3399 230.0
50.3498 214.0
50.3596 227.0
50.3695 211.0
50.3793 195.0
50.3892 215.0
50.399 214.0
50.4089 219.0
50.4187 206.0
50.4286 200.0
50.4384 203.0
50.4482 192.0
50.4581 175.0
50.4679 210.0
50.4778 192.0
50.4876 203.0
50.4975 190.0
50.5073 197.0
50.5172 193.0
50.527 184.0
50.5369 202.0
50.5467 204.0
50.5566 181.0
50.5664 198.0
50.5763 191.0
50.5861 205.0
50.596 188.0
50.6058 179.0
50.6157 212.0
50.6255 196.0
50.6354 165.0
50.6452 210.0
50.655 189.0
50.6649 197.0
50.6747 195.0
50.6846 210.0
50.6944 181.0
50.7043 209.0
50.7141 203.0
50.724 199.0
50.7338 260.0
50.7437 205.0
50.7535 184.0
50.7634 199.0
50.7732 192.0
50.7831 210.0
50.7929 186.0
50.8028 212.0
50.8126 213.0
50.8225 200.0
50.8323 211.0
50.8422 218.0
50.852 231.0
50.8619 262.0
50.8717 227.0
50.8815 201.0
50.8914 225.0
50.9012 203.0
50.9111 259.0
50.9209 214.0
50.9308 210.0
50.9406 290.0
50.9505 219.0
50.9603 259.0
50.9702 266.0
50.98 264.0
50.9899 322.0
50.9997 294.0
51.0096 283.0
51.0194 221.0
51.0293 290.0
51.0391 286.0
51.049 294.0
51.0588 297.0
51.0687 294.0
51.0785 283.0
51.0883 272.0
51.0982 333.0
51.108 299.0
51.1179 302.0
51.1277 321.0
51.1376 309.0
51.1474 316.0
51.1573 281.0
51.1671 282.0
51.177 343.0
51.1868 358.0
51.1967 350.0
51.2065 330.0
51.2164 333.0
51.2262 355.0
51.2361 334.0
51.2459 351.0
51.2558 362.0
51.2656 369.0
51.2755 366.0
51.2853 352.0
51.2951 370.0
51.305 382.0
51.3148 393.0
51.3247 380.0
51.3345 387.0
51.3444 401.0
51.3542 423.0
51.3641 391.0
51.3739 399.0
51.3838 432.0
51.3936 395.0
51.4035 443.0
51.4133 446.0
51.4232 432.0
51.433 451.0
51.4429 463.0
51.4527 405.0
51.4626 460.0
51.4724 491.0
51.4823 482.0
51.4921 520.0
51.502 468.0
51.5118 475.0
51.5216 470.0
51.5315 478.0
51.5413 494.0
51.5512 476.0
51.561 534.0
51.5709 546.0
51.5807 534.0
51.5906 548.0
51.6004 538.0
51.6103 559.0
51.6201 568.0
51.63 571.0
51.6398 579.0
51.6497 564.0
51.6595 625.0
51.6694 574.0
51.6792 594.0
51.6891 594.0
51.6989 574.0
51.7088 641.0
51.7186 607.0
51.7284 654.0
51.7383 602.0
51.7481 660.0
51.758 674.0
51.7678 653.0
51.7777 664.0
51.7875 701.0
51.7974 674.0
51.8072 704.0
51.8171 705.0
51.8269 740.0
51.8368 730.0
51.8466 791.0
51.8565 744.0
51.8663 783.0
51.8762 800.0
51.886 759.0
51.8959 833.0
51.9057 849.0
51.9156 781.0
51.9254 888.0
51.9353 840.0
51.9451 848.0
51.9549 898.0
51.9648 918.0
51.9746 945.0
51.9845 975.0
51.9943 1001.0
52.0042 988.0
52.014 1067.0
52.0239 987.0
52.0337 1068.0
52.0436 1081.0
52.0534 1196.0
52.0633 1306.0
52.0731 1237.0
52.083 1241.0
52.0928 1404.0
52.1027 1345.0
52.1125 1459.0
52.1224 1530.0
52.1322 1572.0
52.1421 1706.0
52.1519 1743.0
52.1617 1826.0
52.1716 1996.0
52.1814 2217.0
52.1913 2480.0
52.2011 2836.0
52.211 3289.0
52.2208 3617.0
52.2307 4050.0
52.2405 4514.0
52.2504 4866.0
52.2602 5213.0
52.2701 5331.0
52.2799 5295.0
52.2898 5087.0
52.2996 5163.0
52.3095 5152.0
52.3193 5112.0
52.3292 5148.0
52.339 5474.0
52.3489 5789.0
52.3587 6236.0
52.3686 7130.0
52.3784 8012.0
52.3882 9406.0
52.3981 11197.0
52.4079 13959.0
52.4178 17478.0
52.4276 23017.0
52.4375 31923.0
52.4473 49334.0
52.4572 87618.0
52.467 183463.0
52.4769 325908.0
52.4867 410483.0
52.4966 442891.0
52.5064 443788.0
52.5163 409124.0
52.5261 299868.0
52.536 160655.0
52.5458 87968.0
52.5557 53484.0
52.5655 38762.0
52.5754 34326.0
52.5852 37244.0
52.595 50424.0
52.6049 86617.0
52.6147 147563.0
52.6246 198603.0
52.6344 221191.0
52.6443 224715.0
52.6541 209283.0
52.664 166365.0
52.6738 103110.0
52.6837 56151.0
52.6935 32554.0
52.7034 21152.0
52.7132 15045.0
52.7231 11513.0
52.7329 9421.0
52.7428 8072.0
52.7526 6937.0
52.7625 6017.0
52.7723 5485.0
52.7822 5056.0
52.792 4627.0
52.8018 4160.0
52.8117 3840.0
52.8215 3577.0
52.8314 3169.0
52.8412 3063.0
52.8511 2968.0
52.8609 2629.0
52.8708 2612.0
52.8806 2447.0
52.8905 2341.0
52.9003 2248.0
52.9102 2168.0
52.92 2096.0
52.9299 1901.0
52.9397 1910.0
52.9496 1771.0
52.9594 1734.0
52.9693 1703.0
52.9791 1598.0
52.989 1537.0
52.9988 1493.0
53.0087 1448.0
53.0185 1259.0
53.0283 1305.0
53.0382 1294.0
53.048 1152.0
53.0579 1125.0
53.0677 1108.0
53.0776 1118.0
53.0874 1081.0
53.0973 984.0
53.1071 988.0
53.117 935.0
53.1268 920.0
53.1367 903.0
53.1465 881.0
53.1564 869.0
53.1662 838.0
53.1761 832.0
53.1859 831.0
53.1958 769.0
53.2056 789.0
53.2155 826.0
53.2253 722.0
53.2351 738.0
53.245 679.0
53.2548 696.0
53.2647 662.0
53.2745 681.0
53.2844 630.0
53.2942 665.0
53.3041 597.0
53.3139 602.0
53.3238 624.0
53.3336 586.0
53.3435 546.0
53.3533 543.0
53.3632 554.0
53.373 559.0
53.3829 490.0
53.3927 507.0
53.4026 481.0
53.4124 470.0
53.4223 505.0
53.4321 451.0
53.442 435.0
53.4518 463.0
53.4616 456.0
53.4715 420.0
53.4813 420.0
53.4912 409.0
53.501 393.0
53.5109 409.0
53.5207 406.0
53.5306 381.0
53.5404 346.0
53.5503 364.0
53.5601 339.0
53.57 347.0
53.5798 344.0
53.5897 330.0
53.5995 361.0
53.6094 339.0
53.6192 331.0
53.6291 316.0
53.6389 301.0
53.6488 294.0
53.6586 272.0
53.6684 275.0
53.6783 280.0
53.6881 278.0
53.698 284.0
53.7078 277.0
53.7177 279.0
53.7275 283.0
53.7374 219.0
53.7472 268.0
53.7571 215.0
53.7669 224.0
53.7768 231.0
53.7866 216.0
53.7965 217.0
53.8063 263.0
53.8162 225.0
53.826 201.0
53.8359 217.0
53.8457 227.0
53.8556 218.0
53.8654 199.0
53.8753 215.0
53.8851 202.0
53.8949 192.0
53.9048 190.0
53.9146 212.0
53.9245 188.0
53.9343 191.0
53.9442 194.0
53.954 178.0
53.9639 208.0
53.9737 181.0
53.9836 174.0
53.9934 202.0
54.0033 193.0
54.0131 164.0
54.023 158.0
54.0328 166.0
54.0427 199.0
54.0525 166.0
54.0624 174.0
54.0722 160.0
54.0821 183.0
54.0919 184.0
54.1017 180.0
54.1116 171.0
54.1214 186.0
54.1313 175.0
54.1411 175.0
54.151 165.0
54.1608 182.0
54.1707 174.0
54.1805 178.0
54.1904 164.0
54.2002 163.0
54.2101 161.0
54.2199 155.0
54.2298 177.0
54.2396 129.0
54.2495 164.0
54.2593 157.0
54.2692 152.0
54.279 144.0
54.2889 158.0
54.2987 136.0
54.3085 179.0
54.3184 143.0
54.3282 165.0
54.3381 165.0
54.3479 158.0
54.3578 142.0
54.3676 173.0
54.3775 161.0
54.3873 120.0
54.3972 164.0
54.407 162.0
54.4169 157.0
54.4267 157.0
54.4366 140.0
54.4464 145.0
54.4563 142.0
54.4661 142.0
54.476 154.0
54.4858 136.0
54.4957 154.0
54.5055 136.0
54.5154 143.0
54.5252 144.0
54.535 135.0
54.5449 127.0
54.5547 136.0
54.5646 128.0
54.5744 143.0
54.5843 163.0
54.5941 131.0
54.604 150.0
54.6138 115.0
54.6237 141.0
54.6335 143.0
54.6434 144.0
54.6532 127.0
54.6631 132.0
54.6729 136.0
54.6828 144.0
54.6926 128.0
54.7025 126.0
54.7123 134.0
54.7222 124.0
54.732 137.0
54.7418 143.0
54.7517 133.0
54.7615 125.0
54.7714 153.0
54.7812 142.0
54.7911 119.0
54.8009 150.0
54.8108 148.0
54.8206 151.0
54.8305 131.0
54.8403 133.0
54.8502 135.0
54.86 133.0
54.8699 123.0
54.8797 150.0
54.8896 133.0
54.8994 137.0
54.9093 126.0
54.9191 137.0
54.929 142.0
54.9388 134.0
54.9487 118.0
54.9585 130.0
54.9683 121.0
54.9782 150.0
54.988 139.0
54.9979 142.0