File: data/W6907m/XRD_Omega/scan_omega_4deg_step_0.005deg0_C8_2.xy
30.77750 103.0
30.78250 70.0
30.78750 89.0
30.79250 103.0
30.79750 95.0
30.80250 91.0
30.80750 103.0
30.81250 90.0
30.81750 96.0
30.82250 72.0
30.82750 96.0
30.83250 96.0
30.83750 90.0
30.84250 77.0
30.84750 84.0
30.85250 110.0
30.85750 93.0
30.86250 89.0
30.86750 92.0
30.87250 73.0
30.87750 87.0
30.88250 76.0
30.88750 98.0
30.89250 94.0
30.89750 109.0
30.90250 107.0
30.90750 96.0
30.91250 103.0
30.91750 87.0
30.92250 92.0
30.92750 97.0
30.93250 107.0
30.93750 92.0
30.94250 104.0
30.94750 93.0
30.95250 79.0
30.95750 92.0
30.96250 114.0
30.96750 120.0
30.97250 85.0
30.97750 90.0
30.98250 95.0
30.98750 84.0
30.99250 99.0
30.99750 90.0
31.00250 91.0
31.00750 96.0
31.01250 84.0
31.01750 81.0
31.02250 89.0
31.02750 109.0
31.03250 93.0
31.03750 96.0
31.04250 99.0
31.04750 99.0
31.05250 75.0
31.05750 81.0
31.06250 90.0
31.06750 83.0
31.07250 77.0
31.07750 96.0
31.08250 106.0
31.08750 112.0
31.09250 98.0
31.09750 81.0
31.10250 102.0
31.10750 87.0
31.11250 90.0
31.11750 83.0
31.12250 95.0
31.12750 80.0
31.13250 94.0
31.13750 90.0
31.14250 110.0
31.14750 113.0
31.15250 104.0
31.15750 104.0
31.16250 86.0
31.16750 99.0
31.17250 102.0
31.17750 79.0
31.18250 94.0
31.18750 100.0
31.19250 81.0
31.19750 98.0
31.20250 87.0
31.20750 96.0
31.21250 118.0
31.21750 87.0
31.22250 107.0
31.22750 90.0
31.23250 72.0
31.23750 76.0
31.24250 94.0
31.24750 90.0
31.25250 86.0
31.25750 109.0
31.26250 123.0
31.26750 100.0
31.27250 111.0
31.27750 109.0
31.28250 101.0
31.28750 105.0
31.29250 89.0
31.29750 120.0
31.30250 92.0
31.30750 93.0
31.31250 112.0
31.31750 106.0
31.32250 99.0
31.32750 82.0
31.33250 113.0
31.33750 93.0
31.34250 92.0
31.34750 101.0
31.35250 106.0
31.35750 95.0
31.36250 120.0
31.36750 112.0
31.37250 132.0
31.37750 113.0
31.38250 104.0
31.38750 130.0
31.39250 87.0
31.39750 104.0
31.40250 94.0
31.40750 97.0
31.41250 129.0
31.41750 120.0
31.42250 107.0
31.42750 88.0
31.43250 116.0
31.43750 104.0
31.44250 114.0
31.44750 110.0
31.45250 126.0
31.45750 135.0
31.46250 107.0
31.46750 115.0
31.47250 108.0
31.47750 106.0
31.48250 141.0
31.48750 110.0
31.49250 87.0
31.49750 134.0
31.50250 103.0
31.50750 134.0
31.51250 107.0
31.51750 114.0
31.52250 125.0
31.52750 107.0
31.53250 109.0
31.53750 119.0
31.54250 118.0
31.54750 113.0
31.55250 125.0
31.55750 137.0
31.56250 104.0
31.56750 113.0
31.57250 132.0
31.57750 127.0
31.58250 150.0
31.58750 124.0
31.59250 126.0
31.59750 145.0
31.60250 133.0
31.60750 141.0
31.61250 109.0
31.61750 150.0
31.62250 131.0
31.62750 126.0
31.63250 129.0
31.63750 133.0
31.64250 138.0
31.64750 129.0
31.65250 142.0
31.65750 138.0
31.66250 132.0
31.66750 136.0
31.67250 132.0
31.67750 139.0
31.68250 139.0
31.68750 149.0
31.69250 150.0
31.69750 132.0
31.70250 147.0
31.70750 131.0
31.71250 161.0
31.71750 173.0
31.72250 161.0
31.72750 132.0
31.73250 151.0
31.73750 168.0
31.74250 178.0
31.74750 155.0
31.75250 165.0
31.75750 150.0
31.76250 178.0
31.76750 180.0
31.77250 181.0
31.77750 182.0
31.78250 168.0
31.78750 163.0
31.79250 179.0
31.79750 204.0
31.80250 178.0
31.80750 176.0
31.81250 184.0
31.81750 192.0
31.82250 190.0
31.82750 174.0
31.83250 170.0
31.83750 213.0
31.84250 202.0
31.84750 197.0
31.85250 217.0
31.85750 199.0
31.86250 203.0
31.86750 193.0
31.87250 209.0
31.87750 193.0
31.88250 213.0
31.88750 243.0
31.89250 204.0
31.89750 222.0
31.90250 222.0
31.90750 198.0
31.91250 215.0
31.91750 224.0
31.92250 221.0
31.92750 230.0
31.93250 213.0
31.93750 236.0
31.94250 219.0
31.94750 238.0
31.95250 252.0
31.95750 262.0
31.96250 222.0
31.96750 242.0
31.97250 237.0
31.97750 265.0
31.98250 282.0
31.98750 304.0
31.99250 291.0
31.99750 308.0
32.00250 255.0
32.00750 249.0
32.01250 271.0
32.01750 296.0
32.02250 289.0
32.02750 289.0
32.03250 308.0
32.03750 297.0
32.04250 285.0
32.04750 313.0
32.05250 316.0
32.05750 289.0
32.06250 343.0
32.06750 346.0
32.07250 330.0
32.07750 326.0
32.08250 328.0
32.08750 365.0
32.09250 328.0
32.09750 351.0
32.10250 404.0
32.10750 362.0
32.11250 379.0
32.11750 380.0
32.12250 385.0
32.12750 395.0
32.13250 369.0
32.13750 367.0
32.14250 380.0
32.14750 372.0
32.15250 409.0
32.15750 411.0
32.16250 407.0
32.16750 432.0
32.17250 408.0
32.17750 410.0
32.18250 451.0
32.18750 472.0
32.19250 463.0
32.19750 504.0
32.20250 510.0
32.20750 491.0
32.21250 511.0
32.21750 502.0
32.22250 545.0
32.22750 544.0
32.23250 548.0
32.23750 573.0
32.24250 552.0
32.24750 526.0
32.25250 552.0
32.25750 541.0
32.26250 542.0
32.26750 577.0
32.27250 557.0
32.27750 561.0
32.28250 608.0
32.28750 571.0
32.29250 603.0
32.29750 629.0
32.30250 616.0
32.30750 634.0
32.31250 652.0
32.31750 666.0
32.32250 715.0
32.32750 691.0
32.33250 656.0
32.33750 687.0
32.34250 704.0
32.34750 765.0
32.35250 720.0
32.35750 757.0
32.36250 746.0
32.36750 754.0
32.37250 781.0
32.37750 848.0
32.38250 813.0
32.38750 784.0
32.39250 808.0
32.39750 805.0
32.40250 890.0
32.40750 804.0
32.41250 937.0
32.41750 934.0
32.42250 920.0
32.42750 885.0
32.43250 914.0
32.43750 936.0
32.44250 885.0
32.44750 941.0
32.45250 975.0
32.45750 956.0
32.46250 959.0
32.46750 983.0
32.47250 1043.0
32.47750 999.0
32.48250 996.0
32.48750 1020.0
32.49250 1057.0
32.49750 1057.0
32.50250 1070.0
32.50750 1094.0
32.51250 1147.0
32.51750 1118.0
32.52250 1124.0
32.52750 1144.0
32.53250 1214.0
32.53750 1173.0
32.54250 1146.0
32.54750 1203.0
32.55250 1166.0
32.55750 1179.0
32.56250 1228.0
32.56750 1282.0
32.57250 1192.0
32.57750 1234.0
32.58250 1169.0
32.58750 1270.0
32.59250 1270.0
32.59750 1251.0
32.60250 1200.0
32.60750 1282.0
32.61250 1279.0
32.61750 1307.0
32.62250 1295.0
32.62750 1247.0
32.63250 1374.0
32.63750 1269.0
32.64250 1328.0
32.64750 1362.0
32.65250 1324.0
32.65750 1304.0
32.66250 1242.0
32.66750 1375.0
32.67250 1313.0
32.67750 1340.0
32.68250 1322.0
32.68750 1343.0
32.69250 1414.0
32.69750 1345.0
32.70250 1307.0
32.70750 1336.0
32.71250 1297.0
32.71750 1359.0
32.72250 1349.0
32.72750 1297.0
32.73250 1378.0
32.73750 1356.0
32.74250 1390.0
32.74750 1297.0
32.75250 1301.0
32.75750 1352.0
32.76250 1350.0
32.76750 1352.0
32.77250 1354.0
32.77750 1385.0
32.78250 1398.0
32.78750 1357.0
32.79250 1399.0
32.79750 1361.0
32.80250 1449.0
32.80750 1337.0
32.81250 1339.0
32.81750 1334.0
32.82250 1325.0
32.82750 1329.0
32.83250 1315.0
32.83750 1404.0
32.84250 1357.0
32.84750 1318.0
32.85250 1254.0
32.85750 1270.0
32.86250 1283.0
32.86750 1351.0
32.87250 1301.0
32.87750 1320.0
32.88250 1325.0
32.88750 1267.0
32.89250 1332.0
32.89750 1293.0
32.90250 1249.0
32.90750 1250.0
32.91250 1270.0
32.91750 1319.0
32.92250 1264.0
32.92750 1213.0
32.93250 1272.0
32.93750 1202.0
32.94250 1240.0
32.94750 1279.0
32.95250 1224.0
32.95750 1216.0
32.96250 1240.0
32.96750 1268.0
32.97250 1151.0
32.97750 1197.0
32.98250 1163.0
32.98750 1170.0
32.99250 1056.0
32.99750 1120.0
33.00250 1138.0
33.00750 1107.0
33.01250 1074.0
33.01750 1126.0
33.02250 1145.0
33.02750 1057.0
33.03250 1096.0
33.03750 1035.0
33.04250 1008.0
33.04750 1056.0
33.05250 1039.0
33.05750 1032.0
33.06250 956.0
33.06750 989.0
33.07250 949.0
33.07750 996.0
33.08250 915.0
33.08750 922.0
33.09250 893.0
33.09750 978.0
33.10250 853.0
33.10750 864.0
33.11250 916.0
33.11750 802.0
33.12250 849.0
33.12750 854.0
33.13250 811.0
33.13750 798.0
33.14250 766.0
33.14750 777.0
33.15250 801.0
33.15750 794.0
33.16250 756.0
33.16750 760.0
33.17250 737.0
33.17750 778.0
33.18250 706.0
33.18750 659.0
33.19250 736.0
33.19750 706.0
33.20250 688.0
33.20750 672.0
33.21250 684.0
33.21750 687.0
33.22250 625.0
33.22750 654.0
33.23250 625.0
33.23750 604.0
33.24250 628.0
33.24750 594.0
33.25250 589.0
33.25750 566.0
33.26250 590.0
33.26750 558.0
33.27250 571.0
33.27750 543.0
33.28250 533.0
33.28750 557.0
33.29250 498.0
33.29750 531.0
33.30250 468.0
33.30750 499.0
33.31250 482.0
33.31750 495.0
33.32250 436.0
33.32750 475.0
33.33250 425.0
33.33750 458.0
33.34250 427.0
33.34750 432.0
33.35250 403.0
33.35750 405.0
33.36250 410.0
33.36750 406.0
33.37250 377.0
33.37750 398.0
33.38250 367.0
33.38750 361.0
33.39250 348.0
33.39750 354.0
33.40250 368.0
33.40750 337.0
33.41250 363.0
33.41750 319.0
33.42250 357.0
33.42750 274.0
33.43250 309.0
33.43750 319.0
33.44250 316.0
33.44750 288.0
33.45250 306.0
33.45750 310.0
33.46250 260.0
33.46750 271.0
33.47250 317.0
33.47750 264.0
33.48250 272.0
33.48750 255.0
33.49250 256.0
33.49750 239.0
33.50250 238.0
33.50750 234.0
33.51250 243.0
33.51750 251.0
33.52250 228.0
33.52750 239.0
33.53250 206.0
33.53750 248.0
33.54250 256.0
33.54750 203.0
33.55250 197.0
33.55750 206.0
33.56250 200.0
33.56750 210.0
33.57250 189.0
33.57750 194.0
33.58250 193.0
33.58750 185.0
33.59250 197.0
33.59750 209.0
33.60250 183.0
33.60750 154.0
33.61250 182.0
33.61750 174.0
33.62250 179.0
33.62750 188.0
33.63250 175.0
33.63750 179.0
33.64250 171.0
33.64750 175.0
33.65250 173.0
33.65750 162.0
33.66250 143.0
33.66750 160.0
33.67250 154.0
33.67750 154.0
33.68250 156.0
33.68750 170.0
33.69250 164.0
33.69750 132.0
33.70250 143.0
33.70750 130.0
33.71250 132.0
33.71750 143.0
33.72250 144.0
33.72750 150.0
33.73250 157.0
33.73750 157.0
33.74250 133.0
33.74750 146.0
33.75250 137.0
33.75750 123.0
33.76250 132.0
33.76750 141.0
33.77250 134.0
33.77750 133.0
33.78250 133.0
33.78750 111.0
33.79250 140.0
33.79750 125.0
33.80250 107.0
33.80750 142.0
33.81250 127.0
33.81750 139.0
33.82250 135.0
33.82750 125.0
33.83250 132.0
33.83750 108.0
33.84250 122.0
33.84750 119.0
33.85250 136.0
33.85750 133.0
33.86250 116.0
33.86750 115.0
33.87250 96.0
33.87750 118.0
33.88250 115.0
33.88750 112.0
33.89250 114.0
33.89750 129.0
33.90250 108.0
33.90750 134.0
33.91250 115.0
33.91750 101.0
33.92250 113.0
33.92750 100.0
33.93250 109.0
33.93750 103.0
33.94250 97.0
33.94750 139.0
33.95250 100.0
33.95750 95.0
33.96250 102.0
33.96750 113.0
33.97250 116.0
33.97750 111.0
33.98250 111.0
33.98750 110.0
33.99250 102.0
33.99750 93.0
34.00250 110.0
34.00750 94.0
34.01250 97.0
34.01750 122.0
34.02250 102.0
34.02750 118.0
34.03250 102.0
34.03750 106.0
34.04250 111.0
34.04750 90.0
34.05250 97.0
34.05750 92.0
34.06250 95.0
34.06750 101.0
34.07250 82.0
34.07750 95.0
34.08250 87.0
34.08750 104.0
34.09250 114.0
34.09750 86.0
34.10250 94.0
34.10750 104.0
34.11250 101.0
34.11750 91.0
34.12250 110.0
34.12750 91.0
34.13250 87.0
34.13750 91.0
34.14250 96.0
34.14750 98.0
34.15250 94.0
34.15750 103.0
34.16250 91.0
34.16750 90.0
34.17250 102.0
34.17750 88.0
34.18250 99.0
34.18750 76.0
34.19250 103.0
34.19750 95.0
34.20250 108.0
34.20750 96.0
34.21250 95.0
34.21750 91.0
34.22250 97.0
34.22750 103.0
34.23250 96.0
34.23750 90.0
34.24250 84.0
34.24750 85.0
34.25250 92.0
34.25750 84.0
34.26250 92.0
34.26750 86.0
34.27250 76.0
34.27750 90.0
34.28250 99.0
34.28750 85.0
34.29250 103.0
34.29750 78.0
34.30250 86.0
34.30750 79.0
34.31250 97.0
34.31750 92.0
34.32250 96.0
34.32750 92.0
34.33250 81.0
34.33750 96.0
34.34250 82.0
34.34750 88.0
34.35250 78.0
34.35750 96.0
34.36250 81.0
34.36750 89.0
34.37250 78.0
34.37750 78.0
34.38250 102.0
34.38750 88.0
34.39250 77.0
34.39750 88.0
34.40250 82.0
34.40750 92.0
34.41250 93.0
34.41750 92.0
34.42250 83.0
34.42750 98.0
34.43250 99.0
34.43750 97.0
34.44250 71.0
34.44750 87.0
34.45250 79.0
34.45750 79.0
34.46250 87.0
34.46750 80.0
34.47250 93.0
34.47750 84.0
34.48250 92.0
34.48750 87.0
34.49250 80.0
34.49750 80.0
34.50250 99.0
34.50750 83.0
34.51250 94.0
34.51750 93.0
34.52250 98.0
34.52750 76.0
34.53250 81.0
34.53750 90.0
34.54250 84.0
34.54750 95.0
34.55250 88.0
34.55750 79.0
34.56250 92.0
34.56750 67.0
34.57250 91.0
34.57750 78.0
34.58250 77.0
34.58750 79.0
34.59250 84.0
34.59750 84.0
34.60250 93.0
34.60750 105.0
34.61250 87.0
34.61750 87.0
34.62250 70.0
34.62750 93.0
34.63250 86.0
34.63750 78.0
34.64250 75.0
34.64750 100.0
34.65250 79.0
34.65750 94.0
34.66250 88.0
34.66750 89.0
34.67250 86.0
34.67750 73.0
34.68250 68.0
34.68750 89.0
34.69250 81.0
34.69750 85.0
34.70250 71.0
34.70750 84.0
34.71250 72.0
34.71750 71.0
34.72250 84.0
34.72750 78.0
34.73250 89.0
34.73750 64.0