File: data/W6959r/XRD_2ThetaOmega/r_scan_2th-om_10-130deg_PIXscan_17min_C2.xy
10.0035 39.0
10.0872 39.0
10.1709 43.0
10.2546 51.0
10.3383 59.0
10.422 54.0
10.5057 39.0
10.5894 32.0
10.6731 46.0
10.7568 58.0
10.8405 48.0
10.9242 39.0
11.0079 40.0
11.0916 47.0
11.1753 58.0
11.259 32.0
11.3428 33.0
11.4265 40.0
11.5102 43.0
11.5939 43.0
11.6776 44.0
11.7613 52.0
11.845 36.0
11.9287 54.0
12.0124 44.0
12.0961 42.0
12.1798 40.0
12.2635 41.0
12.3472 57.0
12.4309 42.0
12.5146 38.0
12.5983 43.0
12.682 49.0
12.7657 45.0
12.8495 34.0
12.9332 48.0
13.0169 40.0
13.1006 33.0
13.1843 47.0
13.268 40.0
13.3517 49.0
13.4354 41.0
13.5191 36.0
13.6028 35.0
13.6865 44.0
13.7702 37.0
13.8539 33.0
13.9376 37.0
14.0213 27.0
14.105 30.0
14.1887 30.0
14.2724 45.0
14.3562 28.0
14.4399 27.0
14.5236 55.0
14.6073 30.0
14.691 35.0
14.7747 30.0
14.8584 29.0
14.9421 40.0
15.0258 45.0
15.1095 31.0
15.1932 33.0
15.2769 30.0
15.3606 42.0
15.4443 33.0
15.528 32.0
15.6117 33.0
15.6954 24.0
15.7791 32.0
15.8629 26.0
15.9466 38.0
16.0303 38.0
16.114 36.0
16.1977 32.0
16.2814 30.0
16.3651 22.0
16.4488 41.0
16.5325 30.0
16.6162 39.0
16.6999 27.0
16.7836 15.0
16.8673 31.0
16.951 39.0
17.0347 43.0
17.1184 18.0
17.2021 35.0
17.2858 24.0
17.3696 34.0
17.4533 38.0
17.537 30.0
17.6207 43.0
17.7044 42.0
17.7881 34.0
17.8718 31.0
17.9555 40.0
18.0392 32.0
18.1229 32.0
18.2066 35.0
18.2903 34.0
18.374 29.0
18.4577 37.0
18.5414 24.0
18.6251 35.0
18.7088 30.0
18.7925 38.0
18.8763 30.0
18.96 34.0
19.0437 36.0
19.1274 36.0
19.2111 29.0
19.2948 29.0
19.3785 31.0
19.4622 41.0
19.5459 42.0
19.6296 26.0
19.7133 41.0
19.797 22.0
19.8807 42.0
19.9644 33.0
20.0481 23.0
20.1318 34.0
20.2155 28.0
20.2992 44.0
20.383 36.0
20.4667 23.0
20.5504 37.0
20.6341 37.0
20.7178 30.0
20.8015 28.0
20.8852 38.0
20.9689 31.0
21.0526 32.0
21.1363 28.0
21.22 27.0
21.3037 29.0
21.3874 36.0
21.4711 33.0
21.5548 24.0
21.6385 22.0
21.7222 34.0
21.8059 31.0
21.8897 35.0
21.9734 37.0
22.0571 45.0
22.1408 31.0
22.2245 21.0
22.3082 27.0
22.3919 22.0
22.4756 33.0
22.5593 30.0
22.643 27.0
22.7267 29.0
22.8104 36.0
22.8941 31.0
22.9778 56.0
23.0615 137.0
23.1452 32.0
23.2289 43.0
23.3126 26.0
23.3964 35.0
23.4801 35.0
23.5638 48.0
23.6475 42.0
23.7312 59.0
23.8149 72.0
23.8986 70.0
23.9823 85.0
24.066 106.0
24.1497 152.0
24.2334 405.0
24.3171 1272.0
24.4008 4114.0
24.4845 3040.0
24.5682 508.0
24.6519 191.0
24.7356 120.0
24.8193 94.0
24.9031 110.0
24.9868 118.0
25.0705 138.0
25.1542 185.0
25.2379 214.0
25.3216 343.0
25.4053 1163.0
25.489 7167.0
25.5727 36894.0
25.6564 1913.0
25.7401 472.0
25.8238 290.0
25.9075 165.0
25.9912 144.0
26.0749 73.0
26.1586 59.0
26.2423 51.0
26.326 52.0
26.4098 40.0
26.4935 35.0
26.5772 38.0
26.6609 43.0
26.7446 39.0
26.8283 33.0
26.912 28.0
26.9957 30.0
27.0794 26.0
27.1631 27.0
27.2468 17.0
27.3305 22.0
27.4142 42.0
27.4979 18.0
27.5816 35.0
27.6653 22.0
27.749 27.0
27.8327 28.0
27.9165 20.0
28.0002 30.0
28.0839 30.0
28.1676 33.0
28.2513 31.0
28.335 33.0
28.4187 17.0
28.5024 26.0
28.5861 31.0
28.6698 19.0
28.7535 19.0
28.8372 18.0
28.9209 27.0
29.0046 30.0
29.0883 23.0
29.172 23.0
29.2557 23.0
29.3394 19.0
29.4232 25.0
29.5069 15.0
29.5906 28.0
29.6743 26.0
29.758 20.0
29.8417 26.0
29.9254 28.0
30.0091 26.0
30.0928 26.0
30.1765 24.0
30.2602 27.0
30.3439 29.0
30.4276 29.0
30.5113 20.0
30.595 21.0
30.6787 18.0
30.7624 23.0
30.8461 21.0
30.9298 22.0
31.0136 20.0
31.0973 34.0
31.181 23.0
31.2647 17.0
31.3484 20.0
31.4321 23.0
31.5158 26.0
31.5995 22.0
31.6832 19.0
31.7669 29.0
31.8506 22.0
31.9343 32.0
32.018 26.0
32.1017 24.0
32.1854 27.0
32.2691 21.0
32.3528 19.0
32.4365 21.0
32.5203 30.0
32.604 25.0
32.6877 19.0
32.7714 10.0
32.8551 22.0
32.9388 29.0
33.0225 21.0
33.1062 26.0
33.1899 16.0
33.2736 31.0
33.3573 22.0
33.441 26.0
33.5247 35.0
33.6084 25.0
33.6921 21.0
33.7758 23.0
33.8595 22.0
33.9432 12.0
34.027 27.0
34.1107 22.0
34.1944 28.0
34.2781 18.0
34.3618 26.0
34.4455 17.0
34.5292 16.0
34.6129 26.0
34.6966 19.0
34.7803 24.0
34.864 26.0
34.9477 20.0
35.0314 32.0
35.1151 16.0
35.1988 22.0
35.2825 17.0
35.3662 26.0
35.4499 25.0
35.5337 26.0
35.6174 27.0
35.7011 17.0
35.7848 12.0
35.8685 17.0
35.9522 23.0
36.0359 24.0
36.1196 31.0
36.2033 36.0
36.287 28.0
36.3707 24.0
36.4544 19.0
36.5381 34.0
36.6218 20.0
36.7055 24.0
36.7892 24.0
36.8729 18.0
36.9566 19.0
37.0404 28.0
37.1241 20.0
37.2078 27.0
37.2915 29.0
37.3752 31.0
37.4589 24.0
37.5426 25.0
37.6263 28.0
37.71 28.0
37.7937 21.0
37.8774 23.0
37.9611 24.0
38.0448 24.0
38.1285 27.0
38.2122 20.0
38.2959 34.0
38.3796 26.0
38.4633 22.0
38.5471 21.0
38.6308 24.0
38.7145 30.0
38.7982 18.0
38.8819 26.0
38.9656 27.0
39.0493 34.0
39.133 26.0
39.2167 18.0
39.3004 26.0
39.3841 22.0
39.4678 19.0
39.5515 32.0
39.6352 23.0
39.7189 19.0
39.8026 28.0
39.8863 24.0
39.97 22.0
40.0538 20.0
40.1375 35.0
40.2212 31.0
40.3049 25.0
40.3886 22.0
40.4723 24.0
40.556 26.0
40.6397 31.0
40.7234 20.0
40.8071 24.0
40.8908 23.0
40.9745 23.0
41.0582 30.0
41.1419 25.0
41.2256 20.0
41.3093 17.0
41.393 24.0
41.4767 30.0
41.5605 36.0
41.6442 31.0
41.7279 23.0
41.8116 23.0
41.8953 30.0
41.979 22.0
42.0627 29.0
42.1464 26.0
42.2301 25.0
42.3138 27.0
42.3975 30.0
42.4812 19.0
42.5649 37.0
42.6486 26.0
42.7323 24.0
42.816 24.0
42.8997 40.0
42.9834 25.0
43.0672 29.0
43.1509 19.0
43.2346 28.0
43.3183 28.0
43.402 28.0
43.4857 21.0
43.5694 24.0
43.6531 24.0
43.7368 34.0
43.8205 22.0
43.9042 43.0
43.9879 25.0
44.0716 24.0
44.1553 45.0
44.239 40.0
44.3227 38.0
44.4064 60.0
44.4901 54.0
44.5739 39.0
44.6576 39.0
44.7413 32.0
44.825 26.0
44.9087 32.0
44.9924 34.0
45.0761 33.0
45.1598 28.0
45.2435 23.0
45.3272 24.0
45.4109 26.0
45.4946 33.0
45.5783 32.0
45.662 29.0
45.7457 24.0
45.8294 25.0
45.9131 24.0
45.9968 24.0
46.0806 34.0
46.1643 34.0
46.248 27.0
46.3317 21.0
46.4154 16.0
46.4991 26.0
46.5828 35.0
46.6665 36.0
46.7502 35.0
46.8339 49.0
46.9176 29.0
47.0013 33.0
47.085 149.0
47.1687 124.0
47.2524 46.0
47.3361 32.0
47.4198 29.0
47.5035 34.0
47.5873 27.0
47.671 28.0
47.7547 37.0
47.8384 23.0
47.9221 31.0
48.0058 37.0
48.0895 33.0
48.1732 35.0
48.2569 29.0
48.3406 39.0
48.4243 36.0
48.508 45.0
48.5917 37.0
48.6754 29.0
48.7591 41.0
48.8428 31.0
48.9265 35.0
49.0102 43.0
49.094 38.0
49.1777 47.0
49.2614 42.0
49.3451 56.0
49.4288 71.0
49.5125 72.0
49.5962 108.0
49.6799 154.0
49.7636 268.0
49.8473 505.0
49.931 979.0
50.0147 1869.0
50.0984 3176.0
50.1821 2482.0
50.2658 1650.0
50.3495 587.0
50.4332 190.0
50.5169 114.0
50.6007 91.0
50.6844 85.0
50.7681 64.0
50.8518 55.0
50.9355 74.0
51.0192 78.0
51.1029 77.0
51.1866 61.0
51.2703 79.0
51.354 66.0
51.4377 89.0
51.5214 89.0
51.6051 101.0
51.6888 127.0
51.7725 110.0
51.8562 129.0
51.9399 137.0
52.0236 161.0
52.1074 203.0
52.1911 376.0
52.2748 870.0
52.3585 956.0
52.4422 4533.0
52.5259 62758.0
52.6096 11386.0
52.6933 8440.0
52.777 954.0
52.8607 468.0
52.9444 329.0
53.0281 195.0
53.1118 161.0
53.1955 112.0
53.2792 95.0
53.3629 101.0
53.4466 82.0
53.5303 67.0
53.6141 74.0
53.6978 65.0
53.7815 47.0
53.8652 58.0
53.9489 47.0
54.0326 41.0
54.1163 37.0
54.2 49.0
54.2837 33.0
54.3674 30.0
54.4511 28.0
54.5348 29.0
54.6185 28.0
54.7022 23.0
54.7859 35.0
54.8696 38.0
54.9533 28.0
55.037 27.0
55.1208 33.0
55.2045 29.0
55.2882 31.0
55.3719 36.0
55.4556 30.0
55.5393 34.0
55.623 33.0
55.7067 24.0
55.7904 39.0
55.8741 32.0
55.9578 27.0
56.0415 31.0
56.1252 33.0
56.2089 27.0
56.2926 34.0
56.3763 25.0
56.46 22.0
56.5437 18.0
56.6275 30.0
56.7112 34.0
56.7949 41.0
56.8786 39.0
56.9623 35.0
57.046 43.0
57.1297 31.0
57.2134 27.0
57.2971 24.0
57.3808 27.0
57.4645 36.0
57.5482 29.0
57.6319 21.0
57.7156 29.0
57.7993 31.0
57.883 37.0
57.9667 20.0
58.0504 24.0
58.1342 37.0
58.2179 24.0
58.3016 30.0
58.3853 24.0
58.469 27.0
58.5527 24.0
58.6364 23.0
58.7201 32.0
58.8038 36.0
58.8875 36.0
58.9712 36.0
59.0549 31.0
59.1386 35.0
59.2223 27.0
59.306 25.0
59.3897 36.0
59.4734 33.0
59.5571 33.0
59.6409 28.0
59.7246 18.0
59.8083 27.0
59.892 32.0
59.9757 31.0
60.0594 30.0
60.1431 30.0
60.2268 27.0
60.3105 34.0
60.3942 26.0
60.4779 27.0
60.5616 32.0
60.6453 21.0
60.729 36.0
60.8127 23.0
60.8964 37.0
60.9801 24.0
61.0638 24.0
61.1476 27.0
61.2313 36.0
61.315 33.0
61.3987 33.0
61.4824 23.0
61.5661 27.0
61.6498 31.0
61.7335 33.0
61.8172 29.0
61.9009 26.0
61.9846 25.0
62.0683 35.0
62.152 29.0
62.2357 28.0
62.3194 25.0
62.4031 29.0
62.4868 34.0
62.5705 24.0
62.6543 33.0
62.738 26.0
62.8217 40.0
62.9054 39.0
62.9891 37.0
63.0728 27.0
63.1565 36.0
63.2402 28.0
63.3239 27.0
63.4076 31.0
63.4913 27.0
63.575 27.0
63.6587 28.0
63.7424 28.0
63.8261 29.0
63.9098 29.0
63.9935 30.0
64.0772 35.0
64.161 34.0
64.2447 35.0
64.3284 25.0
64.4121 40.0
64.4958 25.0
64.5795 27.0
64.6632 37.0
64.7469 32.0
64.8306 30.0
64.9143 27.0
64.998 23.0
65.0817 19.0
65.1654 36.0
65.2491 27.0
65.3328 25.0
65.4165 28.0
65.5002 33.0
65.5839 26.0
65.6677 20.0
65.7514 30.0
65.8351 35.0
65.9188 37.0
66.0025 32.0
66.0862 25.0
66.1699 22.0
66.2536 38.0
66.3373 29.0
66.421 23.0
66.5047 34.0
66.5884 39.0
66.6721 23.0
66.7558 28.0
66.8395 27.0
66.9232 24.0
67.0069 30.0
67.0906 30.0
67.1744 28.0
67.2581 22.0
67.3418 17.0
67.4255 28.0
67.5092 26.0
67.5929 28.0
67.6766 28.0
67.7603 31.0
67.844 29.0
67.9277 30.0
68.0114 28.0
68.0951 31.0
68.1788 36.0
68.2625 25.0
68.3462 35.0
68.4299 31.0
68.5136 20.0
68.5973 25.0
68.6811 28.0
68.7648 34.0
68.8485 29.0
68.9322 24.0
69.0159 28.0
69.0996 23.0
69.1833 35.0
69.267 28.0
69.3507 22.0
69.4344 23.0
69.5181 24.0
69.6018 37.0
69.6855 33.0
69.7692 36.0
69.8529 23.0
69.9366 26.0
70.0203 20.0
70.104 32.0
70.1878 24.0
70.2715 37.0
70.3552 35.0
70.4389 26.0
70.5226 22.0
70.6063 37.0
70.69 28.0
70.7737 43.0
70.8574 42.0
70.9411 27.0
71.0248 25.0
71.1085 24.0
71.1922 25.0
71.2759 31.0
71.3596 37.0
71.4433 32.0
71.527 34.0
71.6107 30.0
71.6945 25.0
71.7782 25.0
71.8619 31.0
71.9456 34.0
72.0293 28.0
72.113 33.0
72.1967 24.0
72.2804 21.0
72.3641 34.0
72.4478 43.0
72.5315 28.0
72.6152 34.0
72.6989 27.0
72.7826 28.0
72.8663 33.0
72.95 27.0
73.0337 26.0
73.1174 34.0
73.2012 22.0
73.2849 23.0
73.3686 36.0
73.4523 36.0
73.536 34.0
73.6197 35.0
73.7034 36.0
73.7871 31.0
73.8708 35.0
73.9545 27.0
74.0382 29.0
74.1219 32.0
74.2056 39.0
74.2893 28.0
74.373 33.0
74.4567 35.0
74.5404 30.0
74.6241 33.0
74.7079 28.0
74.7916 37.0
74.8753 30.0
74.959 38.0
75.0427 42.0
75.1264 21.0
75.2101 35.0
75.2938 27.0
75.3775 35.0
75.4612 30.0
75.5449 30.0
75.6286 28.0
75.7123 42.0
75.796 32.0
75.8797 30.0
75.9634 32.0
76.0471 27.0
76.1308 30.0
76.2146 36.0
76.2983 25.0
76.382 26.0
76.4657 33.0
76.5494 22.0
76.6331 23.0
76.7168 25.0
76.8005 32.0
76.8842 23.0
76.9679 37.0
77.0516 34.0
77.1353 43.0
77.219 29.0
77.3027 23.0
77.3864 24.0
77.4701 28.0
77.5538 29.0
77.6375 40.0
77.7213 33.0
77.805 29.0
77.8887 35.0
77.9724 24.0
78.0561 30.0
78.1398 47.0
78.2235 22.0
78.3072 46.0
78.3909 46.0
78.4746 40.0
78.5583 57.0
78.642 67.0
78.7257 72.0
78.8094 88.0
78.8931 126.0
78.9768 125.0
79.0605 118.0
79.1442 73.0
79.228 67.0
79.3117 48.0
79.3954 45.0
79.4791 41.0
79.5628 29.0
79.6465 33.0
79.7302 34.0
79.8139 36.0
79.8976 30.0
79.9813 37.0
80.065 24.0
80.1487 42.0
80.2324 35.0
80.3161 31.0
80.3998 31.0
80.4835 29.0
80.5672 33.0
80.6509 33.0
80.7347 35.0
80.8184 22.0
80.9021 33.0
80.9858 34.0
81.0695 24.0
81.1532 45.0
81.2369 32.0
81.3206 41.0
81.4043 26.0
81.488 23.0
81.5717 42.0
81.6554 36.0
81.7391 28.0
81.8228 43.0
81.9065 45.0
81.9902 27.0
82.0739 46.0
82.1576 40.0
82.2414 37.0
82.3251 37.0
82.4088 37.0
82.4925 43.0
82.5762 47.0
82.6599 43.0
82.7436 57.0
82.8273 49.0
82.911 52.0
82.9947 55.0
83.0784 175.0
83.1621 2968.0
83.2458 570.0
83.3295 142.0
83.4132 1366.0
83.4969 334.0
83.5806 71.0
83.6643 47.0
83.7481 38.0
83.8318 39.0
83.9155 30.0
83.9992 37.0
84.0829 31.0
84.1666 37.0
84.2503 33.0
84.334 31.0
84.4177 44.0
84.5014 28.0
84.5851 27.0
84.6688 33.0
84.7525 31.0
84.8362 37.0
84.9199 32.0
85.0036 26.0
85.0873 39.0
85.171 27.0
85.2548 40.0
85.3385 30.0
85.4222 44.0
85.5059 34.0
85.5896 28.0
85.6733 37.0
85.757 34.0
85.8407 29.0
85.9244 34.0
86.0081 29.0
86.0918 27.0
86.1755 24.0
86.2592 31.0
86.3429 35.0
86.4266 27.0
86.5103 32.0
86.594 29.0
86.6777 30.0
86.7615 24.0
86.8452 41.0
86.9289 32.0
87.0126 37.0
87.0963 24.0
87.18 42.0
87.2637 29.0
87.3474 22.0
87.4311 24.0
87.5148 33.0
87.5985 28.0
87.6822 19.0
87.7659 23.0
87.8496 30.0
87.9333 34.0
88.017 33.0
88.1007 19.0
88.1844 32.0
88.2682 32.0
88.3519 18.0
88.4356 32.0
88.5193 29.0
88.603 31.0
88.6867 29.0
88.7704 38.0
88.8541 23.0
88.9378 34.0
89.0215 24.0
89.1052 24.0
89.1889 32.0
89.2726 19.0
89.3563 22.0
89.44 27.0
89.5237 30.0
89.6074 30.0
89.6911 20.0
89.7749 28.0
89.8586 34.0
89.9423 27.0
90.026 28.0
90.1097 29.0
90.1934 24.0
90.2771 26.0
90.3608 39.0
90.4445 26.0
90.5282 34.0
90.6119 30.0
90.6956 21.0
90.7793 40.0
90.863 40.0
90.9467 23.0
91.0304 29.0
91.1141 28.0
91.1978 21.0
91.2816 32.0
91.3653 28.0
91.449 40.0
91.5327 29.0
91.6164 22.0
91.7001 27.0
91.7838 28.0
91.8675 24.0
91.9512 26.0
92.0349 36.0
92.1186 27.0
92.2023 19.0
92.286 28.0
92.3697 27.0
92.4534 27.0
92.5371 30.0
92.6208 27.0
92.7045 24.0
92.7883 25.0
92.872 20.0
92.9557 23.0
93.0394 31.0
93.1231 35.0
93.2068 26.0
93.2905 29.0
93.3742 44.0
93.4579 38.0
93.5416 34.0
93.6253 32.0
93.709 25.0
93.7927 33.0
93.8764 32.0
93.9601 29.0
94.0438 35.0
94.1275 32.0
94.2112 27.0
94.295 21.0
94.3787 28.0
94.4624 25.0
94.5461 25.0
94.6298 32.0
94.7135 41.0
94.7972 28.0
94.8809 32.0
94.9646 33.0
95.0483 23.0
95.132 32.0
95.2157 28.0
95.2994 35.0
95.3831 28.0
95.4668 33.0
95.5505 29.0
95.6342 35.0
95.7179 32.0
95.8017 23.0
95.8854 36.0
95.9691 29.0
96.0528 27.0
96.1365 33.0
96.2202 30.0
96.3039 27.0
96.3876 24.0
96.4713 35.0
96.555 44.0
96.6387 29.0
96.7224 23.0
96.8061 29.0
96.8898 40.0
96.9735 31.0
97.0572 43.0
97.1409 25.0
97.2246 31.0
97.3084 36.0
97.3921 37.0
97.4758 29.0
97.5595 37.0
97.6432 36.0
97.7269 47.0
97.8106 26.0
97.8943 32.0
97.978 22.0
98.0617 37.0
98.1454 33.0
98.2291 29.0
98.3128 23.0
98.3965 39.0
98.4802 26.0
98.5639 32.0
98.6476 34.0
98.7313 34.0
98.8151 36.0
98.8988 36.0
98.9825 23.0
99.0662 35.0
99.1499 31.0
99.2336 44.0
99.3173 42.0
99.401 34.0
99.4847 34.0
99.5684 26.0
99.6521 20.0
99.7358 35.0
99.8195 26.0
99.9032 30.0
99.9869 41.0
100.071 34.0
100.154 32.0
100.238 29.0
100.322 36.0
100.405 28.0
100.489 29.0
100.573 33.0
100.657 31.0
100.74 28.0
100.824 33.0
100.908 25.0
100.991 28.0
101.075 32.0
101.159 34.0
101.243 26.0
101.326 25.0
101.41 23.0
101.494 22.0
101.577 34.0
101.661 42.0
101.745 35.0
101.828 28.0
101.912 30.0
101.996 35.0
102.08 30.0
102.163 32.0
102.247 33.0
102.331 32.0
102.414 35.0
102.498 32.0
102.582 25.0
102.666 21.0
102.749 30.0
102.833 34.0
102.917 45.0
103 43.0
103.084 39.0
103.168 31.0
103.251 22.0
103.335 29.0
103.419 32.0
103.503 29.0
103.586 28.0
103.67 42.0
103.754 33.0
103.837 34.0
103.921 31.0
104.005 24.0
104.089 25.0
104.172 38.0
104.256 26.0
104.34 27.0
104.423 42.0
104.507 48.0
104.591 29.0
104.674 26.0
104.758 35.0
104.842 23.0
104.926 33.0
105.009 27.0
105.093 25.0
105.177 34.0
105.26 30.0
105.344 27.0
105.428 31.0
105.511 36.0
105.595 23.0
105.679 33.0
105.763 33.0
105.846 36.0
105.93 38.0
106.014 26.0
106.097 34.0
106.181 56.0
106.265 58.0
106.349 50.0
106.432 37.0
106.516 30.0
106.6 29.0
106.683 38.0
106.767 39.0
106.851 31.0
106.934 27.0
107.018 34.0
107.102 33.0
107.186 35.0
107.269 22.0
107.353 25.0
107.437 27.0
107.52 31.0
107.604 35.0
107.688 38.0
107.772 32.0
107.855 30.0
107.939 32.0
108.023 30.0
108.106 28.0
108.19 31.0
108.274 28.0
108.357 34.0
108.441 28.0
108.525 40.0
108.609 26.0
108.692 28.0
108.776 23.0
108.86 33.0
108.943 41.0
109.027 40.0
109.111 31.0
109.195 23.0
109.278 27.0
109.362 29.0
109.446 24.0
109.529 28.0
109.613 29.0
109.697 31.0
109.78 42.0
109.864 32.0
109.948 20.0
110.032 26.0
110.115 23.0
110.199 28.0
110.283 23.0
110.366 47.0
110.45 28.0
110.534 33.0
110.618 26.0
110.701 33.0
110.785 28.0
110.869 28.0
110.952 34.0
111.036 32.0
111.12 26.0
111.203 36.0
111.287 32.0
111.371 20.0
111.455 23.0
111.538 23.0
111.622 42.0
111.706 30.0
111.789 30.0
111.873 31.0
111.957 38.0
112.041 32.0
112.124 29.0
112.208 23.0
112.292 32.0
112.375 31.0
112.459 25.0
112.543 33.0
112.626 34.0
112.71 36.0
112.794 27.0
112.878 34.0
112.961 28.0
113.045 19.0
113.129 22.0
113.212 32.0
113.296 28.0
113.38 30.0
113.464 27.0
113.547 23.0
113.631 32.0
113.715 31.0
113.798 37.0
113.882 26.0
113.966 25.0
114.049 29.0
114.133 33.0
114.217 20.0
114.301 31.0
114.384 31.0
114.468 28.0
114.552 26.0
114.635 34.0
114.719 23.0
114.803 36.0
114.887 37.0
114.97 35.0
115.054 39.0
115.138 36.0
115.221 31.0
115.305 43.0
115.389 55.0
115.472 45.0
115.556 53.0
115.64 72.0
115.724 76.0
115.807 101.0
115.891 85.0
115.975 91.0
116.058 87.0
116.142 83.0
116.226 66.0
116.31 72.0
116.393 61.0
116.477 50.0
116.561 43.0
116.644 48.0
116.728 38.0
116.812 38.0
116.895 32.0
116.979 29.0
117.063 34.0
117.147 31.0
117.23 32.0
117.314 36.0
117.398 31.0
117.481 28.0
117.565 26.0
117.649 42.0
117.733 35.0
117.816 23.0
117.9 32.0
117.984 38.0
118.067 42.0
118.151 27.0
118.235 30.0
118.318 27.0
118.402 38.0
118.486 27.0
118.57 28.0
118.653 30.0
118.737 34.0
118.821 31.0
118.904 31.0
118.988 37.0
119.072 36.0
119.156 35.0
119.239 37.0
119.323 26.0
119.407 35.0
119.49 40.0
119.574 31.0
119.658 32.0
119.741 28.0
119.825 35.0
119.909 35.0
119.993 31.0
120.076 32.0
120.16 40.0
120.244 33.0
120.327 28.0
120.411 29.0
120.495 47.0
120.578 38.0
120.662 38.0
120.746 28.0
120.83 32.0
120.913 36.0
120.997 33.0
121.081 50.0
121.164 43.0
121.248 27.0
121.332 34.0
121.416 31.0
121.499 41.0
121.583 31.0
121.667 55.0
121.75 44.0
121.834 43.0
121.918 43.0
122.001 30.0
122.085 30.0
122.169 38.0
122.253 50.0
122.336 31.0
122.42 34.0
122.504 44.0
122.587 40.0
122.671 40.0
122.755 58.0
122.839 41.0
122.922 50.0
123.006 44.0
123.09 55.0
123.173 54.0
123.257 52.0
123.341 61.0
123.424 63.0
123.508 70.0
123.592 84.0
123.676 83.0
123.759 112.0
123.843 85.0
123.927 107.0
124.01 106.0
124.094 122.0
124.178 144.0
124.262 210.0
124.345 418.0
124.429 866.0
124.513 3399.0
124.596 13534.0
124.68 2966.0
124.764 851.0
124.847 488.0
124.931 517.0
125.015 953.0
125.099 5105.0
125.182 3697.0
125.266 856.0
125.35 344.0
125.433 183.0
125.517 129.0
125.601 99.0
125.685 118.0
125.768 91.0
125.852 82.0
125.936 73.0
126.019 62.0
126.103 45.0
126.187 55.0
126.27 59.0
126.354 44.0
126.438 45.0
126.522 50.0
126.605 36.0
126.689 50.0
126.773 47.0
126.856 47.0
126.94 42.0
127.024 39.0
127.108 44.0
127.191 48.0
127.275 43.0
127.359 42.0
127.442 43.0
127.526 41.0
127.61 38.0
127.693 43.0
127.777 38.0
127.861 34.0
127.945 36.0
128.028 42.0
128.112 36.0
128.196 41.0
128.279 37.0
128.363 21.0
128.447 29.0
128.531 36.0
128.614 39.0
128.698 27.0
128.782 39.0
128.865 36.0
128.949 38.0
129.033 38.0
129.116 28.0
129.2 39.0
129.284 32.0
129.368 36.0
129.451 31.0
129.535 29.0
129.619 40.0
129.702 29.0
129.786 34.0
129.87 35.0
129.954 34.0
129.998 31.0