File: data/W6776c/XRD_Omega/W6776c_Cr2O3_scan_omega_2deg_step_0.002deg0_7.xy
18.59480 599.0
18.59680 593.0
18.59880 568.0
18.60080 594.0
18.60280 591.0
18.60480 548.0
18.60680 510.0
18.60880 544.0
18.61080 543.0
18.61280 531.0
18.61480 607.0
18.61680 587.0
18.61880 576.0
18.62080 586.0
18.62280 592.0
18.62480 547.0
18.62680 580.0
18.62880 609.0
18.63080 600.0
18.63280 538.0
18.63480 556.0
18.63680 597.0
18.63880 553.0
18.64080 563.0
18.64280 534.0
18.64480 542.0
18.64680 521.0
18.64880 587.0
18.65080 558.0
18.65280 568.0
18.65480 599.0
18.65680 532.0
18.65880 554.0
18.66080 602.0
18.66280 571.0
18.66480 586.0
18.66680 587.0
18.66880 613.0
18.67080 531.0
18.67280 578.0
18.67480 578.0
18.67680 630.0
18.67880 551.0
18.68080 576.0
18.68280 611.0
18.68480 543.0
18.68680 607.0
18.68880 581.0
18.69080 553.0
18.69280 508.0
18.69480 585.0
18.69680 593.0
18.69880 556.0
18.70080 623.0
18.70280 582.0
18.70480 584.0
18.70680 529.0
18.70880 573.0
18.71080 625.0
18.71280 593.0
18.71480 575.0
18.71680 582.0
18.71880 580.0
18.72080 529.0
18.72280 582.0
18.72480 571.0
18.72680 612.0
18.72880 596.0
18.73080 573.0
18.73280 557.0
18.73480 649.0
18.73680 560.0
18.73880 565.0
18.74080 551.0
18.74280 565.0
18.74480 593.0
18.74680 607.0
18.74880 623.0
18.75080 581.0
18.75280 594.0
18.75480 573.0
18.75680 597.0
18.75880 582.0
18.76080 559.0
18.76280 609.0
18.76480 582.0
18.76680 600.0
18.76880 587.0
18.77080 617.0
18.77280 560.0
18.77480 625.0
18.77680 583.0
18.77880 578.0
18.78080 613.0
18.78280 566.0
18.78480 587.0
18.78680 595.0
18.78880 584.0
18.79080 600.0
18.79280 614.0
18.79480 620.0
18.79680 568.0
18.79880 589.0
18.80080 596.0
18.80280 575.0
18.80480 666.0
18.80680 584.0
18.80880 594.0
18.81080 644.0
18.81280 607.0
18.81480 632.0
18.81680 592.0
18.81880 586.0
18.82080 584.0
18.82280 608.0
18.82480 617.0
18.82680 625.0
18.82880 604.0
18.83080 650.0
18.83280 636.0
18.83480 653.0
18.83680 596.0
18.83880 593.0
18.84080 586.0
18.84280 610.0
18.84480 631.0
18.84680 565.0
18.84880 605.0
18.85080 590.0
18.85280 663.0
18.85480 636.0
18.85680 607.0
18.85880 609.0
18.86080 568.0
18.86280 612.0
18.86480 626.0
18.86680 621.0
18.86880 643.0
18.87080 581.0
18.87280 648.0
18.87480 615.0
18.87680 575.0
18.87880 658.0
18.88080 640.0
18.88280 631.0
18.88480 622.0
18.88680 621.0
18.88880 655.0
18.89080 624.0
18.89280 623.0
18.89480 616.0
18.89680 612.0
18.89880 623.0
18.90080 617.0
18.90280 632.0
18.90480 661.0
18.90680 608.0
18.90880 721.0
18.91080 666.0
18.91280 616.0
18.91480 631.0
18.91680 650.0
18.91880 686.0
18.92080 617.0
18.92280 666.0
18.92480 623.0
18.92680 665.0
18.92880 651.0
18.93080 660.0
18.93280 652.0
18.93480 638.0
18.93680 683.0
18.93880 636.0
18.94080 644.0
18.94280 658.0
18.94480 647.0
18.94680 696.0
18.94880 676.0
18.95080 591.0
18.95280 683.0
18.95480 652.0
18.95680 666.0
18.95880 677.0
18.96080 734.0
18.96280 692.0
18.96480 647.0
18.96680 682.0
18.96880 680.0
18.97080 627.0
18.97280 682.0
18.97480 678.0
18.97680 691.0
18.97880 705.0
18.98080 656.0
18.98280 717.0
18.98480 707.0
18.98680 739.0
18.98880 738.0
18.99080 766.0
18.99280 715.0
18.99480 758.0
18.99680 752.0
18.99880 781.0
19.00080 749.0
19.00280 732.0
19.00480 773.0
19.00680 783.0
19.00880 730.0
19.01080 793.0
19.01280 765.0
19.01480 793.0
19.01680 735.0
19.01880 803.0
19.02080 749.0
19.02280 804.0
19.02480 760.0
19.02680 783.0
19.02880 811.0
19.03080 792.0
19.03280 781.0
19.03480 822.0
19.03680 853.0
19.03880 802.0
19.04080 816.0
19.04280 825.0
19.04480 861.0
19.04680 795.0
19.04880 818.0
19.05080 760.0
19.05280 849.0
19.05480 830.0
19.05680 804.0
19.05880 798.0
19.06080 810.0
19.06280 849.0
19.06480 878.0
19.06680 836.0
19.06880 866.0
19.07080 819.0
19.07280 819.0
19.07480 829.0
19.07680 835.0
19.07880 900.0
19.08080 904.0
19.08280 900.0
19.08480 854.0
19.08680 906.0
19.08880 905.0
19.09080 917.0
19.09280 876.0
19.09480 871.0
19.09680 893.0
19.09880 878.0
19.10080 938.0
19.10280 898.0
19.10480 915.0
19.10680 895.0
19.10880 912.0
19.11080 986.0
19.11280 933.0
19.11480 963.0
19.11680 890.0
19.11880 924.0
19.12080 995.0
19.12280 939.0
19.12480 922.0
19.12680 921.0
19.12880 962.0
19.13080 974.0
19.13280 1014.0
19.13480 966.0
19.13680 967.0
19.13880 971.0
19.14080 913.0
19.14280 1033.0
19.14480 929.0
19.14680 993.0
19.14880 1035.0
19.15080 1018.0
19.15280 1056.0
19.15480 1008.0
19.15680 1038.0
19.15880 1029.0
19.16080 1071.0
19.16280 1007.0
19.16480 1022.0
19.16680 1033.0
19.16880 1022.0
19.17080 1088.0
19.17280 1081.0
19.17480 1136.0
19.17680 1128.0
19.17880 1087.0
19.18080 1138.0
19.18280 1142.0
19.18480 1164.0
19.18680 1163.0
19.18880 1155.0
19.19080 1067.0
19.19280 1158.0
19.19480 1108.0
19.19680 1102.0
19.19880 1204.0
19.20080 1180.0
19.20280 1148.0
19.20480 1182.0
19.20680 1241.0
19.20880 1257.0
19.21080 1251.0
19.21280 1169.0
19.21480 1225.0
19.21680 1273.0
19.21880 1196.0
19.22080 1217.0
19.22280 1240.0
19.22480 1271.0
19.22680 1180.0
19.22880 1225.0
19.23080 1285.0
19.23280 1298.0
19.23480 1361.0
19.23680 1248.0
19.23880 1369.0
19.24080 1336.0
19.24280 1325.0
19.24480 1304.0
19.24680 1356.0
19.24880 1353.0
19.25080 1362.0
19.25280 1406.0
19.25480 1389.0
19.25680 1305.0
19.25880 1374.0
19.26080 1405.0
19.26280 1369.0
19.26480 1424.0
19.26680 1476.0
19.26880 1442.0
19.27080 1440.0
19.27280 1499.0
19.27480 1536.0
19.27680 1457.0
19.27880 1561.0
19.28080 1572.0
19.28280 1572.0
19.28480 1572.0
19.28680 1534.0
19.28880 1625.0
19.29080 1656.0
19.29280 1609.0
19.29480 1689.0
19.29680 1648.0
19.29880 1725.0
19.30080 1698.0
19.30280 1764.0
19.30480 1748.0
19.30680 1687.0
19.30880 1805.0
19.31080 1684.0
19.31280 1738.0
19.31480 1802.0
19.31680 1852.0
19.31880 1845.0
19.32080 1851.0
19.32280 1862.0
19.32480 1895.0
19.32680 2005.0
19.32880 1951.0
19.33080 2000.0
19.33280 2006.0
19.33480 1987.0
19.33680 2054.0
19.33880 2093.0
19.34080 2070.0
19.34280 2076.0
19.34480 2139.0
19.34680 2225.0
19.34880 2169.0
19.35080 2131.0
19.35280 2244.0
19.35480 2232.0
19.35680 2293.0
19.35880 2351.0
19.36080 2335.0
19.36280 2335.0
19.36480 2324.0
19.36680 2476.0
19.36880 2578.0
19.37080 2563.0
19.37280 2605.0
19.37480 2621.0
19.37680 2663.0
19.37880 2568.0
19.38080 2642.0
19.38280 2658.0
19.38480 2741.0
19.38680 2678.0
19.38880 2811.0
19.39080 2891.0
19.39280 2912.0
19.39480 2940.0
19.39680 3009.0
19.39880 3045.0
19.40080 3181.0
19.40280 3286.0
19.40480 3250.0
19.40680 3245.0
19.40880 3315.0
19.41080 3428.0
19.41280 3436.0
19.41480 3429.0
19.41680 3595.0
19.41880 3693.0
19.42080 3689.0
19.42280 3796.0
19.42480 3852.0
19.42680 3848.0
19.42880 4008.0
19.43080 3974.0
19.43280 4105.0
19.43480 4248.0
19.43680 4421.0
19.43880 4417.0
19.44080 4469.0
19.44280 4537.0
19.44480 4739.0
19.44680 4867.0
19.44880 4903.0
19.45080 5064.0
19.45280 5087.0
19.45480 5208.0
19.45680 5541.0
19.45880 5465.0
19.46080 5777.0
19.46280 5772.0
19.46480 5971.0
19.46680 6129.0
19.46880 6197.0
19.47080 6358.0
19.47280 6540.0
19.47480 6715.0
19.47680 6891.0
19.47880 7190.0
19.48080 7394.0
19.48280 7554.0
19.48480 7769.0
19.48680 7933.0
19.48880 8219.0
19.49080 8260.0
19.49280 8716.0
19.49480 8851.0
19.49680 9116.0
19.49880 9303.0
19.50080 9767.0
19.50280 10140.0
19.50480 10353.0
19.50680 10703.0
19.50880 11092.0
19.51080 11564.0
19.51280 11929.0
19.51480 12173.0
19.51680 12785.0
19.51880 13205.0
19.52080 13488.0
19.52280 13860.0
19.52480 14311.0
19.52680 14610.0
19.52880 15088.0
19.53080 15496.0
19.53280 16051.0
19.53480 16438.0
19.53680 16623.0
19.53880 17290.0
19.54080 17463.0
19.54280 18171.0
19.54480 18842.0
19.54680 19393.0
19.54880 19730.0
19.55080 20133.0
19.55280 20423.0
19.55480 21020.0
19.55680 21750.0
19.55880 21921.0
19.56080 22564.0
19.56280 22876.0
19.56480 23431.0
19.56680 23728.0
19.56880 24199.0
19.57080 24473.0
19.57280 24683.0
19.57480 24764.0
19.57680 24872.0
19.57880 24770.0
19.58080 24917.0
19.58280 24989.0
19.58480 24753.0
19.58680 24427.0
19.58880 24693.0
19.59080 24414.0
19.59280 24186.0
19.59480 24022.0
19.59680 23816.0
19.59880 23729.0
19.60080 23427.0
19.60280 22876.0
19.60480 22659.0
19.60680 22843.0
19.60880 22540.0
19.61080 22163.0
19.61280 21820.0
19.61480 21449.0
19.61680 21381.0
19.61880 20915.0
19.62080 20405.0
19.62280 20385.0
19.62480 20253.0
19.62680 19742.0
19.62880 19185.0
19.63080 18689.0
19.63280 18475.0
19.63480 17868.0
19.63680 17889.0
19.63880 17231.0
19.64080 16615.0
19.64280 16309.0
19.64480 15820.0
19.64680 15663.0
19.64880 15328.0
19.65080 14557.0
19.65280 14481.0
19.65480 13940.0
19.65680 13426.0
19.65880 13103.0
19.66080 12783.0
19.66280 12365.0
19.66480 11700.0
19.66680 11699.0
19.66880 11192.0
19.67080 10819.0
19.67280 10659.0
19.67480 10168.0
19.67680 9967.0
19.67880 9619.0
19.68080 9517.0
19.68280 9043.0
19.68480 8673.0
19.68680 8514.0
19.68880 8283.0
19.69080 8007.0
19.69280 7945.0
19.69480 7720.0
19.69680 7330.0
19.69880 7079.0
19.70080 6947.0
19.70280 6838.0
19.70480 6696.0
19.70680 6586.0
19.70880 6330.0
19.71080 6033.0
19.71280 6079.0
19.71480 5717.0
19.71680 5805.0
19.71880 5499.0
19.72080 5249.0
19.72280 5347.0
19.72480 5119.0
19.72680 5012.0
19.72880 4938.0
19.73080 4870.0
19.73280 4733.0
19.73480 4612.0
19.73680 4442.0
19.73880 4443.0
19.74080 4278.0
19.74280 4294.0
19.74480 4097.0
19.74680 4007.0
19.74880 3857.0
19.75080 3911.0
19.75280 3749.0
19.75480 3734.0
19.75680 3636.0
19.75880 3524.0
19.76080 3528.0
19.76280 3433.0
19.76480 3345.0
19.76680 3367.0
19.76880 3254.0
19.77080 3212.0
19.77280 3128.0
19.77480 3095.0
19.77680 3020.0
19.77880 3082.0
19.78080 2914.0
19.78280 2857.0
19.78480 2780.0
19.78680 2779.0
19.78880 2756.0
19.79080 2753.0
19.79280 2598.0
19.79480 2600.0
19.79680 2645.0
19.79880 2576.0
19.80080 2439.0
19.80280 2556.0
19.80480 2317.0
19.80680 2441.0
19.80880 2333.0
19.81080 2347.0
19.81280 2308.0
19.81480 2224.0
19.81680 2218.0
19.81880 2142.0
19.82080 2131.0
19.82280 2176.0
19.82480 2156.0
19.82680 2128.0
19.82880 2049.0
19.83080 2059.0
19.83280 2035.0
19.83480 1983.0
19.83680 1935.0
19.83880 1895.0
19.84080 1883.0
19.84280 1926.0
19.84480 1820.0
19.84680 1861.0
19.84880 1896.0
19.85080 1826.0
19.85280 1757.0
19.85480 1777.0
19.85680 1705.0
19.85880 1726.0
19.86080 1744.0
19.86280 1613.0
19.86480 1712.0
19.86680 1650.0
19.86880 1658.0
19.87080 1689.0
19.87280 1666.0
19.87480 1587.0
19.87680 1633.0
19.87880 1553.0
19.88080 1504.0
19.88280 1516.0
19.88480 1513.0
19.88680 1524.0
19.88880 1497.0
19.89080 1440.0
19.89280 1450.0
19.89480 1468.0
19.89680 1365.0
19.89880 1383.0
19.90080 1418.0
19.90280 1412.0
19.90480 1365.0
19.90680 1421.0
19.90880 1444.0
19.91080 1361.0
19.91280 1342.0
19.91480 1340.0
19.91680 1306.0
19.91880 1374.0
19.92080 1227.0
19.92280 1269.0
19.92480 1384.0
19.92680 1297.0
19.92880 1157.0
19.93080 1270.0
19.93280 1256.0
19.93480 1231.0
19.93680 1242.0
19.93880 1194.0
19.94080 1225.0
19.94280 1157.0
19.94480 1212.0
19.94680 1185.0
19.94880 1190.0
19.95080 1178.0
19.95280 1155.0
19.95480 1146.0
19.95680 1136.0
19.95880 1116.0
19.96080 1133.0
19.96280 1080.0
19.96480 1118.0
19.96680 1130.0
19.96880 1081.0
19.97080 1076.0
19.97280 1103.0
19.97480 1023.0
19.97680 1061.0
19.97880 1040.0
19.98080 1045.0
19.98280 1067.0
19.98480 1049.0
19.98680 975.0
19.98880 1006.0
19.99080 1051.0
19.99280 1013.0
19.99480 1006.0
19.99680 1003.0
19.99880 1067.0
20.00080 1015.0
20.00280 986.0
20.00480 984.0
20.00680 976.0
20.00880 979.0
20.01080 970.0
20.01280 969.0
20.01480 926.0
20.01680 943.0
20.01880 946.0
20.02080 918.0
20.02280 913.0
20.02480 963.0
20.02680 941.0
20.02880 941.0
20.03080 921.0
20.03280 948.0
20.03480 874.0
20.03680 864.0
20.03880 875.0
20.04080 880.0
20.04280 880.0
20.04480 865.0
20.04680 917.0
20.04880 807.0
20.05080 869.0
20.05280 913.0
20.05480 899.0
20.05680 828.0
20.05880 868.0
20.06080 863.0
20.06280 872.0
20.06480 867.0
20.06680 859.0
20.06880 813.0
20.07080 831.0
20.07280 805.0
20.07480 851.0
20.07680 763.0
20.07880 854.0
20.08080 778.0
20.08280 788.0
20.08480 844.0
20.08680 869.0
20.08880 818.0
20.09080 803.0
20.09280 832.0
20.09480 795.0
20.09680 802.0
20.09880 805.0
20.10080 853.0
20.10280 790.0
20.10480 827.0
20.10680 823.0
20.10880 754.0
20.11080 832.0
20.11280 798.0
20.11480 729.0
20.11680 725.0
20.11880 802.0
20.12080 793.0
20.12280 791.0
20.12480 763.0
20.12680 812.0
20.12880 814.0
20.13080 765.0
20.13280 755.0
20.13480 744.0
20.13680 757.0
20.13880 713.0
20.14080 760.0
20.14280 748.0
20.14480 770.0
20.14680 722.0
20.14880 742.0
20.15080 774.0
20.15280 710.0
20.15480 781.0
20.15680 746.0
20.15880 762.0
20.16080 765.0
20.16280 734.0
20.16480 681.0
20.16680 754.0
20.16880 726.0
20.17080 745.0
20.17280 713.0
20.17480 733.0
20.17680 737.0
20.17880 743.0
20.18080 726.0
20.18280 710.0
20.18480 738.0
20.18680 719.0
20.18880 738.0
20.19080 753.0
20.19280 702.0
20.19480 730.0
20.19680 745.0
20.19880 705.0
20.20080 721.0
20.20280 684.0
20.20480 700.0
20.20680 706.0
20.20880 732.0
20.21080 712.0
20.21280 718.0
20.21480 745.0
20.21680 681.0
20.21880 697.0
20.22080 702.0
20.22280 771.0
20.22480 748.0
20.22680 707.0
20.22880 711.0
20.23080 715.0
20.23280 744.0
20.23480 693.0
20.23680 692.0
20.23880 698.0
20.24080 683.0
20.24280 705.0
20.24480 665.0
20.24680 633.0
20.24880 654.0
20.25080 641.0
20.25280 615.0
20.25480 622.0
20.25680 677.0
20.25880 641.0
20.26080 657.0
20.26280 609.0
20.26480 618.0
20.26680 617.0
20.26880 616.0
20.27080 638.0
20.27280 587.0
20.27480 613.0
20.27680 587.0
20.27880 635.0
20.28080 636.0
20.28280 608.0
20.28480 598.0
20.28680 571.0
20.28880 587.0
20.29080 581.0
20.29280 571.0
20.29480 588.0
20.29680 585.0
20.29880 561.0
20.30080 573.0
20.30280 594.0
20.30480 546.0
20.30680 595.0
20.30880 575.0
20.31080 594.0
20.31280 593.0
20.31480 572.0
20.31680 619.0
20.31880 574.0
20.32080 592.0
20.32280 588.0
20.32480 574.0
20.32680 546.0
20.32880 528.0
20.33080 536.0
20.33280 545.0
20.33480 552.0
20.33680 557.0
20.33880 558.0
20.34080 533.0
20.34280 546.0
20.34480 581.0
20.34680 516.0
20.34880 528.0
20.35080 584.0
20.35280 577.0
20.35480 530.0
20.35680 581.0
20.35880 572.0
20.36080 566.0
20.36280 552.0
20.36480 586.0
20.36680 556.0
20.36880 558.0
20.37080 605.0
20.37280 536.0
20.37480 520.0
20.37680 538.0
20.37880 573.0
20.38080 572.0
20.38280 578.0
20.38480 580.0
20.38680 564.0
20.38880 563.0
20.39080 555.0
20.39280 592.0
20.39480 581.0
20.39680 540.0
20.39880 548.0
20.40080 543.0
20.40280 520.0
20.40480 538.0
20.40680 563.0
20.40880 551.0
20.41080 562.0
20.41280 569.0
20.41480 551.0
20.41680 518.0
20.41880 530.0
20.42080 592.0
20.42280 514.0
20.42480 577.0
20.42680 552.0
20.42880 507.0
20.43080 584.0
20.43280 566.0
20.43480 551.0
20.43680 564.0
20.43880 568.0
20.44080 543.0
20.44280 586.0
20.44480 516.0
20.44680 506.0
20.44880 561.0
20.45080 526.0
20.45280 526.0
20.45480 554.0
20.45680 475.0
20.45880 517.0
20.46080 513.0
20.46280 498.0
20.46480 545.0
20.46680 556.0
20.46880 526.0
20.47080 512.0
20.47280 542.0
20.47480 511.0
20.47680 558.0
20.47880 557.0
20.48080 529.0
20.48280 520.0
20.48480 528.0
20.48680 560.0
20.48880 541.0
20.49080 503.0
20.49280 535.0
20.49480 551.0
20.49680 522.0
20.49880 537.0
20.50080 502.0
20.50280 558.0
20.50480 517.0
20.50680 555.0
20.50880 518.0
20.51080 512.0
20.51280 492.0
20.51480 531.0
20.51680 527.0
20.51880 526.0
20.52080 546.0
20.52280 514.0
20.52480 532.0
20.52680 541.0
20.52880 494.0
20.53080 562.0
20.53280 549.0
20.53480 540.0
20.53680 549.0
20.53880 528.0
20.54080 536.0
20.54280 529.0
20.54480 539.0
20.54680 514.0
20.54880 545.0
20.55080 472.0
20.55280 510.0
20.55480 499.0
20.55680 494.0
20.55880 523.0
20.56080 518.0
20.56280 533.0
20.56480 527.0
20.56680 510.0
20.56880 475.0
20.57080 491.0
20.57280 518.0
20.57480 511.0
20.57680 494.0
20.57880 524.0