File: data/W6933r/XRD_2ThetaOmega/r_scan_2th-om_10-130deg_PIXscan_17min.xy
10.0035 54.0
10.0872 51.0
10.1709 52.0
10.2546 46.0
10.3383 65.0
10.422 46.0
10.5057 55.0
10.5894 46.0
10.6731 57.0
10.7568 56.0
10.8405 47.0
10.9242 46.0
11.0079 38.0
11.0916 54.0
11.1753 57.0
11.259 49.0
11.3428 52.0
11.4265 48.0
11.5102 38.0
11.5939 44.0
11.6776 54.0
11.7613 48.0
11.845 51.0
11.9287 45.0
12.0124 37.0
12.0961 42.0
12.1798 48.0
12.2635 40.0
12.3472 44.0
12.4309 41.0
12.5146 45.0
12.5983 47.0
12.682 52.0
12.7657 34.0
12.8495 39.0
12.9332 39.0
13.0169 41.0
13.1006 40.0
13.1843 36.0
13.268 44.0
13.3517 31.0
13.4354 45.0
13.5191 43.0
13.6028 38.0
13.6865 34.0
13.7702 38.0
13.8539 43.0
13.9376 37.0
14.0213 47.0
14.105 48.0
14.1887 25.0
14.2724 47.0
14.3562 32.0
14.4399 52.0
14.5236 28.0
14.6073 48.0
14.691 42.0
14.7747 41.0
14.8584 41.0
14.9421 31.0
15.0258 39.0
15.1095 31.0
15.1932 38.0
15.2769 31.0
15.3606 38.0
15.4443 37.0
15.528 38.0
15.6117 39.0
15.6954 33.0
15.7791 35.0
15.8629 30.0
15.9466 31.0
16.0303 43.0
16.114 30.0
16.1977 32.0
16.2814 24.0
16.3651 42.0
16.4488 21.0
16.5325 37.0
16.6162 33.0
16.6999 28.0
16.7836 30.0
16.8673 31.0
16.951 33.0
17.0347 28.0
17.1184 35.0
17.2021 25.0
17.2858 32.0
17.3696 28.0
17.4533 29.0
17.537 25.0
17.6207 38.0
17.7044 29.0
17.7881 19.0
17.8718 24.0
17.9555 41.0
18.0392 32.0
18.1229 37.0
18.2066 18.0
18.2903 34.0
18.374 26.0
18.4577 26.0
18.5414 26.0
18.6251 26.0
18.7088 32.0
18.7925 32.0
18.8763 26.0
18.96 25.0
19.0437 31.0
19.1274 30.0
19.2111 32.0
19.2948 24.0
19.3785 27.0
19.4622 29.0
19.5459 24.0
19.6296 26.0
19.7133 26.0
19.797 25.0
19.8807 29.0
19.9644 24.0
20.0481 34.0
20.1318 25.0
20.2155 28.0
20.2992 31.0
20.383 32.0
20.4667 18.0
20.5504 28.0
20.6341 25.0
20.7178 29.0
20.8015 28.0
20.8852 34.0
20.9689 18.0
21.0526 28.0
21.1363 26.0
21.22 32.0
21.3037 26.0
21.3874 29.0
21.4711 31.0
21.5548 24.0
21.6385 21.0
21.7222 22.0
21.8059 19.0
21.8897 38.0
21.9734 40.0
22.0571 37.0
22.1408 24.0
22.2245 28.0
22.3082 26.0
22.3919 24.0
22.4756 29.0
22.5593 28.0
22.643 22.0
22.7267 21.0
22.8104 26.0
22.8941 26.0
22.9778 38.0
23.0615 94.0
23.1452 30.0
23.2289 38.0
23.3126 32.0
23.3964 42.0
23.4801 47.0
23.5638 43.0
23.6475 48.0
23.7312 66.0
23.8149 54.0
23.8986 80.0
23.9823 100.0
24.066 133.0
24.1497 309.0
24.2334 656.0
24.3171 2281.0
24.4008 4932.0
24.4845 2225.0
24.5682 526.0
24.6519 225.0
24.7356 161.0
24.8193 117.0
24.9031 112.0
24.9868 126.0
25.0705 144.0
25.1542 199.0
25.2379 178.0
25.3216 352.0
25.4053 1319.0
25.489 13425.0
25.5727 39431.0
25.6564 1548.0
25.7401 484.0
25.8238 276.0
25.9075 168.0
25.9912 122.0
26.0749 70.0
26.1586 64.0
26.2423 58.0
26.326 63.0
26.4098 46.0
26.4935 40.0
26.5772 39.0
26.6609 36.0
26.7446 24.0
26.8283 30.0
26.912 29.0
26.9957 38.0
27.0794 21.0
27.1631 36.0
27.2468 30.0
27.3305 35.0
27.4142 26.0
27.4979 30.0
27.5816 31.0
27.6653 31.0
27.749 26.0
27.8327 23.0
27.9165 22.0
28.0002 34.0
28.0839 29.0
28.1676 26.0
28.2513 31.0
28.335 29.0
28.4187 33.0
28.5024 32.0
28.5861 29.0
28.6698 31.0
28.7535 25.0
28.8372 34.0
28.9209 42.0
29.0046 17.0
29.0883 27.0
29.172 20.0
29.2557 28.0
29.3394 31.0
29.4232 31.0
29.5069 25.0
29.5906 24.0
29.6743 23.0
29.758 27.0
29.8417 25.0
29.9254 25.0
30.0091 23.0
30.0928 30.0
30.1765 17.0
30.2602 23.0
30.3439 28.0
30.4276 23.0
30.5113 28.0
30.595 31.0
30.6787 22.0
30.7624 29.0
30.8461 22.0
30.9298 28.0
31.0136 33.0
31.0973 28.0
31.181 31.0
31.2647 23.0
31.3484 24.0
31.4321 24.0
31.5158 30.0
31.5995 19.0
31.6832 29.0
31.7669 26.0
31.8506 21.0
31.9343 18.0
32.018 28.0
32.1017 25.0
32.1854 21.0
32.2691 21.0
32.3528 37.0
32.4365 30.0
32.5203 21.0
32.604 30.0
32.6877 26.0
32.7714 24.0
32.8551 20.0
32.9388 26.0
33.0225 31.0
33.1062 27.0
33.1899 30.0
33.2736 16.0
33.3573 30.0
33.441 15.0
33.5247 16.0
33.6084 27.0
33.6921 18.0
33.7758 30.0
33.8595 27.0
33.9432 19.0
34.027 14.0
34.1107 30.0
34.1944 25.0
34.2781 18.0
34.3618 25.0
34.4455 21.0
34.5292 28.0
34.6129 33.0
34.6966 20.0
34.7803 24.0
34.864 34.0
34.9477 33.0
35.0314 34.0
35.1151 20.0
35.1988 31.0
35.2825 24.0
35.3662 24.0
35.4499 25.0
35.5337 17.0
35.6174 30.0
35.7011 15.0
35.7848 29.0
35.8685 19.0
35.9522 20.0
36.0359 21.0
36.1196 25.0
36.2033 26.0
36.287 37.0
36.3707 25.0
36.4544 29.0
36.5381 17.0
36.6218 27.0
36.7055 26.0
36.7892 27.0
36.8729 34.0
36.9566 29.0
37.0404 23.0
37.1241 27.0
37.2078 29.0
37.2915 32.0
37.3752 26.0
37.4589 27.0
37.5426 25.0
37.6263 30.0
37.71 27.0
37.7937 22.0
37.8774 22.0
37.9611 17.0
38.0448 23.0
38.1285 18.0
38.2122 33.0
38.2959 28.0
38.3796 27.0
38.4633 21.0
38.5471 18.0
38.6308 31.0
38.7145 21.0
38.7982 30.0
38.8819 20.0
38.9656 26.0
39.0493 24.0
39.133 25.0
39.2167 22.0
39.3004 27.0
39.3841 22.0
39.4678 25.0
39.5515 43.0
39.6352 29.0
39.7189 26.0
39.8026 26.0
39.8863 23.0
39.97 26.0
40.0538 16.0
40.1375 26.0
40.2212 26.0
40.3049 33.0
40.3886 28.0
40.4723 23.0
40.556 23.0
40.6397 12.0
40.7234 31.0
40.8071 36.0
40.8908 19.0
40.9745 32.0
41.0582 22.0
41.1419 20.0
41.2256 29.0
41.3093 24.0
41.393 24.0
41.4767 26.0
41.5605 30.0
41.6442 25.0
41.7279 17.0
41.8116 22.0
41.8953 21.0
41.979 19.0
42.0627 33.0
42.1464 34.0
42.2301 27.0
42.3138 24.0
42.3975 32.0
42.4812 26.0
42.5649 30.0
42.6486 27.0
42.7323 30.0
42.816 25.0
42.8997 44.0
42.9834 30.0
43.0672 34.0
43.1509 31.0
43.2346 25.0
43.3183 25.0
43.402 25.0
43.4857 31.0
43.5694 27.0
43.6531 27.0
43.7368 21.0
43.8205 30.0
43.9042 37.0
43.9879 37.0
44.0716 32.0
44.1553 35.0
44.239 46.0
44.3227 63.0
44.4064 53.0
44.4901 56.0
44.5739 43.0
44.6576 28.0
44.7413 35.0
44.825 34.0
44.9087 36.0
44.9924 29.0
45.0761 32.0
45.1598 18.0
45.2435 32.0
45.3272 20.0
45.4109 25.0
45.4946 20.0
45.5783 15.0
45.662 39.0
45.7457 16.0
45.8294 27.0
45.9131 20.0
45.9968 15.0
46.0806 23.0
46.1643 18.0
46.248 27.0
46.3317 24.0
46.4154 37.0
46.4991 29.0
46.5828 22.0
46.6665 28.0
46.7502 23.0
46.8339 24.0
46.9176 35.0
47.0013 36.0
47.085 138.0
47.1687 90.0
47.2524 45.0
47.3361 23.0
47.4198 33.0
47.5035 25.0
47.5873 25.0
47.671 25.0
47.7547 27.0
47.8384 34.0
47.9221 24.0
48.0058 29.0
48.0895 30.0
48.1732 37.0
48.2569 25.0
48.3406 28.0
48.4243 33.0
48.508 42.0
48.5917 36.0
48.6754 29.0
48.7591 27.0
48.8428 48.0
48.9265 39.0
49.0102 38.0
49.094 31.0
49.1777 54.0
49.2614 37.0
49.3451 45.0
49.4288 55.0
49.5125 77.0
49.5962 96.0
49.6799 111.0
49.7636 208.0
49.8473 375.0
49.931 852.0
50.0147 1618.0
50.0984 1451.0
50.1821 1047.0
50.2658 464.0
50.3495 209.0
50.4332 126.0
50.5169 87.0
50.6007 82.0
50.6844 54.0
50.7681 60.0
50.8518 56.0
50.9355 57.0
51.0192 57.0
51.1029 51.0
51.1866 51.0
51.2703 69.0
51.354 62.0
51.4377 49.0
51.5214 66.0
51.6051 85.0
51.6888 84.0
51.7725 103.0
51.8562 127.0
51.9399 116.0
52.0236 130.0
52.1074 185.0
52.1911 393.0
52.2748 828.0
52.3585 938.0
52.4422 5230.0
52.5259 50760.0
52.6096 14802.0
52.6933 5987.0
52.777 839.0
52.8607 427.0
52.9444 282.0
53.0281 178.0
53.1118 138.0
53.1955 141.0
53.2792 96.0
53.3629 89.0
53.4466 75.0
53.5303 79.0
53.6141 67.0
53.6978 45.0
53.7815 47.0
53.8652 40.0
53.9489 44.0
54.0326 41.0
54.1163 25.0
54.2 29.0
54.2837 35.0
54.3674 29.0
54.4511 36.0
54.5348 38.0
54.6185 43.0
54.7022 37.0
54.7859 33.0
54.8696 32.0
54.9533 32.0
55.037 27.0
55.1208 27.0
55.2045 40.0
55.2882 46.0
55.3719 32.0
55.4556 36.0
55.5393 23.0
55.623 42.0
55.7067 25.0
55.7904 31.0
55.8741 28.0
55.9578 29.0
56.0415 29.0
56.1252 23.0
56.2089 32.0
56.2926 30.0
56.3763 27.0
56.46 27.0
56.5437 31.0
56.6275 17.0
56.7112 32.0
56.7949 31.0
56.8786 33.0
56.9623 25.0
57.046 30.0
57.1297 32.0
57.2134 26.0
57.2971 23.0
57.3808 32.0
57.4645 26.0
57.5482 30.0
57.6319 26.0
57.7156 33.0
57.7993 27.0
57.883 24.0
57.9667 18.0
58.0504 30.0
58.1342 32.0
58.2179 20.0
58.3016 34.0
58.3853 31.0
58.469 27.0
58.5527 33.0
58.6364 37.0
58.7201 28.0
58.8038 31.0
58.8875 29.0
58.9712 31.0
59.0549 32.0
59.1386 23.0
59.2223 29.0
59.306 44.0
59.3897 31.0
59.4734 20.0
59.5571 20.0
59.6409 25.0
59.7246 22.0
59.8083 32.0
59.892 32.0
59.9757 32.0
60.0594 25.0
60.1431 31.0
60.2268 24.0
60.3105 25.0
60.3942 32.0
60.4779 28.0
60.5616 32.0
60.6453 33.0
60.729 21.0
60.8127 17.0
60.8964 33.0
60.9801 31.0
61.0638 28.0
61.1476 25.0
61.2313 28.0
61.315 32.0
61.3987 32.0
61.4824 33.0
61.5661 34.0
61.6498 29.0
61.7335 20.0
61.8172 29.0
61.9009 28.0
61.9846 34.0
62.0683 29.0
62.152 32.0
62.2357 30.0
62.3194 27.0
62.4031 28.0
62.4868 33.0
62.5705 35.0
62.6543 24.0
62.738 28.0
62.8217 25.0
62.9054 29.0
62.9891 27.0
63.0728 25.0
63.1565 28.0
63.2402 36.0
63.3239 36.0
63.4076 36.0
63.4913 26.0
63.575 19.0
63.6587 27.0
63.7424 26.0
63.8261 33.0
63.9098 33.0
63.9935 28.0
64.0772 28.0
64.161 18.0
64.2447 31.0
64.3284 20.0
64.4121 33.0
64.4958 40.0
64.5795 26.0
64.6632 41.0
64.7469 32.0
64.8306 18.0
64.9143 23.0
64.998 25.0
65.0817 19.0
65.1654 29.0
65.2491 21.0
65.3328 32.0
65.4165 24.0
65.5002 24.0
65.5839 27.0
65.6677 33.0
65.7514 19.0
65.8351 31.0
65.9188 25.0
66.0025 24.0
66.0862 38.0
66.1699 20.0
66.2536 27.0
66.3373 20.0
66.421 29.0
66.5047 25.0
66.5884 25.0
66.6721 25.0
66.7558 27.0
66.8395 30.0
66.9232 32.0
67.0069 27.0
67.0906 29.0
67.1744 30.0
67.2581 27.0
67.3418 22.0
67.4255 22.0
67.5092 20.0
67.5929 32.0
67.6766 21.0
67.7603 21.0
67.844 29.0
67.9277 27.0
68.0114 32.0
68.0951 34.0
68.1788 32.0
68.2625 26.0
68.3462 30.0
68.4299 31.0
68.5136 24.0
68.5973 28.0
68.6811 34.0
68.7648 20.0
68.8485 34.0
68.9322 35.0
69.0159 38.0
69.0996 25.0
69.1833 30.0
69.267 22.0
69.3507 27.0
69.4344 20.0
69.5181 25.0
69.6018 17.0
69.6855 32.0
69.7692 36.0
69.8529 30.0
69.9366 34.0
70.0203 29.0
70.104 31.0
70.1878 23.0
70.2715 27.0
70.3552 21.0
70.4389 28.0
70.5226 29.0
70.6063 35.0
70.69 26.0
70.7737 18.0
70.8574 29.0
70.9411 21.0
71.0248 33.0
71.1085 32.0
71.1922 22.0
71.2759 34.0
71.3596 32.0
71.4433 29.0
71.527 28.0
71.6107 26.0
71.6945 21.0
71.7782 46.0
71.8619 32.0
71.9456 32.0
72.0293 29.0
72.113 40.0
72.1967 27.0
72.2804 31.0
72.3641 22.0
72.4478 21.0
72.5315 35.0
72.6152 37.0
72.6989 30.0
72.7826 32.0
72.8663 20.0
72.95 37.0
73.0337 33.0
73.1174 22.0
73.2012 25.0
73.2849 23.0
73.3686 29.0
73.4523 25.0
73.536 31.0
73.6197 36.0
73.7034 46.0
73.7871 24.0
73.8708 33.0
73.9545 27.0
74.0382 32.0
74.1219 29.0
74.2056 20.0
74.2893 36.0
74.373 18.0
74.4567 34.0
74.5404 32.0
74.6241 32.0
74.7079 23.0
74.7916 31.0
74.8753 33.0
74.959 32.0
75.0427 30.0
75.1264 24.0
75.2101 33.0
75.2938 22.0
75.3775 28.0
75.4612 27.0
75.5449 33.0
75.6286 33.0
75.7123 23.0
75.796 34.0
75.8797 27.0
75.9634 28.0
76.0471 29.0
76.1308 32.0
76.2146 29.0
76.2983 20.0
76.382 21.0
76.4657 31.0
76.5494 32.0
76.6331 31.0
76.7168 21.0
76.8005 39.0
76.8842 25.0
76.9679 32.0
77.0516 32.0
77.1353 33.0
77.219 20.0
77.3027 23.0
77.3864 38.0
77.4701 37.0
77.5538 28.0
77.6375 24.0
77.7213 42.0
77.805 30.0
77.8887 24.0
77.9724 29.0
78.0561 28.0
78.1398 27.0
78.2235 36.0
78.3072 41.0
78.3909 44.0
78.4746 47.0
78.5583 59.0
78.642 79.0
78.7257 112.0
78.8094 138.0
78.8931 100.0
78.9768 103.0
79.0605 67.0
79.1442 53.0
79.228 41.0
79.3117 42.0
79.3954 47.0
79.4791 34.0
79.5628 31.0
79.6465 21.0
79.7302 27.0
79.8139 17.0
79.8976 36.0
79.9813 24.0
80.065 37.0
80.1487 40.0
80.2324 30.0
80.3161 19.0
80.3998 25.0
80.4835 27.0
80.5672 27.0
80.6509 25.0
80.7347 27.0
80.8184 38.0
80.9021 40.0
80.9858 33.0
81.0695 26.0
81.1532 37.0
81.2369 27.0
81.3206 25.0
81.4043 25.0
81.488 34.0
81.5717 38.0
81.6554 40.0
81.7391 41.0
81.8228 24.0
81.9065 36.0
81.9902 58.0
82.0739 26.0
82.1576 36.0
82.2414 37.0
82.3251 41.0
82.4088 37.0
82.4925 20.0
82.5762 33.0
82.6599 33.0
82.7436 46.0
82.8273 41.0
82.911 47.0
82.9947 69.0
83.0784 157.0
83.1621 2861.0
83.2458 467.0
83.3295 143.0
83.4132 1388.0
83.4969 283.0
83.5806 60.0
83.6643 62.0
83.7481 47.0
83.8318 35.0
83.9155 32.0
83.9992 35.0
84.0829 38.0
84.1666 41.0
84.2503 31.0
84.334 34.0
84.4177 26.0
84.5014 33.0
84.5851 35.0
84.6688 31.0
84.7525 30.0
84.8362 41.0
84.9199 23.0
85.0036 26.0
85.0873 36.0
85.171 29.0
85.2548 33.0
85.3385 33.0
85.4222 35.0
85.5059 21.0
85.5896 26.0
85.6733 21.0
85.757 27.0
85.8407 27.0
85.9244 34.0
86.0081 28.0
86.0918 34.0
86.1755 29.0
86.2592 31.0
86.3429 36.0
86.4266 30.0
86.5103 35.0
86.594 32.0
86.6777 32.0
86.7615 29.0
86.8452 25.0
86.9289 45.0
87.0126 33.0
87.0963 36.0
87.18 23.0
87.2637 23.0
87.3474 34.0
87.4311 28.0
87.5148 20.0
87.5985 35.0
87.6822 26.0
87.7659 19.0
87.8496 29.0
87.9333 31.0
88.017 40.0
88.1007 34.0
88.1844 36.0
88.2682 27.0
88.3519 34.0
88.4356 32.0
88.5193 28.0
88.603 32.0
88.6867 26.0
88.7704 32.0
88.8541 39.0
88.9378 38.0
89.0215 31.0
89.1052 30.0
89.1889 34.0
89.2726 29.0
89.3563 19.0
89.44 26.0
89.5237 17.0
89.6074 29.0
89.6911 38.0
89.7749 31.0
89.8586 22.0
89.9423 19.0
90.026 41.0
90.1097 28.0
90.1934 30.0
90.2771 19.0
90.3608 39.0
90.4445 39.0
90.5282 31.0
90.6119 29.0
90.6956 30.0
90.7793 28.0
90.863 33.0
90.9467 30.0
91.0304 34.0
91.1141 38.0
91.1978 20.0
91.2816 24.0
91.3653 35.0
91.449 33.0
91.5327 20.0
91.6164 42.0
91.7001 26.0
91.7838 28.0
91.8675 26.0
91.9512 23.0
92.0349 28.0
92.1186 45.0
92.2023 35.0
92.286 20.0
92.3697 33.0
92.4534 29.0
92.5371 29.0
92.6208 29.0
92.7045 31.0
92.7883 31.0
92.872 32.0
92.9557 27.0
93.0394 30.0
93.1231 29.0
93.2068 32.0
93.2905 16.0
93.3742 34.0
93.4579 34.0
93.5416 26.0
93.6253 36.0
93.709 31.0
93.7927 28.0
93.8764 32.0
93.9601 30.0
94.0438 25.0
94.1275 31.0
94.2112 25.0
94.295 31.0
94.3787 37.0
94.4624 25.0
94.5461 30.0
94.6298 22.0
94.7135 33.0
94.7972 27.0
94.8809 36.0
94.9646 29.0
95.0483 21.0
95.132 25.0
95.2157 28.0
95.2994 32.0
95.3831 33.0
95.4668 19.0
95.5505 38.0
95.6342 22.0
95.7179 26.0
95.8017 26.0
95.8854 33.0
95.9691 39.0
96.0528 35.0
96.1365 30.0
96.2202 28.0
96.3039 25.0
96.3876 33.0
96.4713 35.0
96.555 29.0
96.6387 35.0
96.7224 24.0
96.8061 33.0
96.8898 31.0
96.9735 26.0
97.0572 39.0
97.1409 24.0
97.2246 29.0
97.3084 30.0
97.3921 23.0
97.4758 37.0
97.5595 19.0
97.6432 32.0
97.7269 32.0
97.8106 25.0
97.8943 37.0
97.978 35.0
98.0617 28.0
98.1454 25.0
98.2291 23.0
98.3128 39.0
98.3965 41.0
98.4802 30.0
98.5639 42.0
98.6476 31.0
98.7313 34.0
98.8151 26.0
98.8988 37.0
98.9825 37.0
99.0662 28.0
99.1499 34.0
99.2336 35.0
99.3173 21.0
99.401 31.0
99.4847 41.0
99.5684 29.0
99.6521 19.0
99.7358 24.0
99.8195 23.0
99.9032 30.0
99.9869 28.0
100.071 21.0
100.154 34.0
100.238 35.0
100.322 34.0
100.405 27.0
100.489 30.0
100.573 38.0
100.657 36.0
100.74 22.0
100.824 27.0
100.908 26.0
100.991 35.0
101.075 30.0
101.159 33.0
101.243 28.0
101.326 29.0
101.41 38.0
101.494 26.0
101.577 35.0
101.661 27.0
101.745 51.0
101.828 39.0
101.912 33.0
101.996 33.0
102.08 23.0
102.163 22.0
102.247 27.0
102.331 35.0
102.414 35.0
102.498 30.0
102.582 27.0
102.666 34.0
102.749 34.0
102.833 29.0
102.917 32.0
103 30.0
103.084 26.0
103.168 28.0
103.251 36.0
103.335 30.0
103.419 26.0
103.503 28.0
103.586 30.0
103.67 25.0
103.754 28.0
103.837 25.0
103.921 30.0
104.005 22.0
104.089 31.0
104.172 32.0
104.256 19.0
104.34 31.0
104.423 26.0
104.507 35.0
104.591 29.0
104.674 23.0
104.758 25.0
104.842 31.0
104.926 37.0
105.009 22.0
105.093 28.0
105.177 34.0
105.26 30.0
105.344 21.0
105.428 32.0
105.511 28.0
105.595 31.0
105.679 30.0
105.763 28.0
105.846 20.0
105.93 35.0
106.014 32.0
106.097 28.0
106.181 39.0
106.265 51.0
106.349 45.0
106.432 37.0
106.516 33.0
106.6 36.0
106.683 39.0
106.767 26.0
106.851 30.0
106.934 31.0
107.018 32.0
107.102 29.0
107.186 29.0
107.269 34.0
107.353 32.0
107.437 41.0
107.52 32.0
107.604 30.0
107.688 24.0
107.772 32.0
107.855 34.0
107.939 25.0
108.023 26.0
108.106 30.0
108.19 27.0
108.274 25.0
108.357 36.0
108.441 35.0
108.525 24.0
108.609 33.0
108.692 32.0
108.776 32.0
108.86 39.0
108.943 20.0
109.027 28.0
109.111 31.0
109.195 32.0
109.278 32.0
109.362 37.0
109.446 30.0
109.529 26.0
109.613 26.0
109.697 24.0
109.78 33.0
109.864 33.0
109.948 34.0
110.032 35.0
110.115 30.0
110.199 33.0
110.283 28.0
110.366 29.0
110.45 32.0
110.534 23.0
110.618 33.0
110.701 25.0
110.785 26.0
110.869 35.0
110.952 34.0
111.036 19.0
111.12 25.0
111.203 21.0
111.287 37.0
111.371 29.0
111.455 27.0
111.538 32.0
111.622 39.0
111.706 31.0
111.789 34.0
111.873 34.0
111.957 28.0
112.041 33.0
112.124 35.0
112.208 33.0
112.292 38.0
112.375 33.0
112.459 34.0
112.543 32.0
112.626 25.0
112.71 38.0
112.794 33.0
112.878 29.0
112.961 26.0
113.045 22.0
113.129 24.0
113.212 22.0
113.296 35.0
113.38 20.0
113.464 41.0
113.547 30.0
113.631 35.0
113.715 36.0
113.798 37.0
113.882 25.0
113.966 32.0
114.049 21.0
114.133 30.0
114.217 30.0
114.301 27.0
114.384 35.0
114.468 27.0
114.552 38.0
114.635 35.0
114.719 30.0
114.803 26.0
114.887 41.0
114.97 33.0
115.054 39.0
115.138 23.0
115.221 37.0
115.305 34.0
115.389 28.0
115.472 41.0
115.556 33.0
115.64 43.0
115.724 54.0
115.807 31.0
115.891 43.0
115.975 37.0
116.058 42.0
116.142 40.0
116.226 44.0
116.31 34.0
116.393 29.0
116.477 27.0
116.561 32.0
116.644 38.0
116.728 39.0
116.812 33.0
116.895 26.0
116.979 33.0
117.063 39.0
117.147 31.0
117.23 30.0
117.314 31.0
117.398 42.0
117.481 34.0
117.565 34.0
117.649 32.0
117.733 28.0
117.816 15.0
117.9 35.0
117.984 39.0
118.067 36.0
118.151 28.0
118.235 28.0
118.318 35.0
118.402 41.0
118.486 35.0
118.57 38.0
118.653 26.0
118.737 25.0
118.821 26.0
118.904 37.0
118.988 36.0
119.072 31.0
119.156 45.0
119.239 30.0
119.323 40.0
119.407 36.0
119.49 32.0
119.574 24.0
119.658 30.0
119.741 24.0
119.825 23.0
119.909 31.0
119.993 42.0
120.076 34.0
120.16 32.0
120.244 38.0
120.327 34.0
120.411 30.0
120.495 51.0
120.578 30.0
120.662 29.0
120.746 32.0
120.83 33.0
120.913 41.0
120.997 38.0
121.081 40.0
121.164 29.0
121.248 30.0
121.332 49.0
121.416 46.0
121.499 29.0
121.583 34.0
121.667 28.0
121.75 43.0
121.834 43.0
121.918 33.0
122.001 29.0
122.085 47.0
122.169 40.0
122.253 46.0
122.336 25.0
122.42 40.0
122.504 38.0
122.587 42.0
122.671 33.0
122.755 36.0
122.839 37.0
122.922 38.0
123.006 51.0
123.09 41.0
123.173 44.0
123.257 45.0
123.341 59.0
123.424 67.0
123.508 77.0
123.592 94.0
123.676 93.0
123.759 101.0
123.843 89.0
123.927 94.0
124.01 96.0
124.094 114.0
124.178 161.0
124.262 187.0
124.345 371.0
124.429 804.0
124.513 3042.0
124.596 11998.0
124.68 2645.0
124.764 789.0
124.847 473.0
124.931 411.0
125.015 883.0
125.099 4365.0
125.182 3442.0
125.266 837.0
125.35 333.0
125.433 156.0
125.517 144.0
125.601 112.0
125.685 101.0
125.768 101.0
125.852 79.0
125.936 76.0
126.019 55.0
126.103 55.0
126.187 54.0
126.27 41.0
126.354 50.0
126.438 41.0
126.522 45.0
126.605 45.0
126.689 45.0
126.773 47.0
126.856 41.0
126.94 44.0
127.024 44.0
127.108 47.0
127.191 41.0
127.275 48.0
127.359 44.0
127.442 38.0
127.526 35.0
127.61 51.0
127.693 33.0
127.777 31.0
127.861 36.0
127.945 36.0
128.028 44.0
128.112 39.0
128.196 37.0
128.279 36.0
128.363 36.0
128.447 40.0
128.531 42.0
128.614 35.0
128.698 29.0
128.782 23.0
128.865 34.0
128.949 35.0
129.033 40.0
129.116 32.0
129.2 41.0
129.284 32.0
129.368 46.0
129.451 36.0
129.535 33.0
129.619 39.0
129.702 30.0
129.786 33.0
129.87 39.0
129.954 44.0
129.998 28.0