File: data/W6933r/XRD_2ThetaOmega/w6933r_2theta
45.01000 1.0
45.02000 2.0
45.03000 6.0
45.04000 5.0
45.05000 0.0
45.06000 1.0
45.07000 2.0
45.08000 1.0
45.09000 4.0
45.10000 3.0
45.11000 1.0
45.12000 1.0
45.13000 2.0
45.14000 4.0
45.15000 2.0
45.16000 3.0
45.17000 4.0
45.18000 3.0
45.19000 2.0
45.20000 1.0
45.21000 0.0
45.22000 4.0
45.23000 7.0
45.24000 1.0
45.25000 2.0
45.26000 0.0
45.27000 1.0
45.28000 2.0
45.29000 3.0
45.30000 1.0
45.31000 5.0
45.32000 0.0
45.33000 3.0
45.34000 2.0
45.35000 4.0
45.36000 3.0
45.37000 0.0
45.38000 3.0
45.39000 2.0
45.40000 2.0
45.41000 4.0
45.42000 1.0
45.43000 1.0
45.44000 5.0
45.45000 0.0
45.46000 4.0
45.47000 2.0
45.48000 0.0
45.49000 2.0
45.50000 0.0
45.51000 4.0
45.52000 3.0
45.53000 2.0
45.54000 2.0
45.55000 3.0
45.56000 0.0
45.57000 0.0
45.58000 2.0
45.59000 2.0
45.60000 5.0
45.61000 4.0
45.62000 4.0
45.63000 1.0
45.64000 3.0
45.65000 1.0
45.66000 2.0
45.67000 2.0
45.68000 1.0
45.69000 3.0
45.70000 3.0
45.71000 0.0
45.72000 3.0
45.73000 1.0
45.74000 0.0
45.75000 4.0
45.76000 2.0
45.77000 1.0
45.78000 2.0
45.79000 2.0
45.80000 1.0
45.81000 2.0
45.82000 3.0
45.83000 2.0
45.84000 3.0
45.85000 3.0
45.86000 2.0
45.87000 1.0
45.88000 2.0
45.89000 2.0
45.90000 4.0
45.91000 1.0
45.92000 1.0
45.93000 2.0
45.94000 1.0
45.95000 0.0
45.96000 1.0
45.97000 2.0
45.98000 3.0
45.99000 3.0
46.00000 1.0
46.01000 3.0
46.02000 5.0
46.03000 2.0
46.04000 2.0
46.05000 1.0
46.06000 0.0
46.07000 1.0
46.08000 0.0
46.09000 3.0
46.10000 3.0
46.11000 3.0
46.12000 3.0
46.13000 1.0
46.14000 1.0
46.15000 0.0
46.16000 1.0
46.17000 3.0
46.18000 4.0
46.19000 1.0
46.20000 1.0
46.21000 3.0
46.22000 3.0
46.23000 1.0
46.24000 3.0
46.25000 1.0
46.26000 3.0
46.27000 3.0
46.28000 0.0
46.29000 3.0
46.30000 0.0
46.31000 1.0
46.32000 3.0
46.33000 1.0
46.34000 3.0
46.35000 2.0
46.36000 2.0
46.37000 2.0
46.38000 3.0
46.39000 1.0
46.40000 2.0
46.41000 3.0
46.42000 1.0
46.43000 0.0
46.44000 3.0
46.45000 0.0
46.46000 4.0
46.47000 1.0
46.48000 3.0
46.49000 3.0
46.50000 1.0
46.51000 2.0
46.52000 1.0
46.53000 2.0
46.54000 2.0
46.55000 1.0
46.56000 0.0
46.57000 1.0
46.58000 2.0
46.59000 2.0
46.60000 0.0
46.61000 2.0
46.62000 3.0
46.63000 2.0
46.64000 2.0
46.65000 2.0
46.66000 1.0
46.67000 4.0
46.68000 1.0
46.69000 3.0
46.70000 2.0
46.71000 0.0
46.72000 2.0
46.73000 5.0
46.74000 1.0
46.75000 0.0
46.76000 2.0
46.77000 1.0
46.78000 0.0
46.79000 1.0
46.80000 1.0
46.81000 5.0
46.82000 1.0
46.83000 1.0
46.84000 2.0
46.85000 0.0
46.86000 3.0
46.87000 1.0
46.88000 2.0
46.89000 0.0
46.90000 3.0
46.91000 1.0
46.92000 5.0
46.93000 1.0
46.94000 1.0
46.95000 4.0
46.96000 1.0
46.97000 1.0
46.98000 1.0
46.99000 6.0
47.00000 2.0
47.01000 3.0
47.02000 2.0
47.03000 0.0
47.04000 1.0
47.05000 2.0
47.06000 4.0
47.07000 1.0
47.08000 2.0
47.09000 1.0
47.10000 1.0
47.11000 0.0
47.12000 1.0
47.13000 1.0
47.14000 1.0
47.15000 4.0
47.16000 2.0
47.17000 1.0
47.18000 2.0
47.19000 0.0
47.20000 2.0
47.21000 2.0
47.22000 3.0
47.23000 0.0
47.24000 3.0
47.25000 2.0
47.26000 1.0
47.27000 1.0
47.28000 5.0
47.29000 2.0
47.30000 2.0
47.31000 2.0
47.32000 2.0
47.33000 2.0
47.34000 2.0
47.35000 1.0
47.36000 4.0
47.37000 2.0
47.38000 2.0
47.39000 0.0
47.40000 2.0
47.41000 0.0
47.42000 1.0
47.43000 0.0
47.44000 1.0
47.45000 2.0
47.46000 2.0
47.47000 1.0
47.48000 0.0
47.49000 0.0
47.50000 3.0
47.51000 3.0
47.52000 1.0
47.53000 1.0
47.54000 2.0
47.55000 1.0
47.56000 2.0
47.57000 5.0
47.58000 0.0
47.59000 0.0
47.60000 1.0
47.61000 1.0
47.62000 2.0
47.63000 1.0
47.64000 4.0
47.65000 2.0
47.66000 1.0
47.67000 6.0
47.68000 6.0
47.69000 1.0
47.70000 3.0
47.71000 1.0
47.72000 3.0
47.73000 1.0
47.74000 1.0
47.75000 1.0
47.76000 0.0
47.77000 0.0
47.78000 4.0
47.79000 1.0
47.80000 1.0
47.81000 2.0
47.82000 1.0
47.83000 4.0
47.84000 2.0
47.85000 1.0
47.86000 0.0
47.87000 2.0
47.88000 3.0
47.89000 1.0
47.90000 5.0
47.91000 2.0
47.92000 1.0
47.93000 1.0
47.94000 1.0
47.95000 1.0
47.96000 2.0
47.97000 1.0
47.98000 2.0
47.99000 1.0
48.00000 0.0
48.01000 0.0
48.02000 3.0
48.03000 1.0
48.04000 1.0
48.05000 0.0
48.06000 3.0
48.07000 3.0
48.08000 2.0
48.09000 0.0
48.10000 1.0
48.11000 2.0
48.12000 0.0
48.13000 2.0
48.14000 6.0
48.15000 1.0
48.16000 2.0
48.17000 3.0
48.18000 1.0
48.19000 0.0
48.20000 4.0
48.21000 3.0
48.22000 1.0
48.23000 2.0
48.24000 2.0
48.25000 0.0
48.26000 2.0
48.27000 1.0
48.28000 1.0
48.29000 1.0
48.30000 3.0
48.31000 1.0
48.32000 3.0
48.33000 1.0
48.34000 2.0
48.35000 1.0
48.36000 0.0
48.37000 1.0
48.38000 2.0
48.39000 1.0
48.40000 2.0
48.41000 2.0
48.42000 5.0
48.43000 2.0
48.44000 1.0
48.45000 3.0
48.46000 2.0
48.47000 1.0
48.48000 2.0
48.49000 2.0
48.50000 1.0
48.51000 0.0
48.52000 3.0
48.53000 3.0
48.54000 1.0
48.55000 1.0
48.56000 1.0
48.57000 3.0
48.58000 5.0
48.59000 4.0
48.60000 2.0
48.61000 1.0
48.62000 1.0
48.63000 1.0
48.64000 1.0
48.65000 1.0
48.66000 1.0
48.67000 3.0
48.68000 2.0
48.69000 4.0
48.70000 3.0
48.71000 0.0
48.72000 7.0
48.73000 2.0
48.74000 0.0
48.75000 0.0
48.76000 0.0
48.77000 1.0
48.78000 0.0
48.79000 0.0
48.80000 2.0
48.81000 4.0
48.82000 2.0
48.83000 0.0
48.84000 1.0
48.85000 1.0
48.86000 4.0
48.87000 2.0
48.88000 3.0
48.89000 4.0
48.90000 2.0
48.91000 3.0
48.92000 2.0
48.93000 0.0
48.94000 5.0
48.95000 0.0
48.96000 1.0
48.97000 5.0
48.98000 1.0
48.99000 1.0
49.00000 1.0
49.01000 0.0
49.02000 4.0
49.03000 7.0
49.04000 1.0
49.05000 1.0
49.06000 2.0
49.07000 2.0
49.08000 4.0
49.09000 1.0
49.10000 2.0
49.11000 3.0
49.12000 3.0
49.13000 2.0
49.14000 1.0
49.15000 6.0
49.16000 2.0
49.17000 2.0
49.18000 1.0
49.19000 3.0
49.20000 6.0
49.21000 2.0
49.22000 2.0
49.23000 1.0
49.24000 1.0
49.25000 2.0
49.26000 2.0
49.27000 4.0
49.28000 1.0
49.29000 2.0
49.30000 3.0
49.31000 8.0
49.32000 6.0
49.33000 3.0
49.34000 2.0
49.35000 5.0
49.36000 2.0
49.37000 5.0
49.38000 6.0
49.39000 3.0
49.40000 3.0
49.41000 5.0
49.42000 6.0
49.43000 10.0
49.44000 4.0
49.45000 5.0
49.46000 5.0
49.47000 10.0
49.48000 7.0
49.49000 7.0
49.50000 6.0
49.51000 4.0
49.52000 3.0
49.53000 8.0
49.54000 6.0
49.55000 6.0
49.56000 6.0
49.57000 13.0
49.58000 13.0
49.59000 15.0
49.60000 18.0
49.61000 9.0
49.62000 10.0
49.63000 17.0
49.64000 8.0
49.65000 17.0
49.66000 12.0
49.67000 10.0
49.68000 13.0
49.69000 14.0
49.70000 20.0
49.71000 16.0
49.72000 22.0
49.73000 32.0
49.74000 20.0
49.75000 27.0
49.76000 36.0
49.77000 37.0
49.78000 30.0
49.79000 32.0
49.80000 35.0
49.81000 46.0
49.82000 46.0
49.83000 46.0
49.84000 38.0
49.85000 61.0
49.86000 51.0
49.87000 51.0
49.88000 57.0
49.89000 61.0
49.90000 65.0
49.91000 78.0
49.92000 85.0
49.93000 79.0
49.94000 102.0
49.95000 105.0
49.96000 129.0
49.97000 119.0
49.98000 158.0
49.99000 165.0
50.00000 162.0
50.01000 196.0
50.02000 229.0
50.03000 231.0
50.04000 230.0
50.05000 263.0
50.06000 266.0
50.07000 276.0
50.08000 261.0
50.09000 270.0
50.10000 240.0
50.11000 243.0
50.12000 238.0
50.13000 245.0
50.14000 247.0
50.15000 226.0
50.16000 215.0
50.17000 175.0
50.18000 208.0
50.19000 186.0
50.20000 181.0
50.21000 157.0
50.22000 153.0
50.23000 191.0
50.24000 148.0
50.25000 132.0
50.26000 115.0
50.27000 99.0
50.28000 79.0
50.29000 82.0
50.30000 67.0
50.31000 60.0
50.32000 70.0
50.33000 55.0
50.34000 56.0
50.35000 44.0
50.36000 43.0
50.37000 36.0
50.38000 30.0
50.39000 33.0
50.40000 36.0
50.41000 25.0
50.42000 27.0
50.43000 26.0
50.44000 17.0
50.45000 14.0
50.46000 16.0
50.47000 17.0
50.48000 16.0
50.49000 19.0
50.50000 13.0
50.51000 11.0
50.52000 15.0
50.53000 10.0
50.54000 17.0
50.55000 7.0
50.56000 10.0
50.57000 11.0
50.58000 12.0
50.59000 15.0
50.60000 9.0
50.61000 9.0
50.62000 12.0
50.63000 9.0
50.64000 9.0
50.65000 4.0
50.66000 4.0
50.67000 9.0
50.68000 6.0
50.69000 7.0
50.70000 6.0
50.71000 4.0
50.72000 5.0
50.73000 8.0
50.74000 6.0
50.75000 4.0
50.76000 4.0
50.77000 4.0
50.78000 3.0
50.79000 5.0
50.80000 7.0
50.81000 5.0
50.82000 4.0
50.83000 4.0
50.84000 6.0
50.85000 9.0
50.86000 5.0
50.87000 5.0
50.88000 12.0
50.89000 5.0
50.90000 5.0
50.91000 4.0
50.92000 6.0
50.93000 0.0
50.94000 3.0
50.95000 1.0
50.96000 6.0
50.97000 3.0
50.98000 6.0
50.99000 4.0
51.00000 2.0
51.01000 5.0
51.02000 8.0
51.03000 4.0
51.04000 4.0
51.05000 5.0
51.06000 5.0
51.07000 4.0
51.08000 1.0
51.09000 4.0
51.10000 9.0
51.11000 5.0
51.12000 5.0
51.13000 2.0
51.14000 5.0
51.15000 0.0
51.16000 4.0
51.17000 5.0
51.18000 6.0
51.19000 3.0
51.20000 2.0
51.21000 2.0
51.22000 3.0
51.23000 6.0
51.24000 4.0
51.25000 3.0
51.26000 5.0
51.27000 3.0
51.28000 5.0
51.29000 3.0
51.30000 8.0
51.31000 4.0
51.32000 2.0
51.33000 4.0
51.34000 8.0
51.35000 10.0
51.36000 7.0
51.37000 4.0
51.38000 5.0
51.39000 5.0
51.40000 5.0
51.41000 7.0
51.42000 5.0
51.43000 8.0
51.44000 6.0
51.45000 10.0
51.46000 7.0
51.47000 4.0
51.48000 2.0
51.49000 5.0
51.50000 7.0
51.51000 2.0
51.52000 10.0
51.53000 9.0
51.54000 4.0
51.55000 14.0
51.56000 11.0
51.57000 6.0
51.58000 12.0
51.59000 11.0
51.60000 13.0
51.61000 14.0
51.62000 5.0
51.63000 12.0
51.64000 11.0
51.65000 6.0
51.66000 11.0
51.67000 7.0
51.68000 14.0
51.69000 11.0
51.70000 10.0
51.71000 11.0
51.72000 17.0
51.73000 9.0
51.74000 13.0
51.75000 9.0
51.76000 15.0
51.77000 9.0
51.78000 13.0
51.79000 9.0
51.80000 13.0
51.81000 13.0
51.82000 15.0
51.83000 10.0
51.84000 18.0
51.85000 19.0
51.86000 15.0
51.87000 21.0
51.88000 20.0
51.89000 21.0
51.90000 16.0
51.91000 21.0
51.92000 27.0
51.93000 28.0
51.94000 27.0
51.95000 20.0
51.96000 29.0
51.97000 25.0
51.98000 21.0
51.99000 28.0
52.00000 25.0
52.01000 42.0
52.02000 37.0
52.03000 26.0
52.04000 31.0
52.05000 38.0
52.06000 25.0
52.07000 36.0
52.08000 43.0
52.09000 44.0
52.10000 50.0
52.11000 42.0
52.12000 34.0
52.13000 47.0
52.14000 46.0
52.15000 47.0
52.16000 52.0
52.17000 60.0
52.18000 58.0
52.19000 59.0
52.20000 79.0
52.21000 75.0
52.22000 79.0
52.23000 114.0
52.24000 94.0
52.25000 126.0
52.26000 149.0
52.27000 187.0
52.28000 184.0
52.29000 240.0
52.30000 239.0
52.31000 258.0
52.32000 305.0
52.33000 316.0
52.34000 324.0
52.35000 323.0
52.36000 313.0
52.37000 321.0
52.38000 329.0
52.39000 370.0
52.40000 370.0
52.41000 424.0
52.42000 442.0
52.43000 523.0
52.44000 611.0
52.45000 729.0
52.46000 868.0
52.47000 1155.0
52.48000 1526.0
52.49000 1992.0
52.50000 3236.0
52.51000 5262.0
52.52000 10683.0
52.53000 21479.0
52.54000 32054.0
52.55000 30982.0
52.56000 19428.0
52.57000 10068.0
52.58000 5266.0
52.59000 3161.0
52.60000 2287.0
52.61000 1776.0
52.62000 1786.0
52.63000 1807.0
52.64000 2414.0
52.65000 3466.0
52.66000 6369.0
52.67000 10877.0
52.68000 15186.0
52.69000 15102.0
52.70000 10709.0
52.71000 6038.0
52.72000 3240.0
52.73000 1969.0
52.74000 1367.0
52.75000 1006.0
52.76000 831.0
52.77000 694.0
52.78000 628.0
52.79000 562.0
52.80000 497.0
52.81000 482.0
52.82000 471.0
52.83000 387.0
52.84000 339.0
52.85000 346.0
52.86000 291.0
52.87000 256.0
52.88000 238.0
52.89000 247.0
52.90000 227.0
52.91000 182.0
52.92000 181.0
52.93000 201.0
52.94000 183.0
52.95000 182.0
52.96000 153.0
52.97000 153.0
52.98000 145.0
52.99000 127.0
53.00000 100.0
53.01000 86.0
53.02000 84.0
53.03000 73.0
53.04000 81.0
53.05000 72.0
53.06000 54.0
53.07000 60.0
53.08000 49.0
53.09000 63.0
53.10000 52.0
53.11000 63.0
53.12000 43.0
53.13000 40.0
53.14000 46.0
53.15000 53.0
53.16000 40.0
53.17000 47.0
53.18000 52.0
53.19000 36.0
53.20000 28.0
53.21000 32.0
53.22000 46.0
53.23000 33.0
53.24000 43.0
53.25000 23.0
53.26000 38.0
53.27000 24.0
53.28000 30.0
53.29000 37.0
53.30000 28.0
53.31000 38.0
53.32000 26.0
53.33000 37.0
53.34000 26.0
53.35000 20.0
53.36000 30.0
53.37000 29.0
53.38000 23.0
53.39000 22.0
53.40000 30.0
53.41000 24.0
53.42000 20.0
53.43000 34.0
53.44000 26.0
53.45000 22.0
53.46000 32.0
53.47000 30.0
53.48000 17.0
53.49000 23.0
53.50000 21.0
53.51000 23.0
53.52000 18.0
53.53000 15.0
53.54000 20.0
53.55000 31.0
53.56000 17.0
53.57000 14.0
53.58000 18.0
53.59000 13.0
53.60000 21.0
53.61000 14.0
53.62000 13.0
53.63000 10.0
53.64000 13.0
53.65000 16.0
53.66000 9.0
53.67000 8.0
53.68000 17.0
53.69000 16.0
53.70000 9.0
53.71000 14.0
53.72000 15.0
53.73000 9.0
53.74000 12.0
53.75000 16.0
53.76000 17.0
53.77000 11.0
53.78000 7.0
53.79000 9.0
53.80000 14.0
53.81000 5.0
53.82000 10.0
53.83000 9.0
53.84000 3.0
53.85000 7.0
53.86000 4.0
53.87000 11.0
53.88000 13.0
53.89000 7.0
53.90000 5.0
53.91000 9.0
53.92000 8.0
53.93000 6.0
53.94000 6.0
53.95000 2.0
53.96000 9.0
53.97000 8.0
53.98000 8.0
53.99000 8.0
54.00000 7.0
54.01000 12.0
54.02000 8.0
54.03000 3.0
54.04000 6.0
54.05000 6.0
54.06000 6.0
54.07000 12.0
54.08000 11.0
54.09000 11.0
54.10000 6.0
54.11000 7.0
54.12000 8.0
54.13000 7.0
54.14000 3.0
54.15000 6.0
54.16000 6.0
54.17000 3.0
54.18000 4.0
54.19000 3.0
54.20000 8.0
54.21000 7.0
54.22000 3.0
54.23000 5.0
54.24000 6.0
54.25000 5.0
54.26000 7.0
54.27000 3.0
54.28000 5.0
54.29000 5.0
54.30000 4.0
54.31000 7.0
54.32000 2.0
54.33000 4.0
54.34000 5.0
54.35000 2.0
54.36000 2.0
54.37000 3.0
54.38000 2.0
54.39000 6.0
54.40000 3.0
54.41000 3.0
54.42000 2.0
54.43000 1.0
54.44000 2.0
54.45000 1.0
54.46000 4.0
54.47000 1.0
54.48000 6.0
54.49000 2.0
54.50000 5.0
54.51000 3.0
54.52000 4.0
54.53000 3.0
54.54000 3.0
54.55000 0.0
54.56000 3.0
54.57000 5.0
54.58000 4.0
54.59000 4.0
54.60000 4.0
54.61000 2.0
54.62000 4.0
54.63000 1.0
54.64000 3.0
54.65000 5.0
54.66000 1.0
54.67000 6.0
54.68000 4.0
54.69000 2.0
54.70000 2.0
54.71000 1.0
54.72000 3.0
54.73000 3.0
54.74000 3.0
54.75000 2.0
54.76000 2.0
54.77000 1.0
54.78000 2.0
54.79000 1.0
54.80000 1.0
54.81000 2.0
54.82000 2.0
54.83000 4.0
54.84000 0.0
54.85000 1.0
54.86000 5.0
54.87000 1.0
54.88000 2.0
54.89000 5.0
54.90000 3.0
54.91000 3.0
54.92000 1.0
54.93000 4.0
54.94000 1.0
54.95000 4.0
54.96000 0.0
54.97000 1.0
54.98000 1.0
54.99000 4.0