File: data/W6911r/XRD_2ThetaOmega/w6911r_scan_2th-om_r2_Cr2O3_45-55deg_PIXscan_5min_C1.xy
45.0025 133.0
45.0123 101.0
45.0222 103.0
45.032 121.0
45.0419 113.0
45.0517 106.0
45.0615 107.0
45.0714 117.0
45.0812 99.0
45.0911 103.0
45.1009 99.0
45.1108 128.0
45.1206 114.0
45.1305 97.0
45.1403 95.0
45.1502 117.0
45.16 113.0
45.1699 99.0
45.1797 123.0
45.1896 107.0
45.1994 98.0
45.2093 121.0
45.2191 89.0
45.229 118.0
45.2388 99.0
45.2487 110.0
45.2585 91.0
45.2684 105.0
45.2782 104.0
45.288 106.0
45.2979 98.0
45.3077 119.0
45.3176 111.0
45.3274 94.0
45.3373 79.0
45.3471 87.0
45.357 112.0
45.3668 96.0
45.3767 90.0
45.3865 96.0
45.3964 83.0
45.4062 115.0
45.4161 106.0
45.4259 104.0
45.4358 108.0
45.4456 96.0
45.4555 107.0
45.4653 102.0
45.4752 92.0
45.485 106.0
45.4948 115.0
45.5047 101.0
45.5145 111.0
45.5244 110.0
45.5342 81.0
45.5441 86.0
45.5539 92.0
45.5638 120.0
45.5736 108.0
45.5835 107.0
45.5933 105.0
45.6032 104.0
45.613 96.0
45.6229 98.0
45.6327 84.0
45.6426 94.0
45.6524 105.0
45.6623 88.0
45.6721 100.0
45.682 111.0
45.6918 88.0
45.7016 94.0
45.7115 115.0
45.7213 93.0
45.7312 110.0
45.741 81.0
45.7509 104.0
45.7607 85.0
45.7706 91.0
45.7804 98.0
45.7903 112.0
45.8001 93.0
45.81 94.0
45.8198 86.0
45.8297 103.0
45.8395 113.0
45.8494 118.0
45.8592 93.0
45.8691 105.0
45.8789 95.0
45.8888 97.0
45.8986 103.0
45.9085 87.0
45.9183 92.0
45.9281 75.0
45.938 109.0
45.9478 89.0
45.9577 95.0
45.9675 86.0
45.9774 97.0
45.9872 97.0
45.9971 106.0
46.0069 80.0
46.0168 83.0
46.0266 103.0
46.0365 95.0
46.0463 100.0
46.0562 113.0
46.066 92.0
46.0759 91.0
46.0857 110.0
46.0956 91.0
46.1054 96.0
46.1153 112.0
46.1251 99.0
46.1349 78.0
46.1448 108.0
46.1546 93.0
46.1645 84.0
46.1743 87.0
46.1842 88.0
46.194 124.0
46.2039 95.0
46.2137 90.0
46.2236 89.0
46.2334 93.0
46.2433 97.0
46.2531 102.0
46.263 110.0
46.2728 82.0
46.2827 101.0
46.2925 103.0
46.3024 94.0
46.3122 95.0
46.3221 99.0
46.3319 90.0
46.3418 108.0
46.3516 80.0
46.3614 94.0
46.3713 88.0
46.3811 94.0
46.391 122.0
46.4008 92.0
46.4107 76.0
46.4205 90.0
46.4304 99.0
46.4402 105.0
46.4501 95.0
46.4599 109.0
46.4698 98.0
46.4796 93.0
46.4895 96.0
46.4993 109.0
46.5092 93.0
46.519 100.0
46.5289 110.0
46.5387 96.0
46.5486 91.0
46.5584 126.0
46.5682 107.0
46.5781 125.0
46.5879 105.0
46.5978 118.0
46.6076 74.0
46.6175 112.0
46.6273 88.0
46.6372 113.0
46.647 94.0
46.6569 108.0
46.6667 106.0
46.6766 110.0
46.6864 115.0
46.6963 133.0
46.7061 115.0
46.716 122.0
46.7258 101.0
46.7357 118.0
46.7455 125.0
46.7554 103.0
46.7652 101.0
46.7751 143.0
46.7849 107.0
46.7947 133.0
46.8046 104.0
46.8144 130.0
46.8243 111.0
46.8341 117.0
46.844 105.0
46.8538 108.0
46.8637 123.0
46.8735 118.0
46.8834 125.0
46.8932 127.0
46.9031 121.0
46.9129 109.0
46.9228 126.0
46.9326 123.0
46.9425 109.0
46.9523 125.0
46.9622 130.0
46.972 151.0
46.9819 139.0
46.9917 117.0
47.0015 132.0
47.0114 160.0
47.0212 196.0
47.0311 205.0
47.0409 268.0
47.0508 371.0
47.0606 561.0
47.0705 807.0
47.0803 1243.0
47.0902 1507.0
47.1 1690.0
47.1099 1767.0
47.1197 1638.0
47.1296 1383.0
47.1394 1061.0
47.1493 713.0
47.1591 555.0
47.169 410.0
47.1788 333.0
47.1887 283.0
47.1985 226.0
47.2083 221.0
47.2182 166.0
47.228 194.0
47.2379 151.0
47.2477 153.0
47.2576 153.0
47.2674 160.0
47.2773 154.0
47.2871 168.0
47.297 166.0
47.3068 140.0
47.3167 121.0
47.3265 140.0
47.3364 128.0
47.3462 154.0
47.3561 122.0
47.3659 139.0
47.3758 121.0
47.3856 136.0
47.3955 122.0
47.4053 122.0
47.4152 128.0
47.425 147.0
47.4348 111.0
47.4447 115.0
47.4545 120.0
47.4644 130.0
47.4742 122.0
47.4841 122.0
47.4939 132.0
47.5038 120.0
47.5136 117.0
47.5235 127.0
47.5333 123.0
47.5432 127.0
47.553 110.0
47.5629 121.0
47.5727 127.0
47.5826 121.0
47.5924 123.0
47.6023 105.0
47.6121 114.0
47.622 124.0
47.6318 92.0
47.6416 102.0
47.6515 118.0
47.6613 98.0
47.6712 111.0
47.681 99.0
47.6909 112.0
47.7007 120.0
47.7106 113.0
47.7204 115.0
47.7303 132.0
47.7401 102.0
47.75 80.0
47.7598 95.0
47.7697 109.0
47.7795 102.0
47.7894 110.0
47.7992 98.0
47.8091 113.0
47.8189 117.0
47.8288 119.0
47.8386 94.0
47.8485 115.0
47.8583 108.0
47.8681 122.0
47.878 124.0
47.8878 102.0
47.8977 114.0
47.9075 118.0
47.9174 92.0
47.9272 107.0
47.9371 100.0
47.9469 124.0
47.9568 127.0
47.9666 111.0
47.9765 125.0
47.9863 108.0
47.9962 132.0
48.006 112.0
48.0159 120.0
48.0257 120.0
48.0356 144.0
48.0454 124.0
48.0553 114.0
48.0651 110.0
48.0749 120.0
48.0848 101.0
48.0946 125.0
48.1045 109.0
48.1143 109.0
48.1242 111.0
48.134 106.0
48.1439 117.0
48.1537 117.0
48.1636 119.0
48.1734 100.0
48.1833 120.0
48.1931 114.0
48.203 105.0
48.2128 103.0
48.2227 104.0
48.2325 114.0
48.2424 116.0
48.2522 123.0
48.2621 110.0
48.2719 122.0
48.2818 126.0
48.2916 149.0
48.3014 115.0
48.3113 115.0
48.3211 128.0
48.331 117.0
48.3408 106.0
48.3507 130.0
48.3605 93.0
48.3704 120.0
48.3802 93.0
48.3901 119.0
48.3999 132.0
48.4098 103.0
48.4196 124.0
48.4295 129.0
48.4393 110.0
48.4492 129.0
48.459 114.0
48.4689 115.0
48.4787 117.0
48.4886 115.0
48.4984 127.0
48.5082 137.0
48.5181 123.0
48.5279 115.0
48.5378 126.0
48.5476 133.0
48.5575 110.0
48.5673 124.0
48.5772 107.0
48.587 111.0
48.5969 113.0
48.6067 123.0
48.6166 119.0
48.6264 134.0
48.6363 134.0
48.6461 106.0
48.656 120.0
48.6658 141.0
48.6757 131.0
48.6855 117.0
48.6954 115.0
48.7052 110.0
48.715 116.0
48.7249 137.0
48.7347 116.0
48.7446 107.0
48.7544 134.0
48.7643 106.0
48.7741 120.0
48.784 114.0
48.7938 122.0
48.8037 138.0
48.8135 129.0
48.8234 116.0
48.8332 137.0
48.8431 129.0
48.8529 124.0
48.8628 125.0
48.8726 119.0
48.8825 135.0
48.8923 147.0
48.9022 119.0
48.912 121.0
48.9219 116.0
48.9317 131.0
48.9415 133.0
48.9514 139.0
48.9612 130.0
48.9711 137.0
48.9809 122.0
48.9908 112.0
49.0006 141.0
49.0105 150.0
49.0203 132.0
49.0302 151.0
49.04 131.0
49.0499 132.0
49.0597 155.0
49.0696 135.0
49.0794 153.0
49.0893 139.0
49.0991 162.0
49.109 136.0
49.1188 136.0
49.1287 134.0
49.1385 139.0
49.1483 146.0
49.1582 128.0
49.168 150.0
49.1779 148.0
49.1877 136.0
49.1976 132.0
49.2074 144.0
49.2173 130.0
49.2271 141.0
49.237 143.0
49.2468 150.0
49.2567 166.0
49.2665 130.0
49.2764 174.0
49.2862 163.0
49.2961 146.0
49.3059 145.0
49.3158 183.0
49.3256 153.0
49.3355 186.0
49.3453 186.0
49.3552 169.0
49.365 207.0
49.3748 181.0
49.3847 182.0
49.3945 178.0
49.4044 185.0
49.4142 201.0
49.4241 181.0
49.4339 185.0
49.4438 206.0
49.4536 196.0
49.4635 191.0
49.4733 180.0
49.4832 220.0
49.493 221.0
49.5029 234.0
49.5127 226.0
49.5226 262.0
49.5324 241.0
49.5423 260.0
49.5521 256.0
49.562 248.0
49.5718 289.0
49.5816 299.0
49.5915 310.0
49.6013 323.0
49.6112 313.0
49.621 317.0
49.6309 347.0
49.6407 376.0
49.6506 378.0
49.6604 372.0
49.6703 418.0
49.6801 436.0
49.69 477.0
49.6998 449.0
49.7097 504.0
49.7195 521.0
49.7294 549.0
49.7392 525.0
49.7491 604.0
49.7589 599.0
49.7688 636.0
49.7786 689.0
49.7884 700.0
49.7983 729.0
49.8081 721.0
49.818 804.0
49.8278 845.0
49.8377 796.0
49.8475 871.0
49.8574 942.0
49.8672 960.0
49.8771 1011.0
49.8869 1066.0
49.8968 1138.0
49.9066 1175.0
49.9165 1164.0
49.9263 1268.0
49.9362 1386.0
49.946 1461.0
49.9559 1571.0
49.9657 1581.0
49.9756 1630.0
49.9854 1690.0
49.9953 1812.0
50.0051 1854.0
50.0149 1930.0
50.0248 1950.0
50.0346 2016.0
50.0445 2100.0
50.0543 2125.0
50.0642 2190.0
50.074 2273.0
50.0839 2271.0
50.0937 2325.0
50.1036 2302.0
50.1134 2422.0
50.1233 2358.0
50.1331 2350.0
50.143 2385.0
50.1528 2318.0
50.1627 2370.0
50.1725 2318.0
50.1824 2302.0
50.1922 2296.0
50.2021 2400.0
50.2119 2219.0
50.2217 2132.0
50.2316 2114.0
50.2414 2054.0
50.2513 1970.0
50.2611 1943.0
50.271 1847.0
50.2808 1834.0
50.2907 1747.0
50.3005 1648.0
50.3104 1605.0
50.3202 1592.0
50.3301 1463.0
50.3399 1428.0
50.3498 1399.0
50.3596 1356.0
50.3695 1292.0
50.3793 1243.0
50.3892 1106.0
50.399 1088.0
50.4089 1037.0
50.4187 960.0
50.4286 1001.0
50.4384 871.0
50.4482 873.0
50.4581 801.0
50.4679 835.0
50.4778 761.0
50.4876 712.0
50.4975 677.0
50.5073 612.0
50.5172 610.0
50.527 592.0
50.5369 612.0
50.5467 581.0
50.5566 554.0
50.5664 479.0
50.5763 524.0
50.5861 495.0
50.596 448.0
50.6058 443.0
50.6157 439.0
50.6255 415.0
50.6354 416.0
50.6452 375.0
50.655 380.0
50.6649 339.0
50.6747 390.0
50.6846 337.0
50.6944 320.0
50.7043 366.0
50.7141 326.0
50.724 337.0
50.7338 317.0
50.7437 338.0
50.7535 301.0
50.7634 323.0
50.7732 334.0
50.7831 307.0
50.7929 294.0
50.8028 326.0
50.8126 284.0
50.8225 297.0
50.8323 314.0
50.8422 313.0
50.852 273.0
50.8619 303.0
50.8717 302.0
50.8815 277.0
50.8914 283.0
50.9012 302.0
50.9111 292.0
50.9209 290.0
50.9308 322.0
50.9406 285.0
50.9505 278.0
50.9603 266.0
50.9702 309.0
50.98 300.0
50.9899 279.0
50.9997 306.0
51.0096 285.0
51.0194 325.0
51.0293 292.0
51.0391 333.0
51.049 298.0
51.0588 307.0
51.0687 266.0
51.0785 324.0
51.0883 318.0
51.0982 328.0
51.108 360.0
51.1179 347.0
51.1277 310.0
51.1376 333.0
51.1474 350.0
51.1573 340.0
51.1671 348.0
51.177 338.0
51.1868 348.0
51.1967 333.0
51.2065 366.0
51.2164 401.0
51.2262 379.0
51.2361 394.0
51.2459 386.0
51.2558 356.0
51.2656 371.0
51.2755 388.0
51.2853 379.0
51.2951 368.0
51.305 390.0
51.3148 391.0
51.3247 397.0
51.3345 421.0
51.3444 421.0
51.3542 396.0
51.3641 448.0
51.3739 427.0
51.3838 407.0
51.3936 435.0
51.4035 405.0
51.4133 496.0
51.4232 424.0
51.433 464.0
51.4429 465.0
51.4527 462.0
51.4626 457.0
51.4724 468.0
51.4823 475.0
51.4921 508.0
51.502 475.0
51.5118 486.0
51.5216 515.0
51.5315 487.0
51.5413 508.0
51.5512 501.0
51.561 570.0
51.5709 557.0
51.5807 516.0
51.5906 564.0
51.6004 471.0
51.6103 521.0
51.6201 564.0
51.63 557.0
51.6398 550.0
51.6497 613.0
51.6595 584.0
51.6694 580.0
51.6792 635.0
51.6891 617.0
51.6989 644.0
51.7088 631.0
51.7186 596.0
51.7284 690.0
51.7383 676.0
51.7481 630.0
51.758 669.0
51.7678 643.0
51.7777 682.0
51.7875 672.0
51.7974 680.0
51.8072 698.0
51.8171 697.0
51.8269 706.0
51.8368 722.0
51.8466 731.0
51.8565 780.0
51.8663 755.0
51.8762 776.0
51.886 812.0
51.8959 808.0
51.9057 841.0
51.9156 852.0
51.9254 846.0
51.9353 841.0
51.9451 856.0
51.9549 912.0
51.9648 888.0
51.9746 932.0
51.9845 918.0
51.9943 1007.0
52.0042 1069.0
52.014 1021.0
52.0239 1080.0
52.0337 1108.0
52.0436 1161.0
52.0534 1179.0
52.0633 1224.0
52.0731 1280.0
52.083 1226.0
52.0928 1351.0
52.1027 1347.0
52.1125 1369.0
52.1224 1532.0
52.1322 1618.0
52.1421 1739.0
52.1519 1812.0
52.1617 1852.0
52.1716 2074.0
52.1814 2373.0
52.1913 2724.0
52.2011 2909.0
52.211 3414.0
52.2208 3726.0
52.2307 4217.0
52.2405 4548.0
52.2504 4820.0
52.2602 5139.0
52.2701 5258.0
52.2799 5118.0
52.2898 5156.0
52.2996 4980.0
52.3095 5016.0
52.3193 5069.0
52.3292 5150.0
52.339 5484.0
52.3489 5722.0
52.3587 6262.0
52.3686 7172.0
52.3784 8232.0
52.3882 9504.0
52.3981 11482.0
52.4079 14332.0
52.4178 18194.0
52.4276 24758.0
52.4375 35752.0
52.4473 57210.0
52.4572 109006.0
52.467 228946.0
52.4769 356453.0
52.4867 412938.0
52.4966 435347.0
52.5064 432189.0
52.5163 381471.0
52.5261 250280.0
52.536 129623.0
52.5458 73814.0
52.5557 46908.0
52.5655 36097.0
52.5754 33961.0
52.5852 39621.0
52.595 58685.0
52.6049 105948.0
52.6147 165869.0
52.6246 204795.0
52.6344 219365.0
52.6443 217723.0
52.6541 196878.0
52.664 144179.0
52.6738 83680.0
52.6837 45672.0
52.6935 27509.0
52.7034 18408.0
52.7132 13529.0
52.7231 10559.0
52.7329 8651.0
52.7428 7411.0
52.7526 6469.0
52.7625 5805.0
52.7723 5249.0
52.7822 4725.0
52.792 4259.0
52.8018 3905.0
52.8117 3671.0
52.8215 3358.0
52.8314 3042.0
52.8412 3061.0
52.8511 2735.0
52.8609 2608.0
52.8708 2398.0
52.8806 2447.0
52.8905 2218.0
52.9003 2173.0
52.9102 1910.0
52.92 1962.0
52.9299 1805.0
52.9397 1723.0
52.9496 1604.0
52.9594 1595.0
52.9693 1545.0
52.9791 1414.0
52.989 1369.0
52.9988 1343.0
53.0087 1288.0
53.0185 1269.0
53.0283 1167.0
53.0382 1174.0
53.048 1157.0
53.0579 1112.0
53.0677 1076.0
53.0776 1060.0
53.0874 1013.0
53.0973 984.0
53.1071 985.0
53.117 868.0
53.1268 896.0
53.1367 877.0
53.1465 815.0
53.1564 848.0
53.1662 828.0
53.1761 808.0
53.1859 772.0
53.1958 725.0
53.2056 755.0
53.2155 693.0
53.2253 713.0
53.2351 684.0
53.245 700.0
53.2548 638.0
53.2647 728.0
53.2745 653.0
53.2844 608.0
53.2942 609.0
53.3041 571.0
53.3139 598.0
53.3238 613.0
53.3336 573.0
53.3435 540.0
53.3533 531.0
53.3632 548.0
53.373 553.0
53.3829 527.0
53.3927 524.0
53.4026 486.0
53.4124 481.0
53.4223 455.0
53.4321 484.0
53.442 435.0
53.4518 440.0
53.4616 417.0
53.4715 451.0
53.4813 426.0
53.4912 398.0
53.501 414.0
53.5109 392.0
53.5207 386.0
53.5306 419.0
53.5404 395.0
53.5503 383.0
53.5601 338.0
53.57 354.0
53.5798 310.0
53.5897 338.0
53.5995 354.0
53.6094 319.0
53.6192 315.0
53.6291 334.0
53.6389 305.0
53.6488 293.0
53.6586 314.0
53.6684 293.0
53.6783 291.0
53.6881 286.0
53.698 286.0
53.7078 278.0
53.7177 259.0
53.7275 261.0
53.7374 227.0
53.7472 281.0
53.7571 284.0
53.7669 226.0
53.7768 258.0
53.7866 217.0
53.7965 201.0
53.8063 219.0
53.8162 215.0
53.826 231.0
53.8359 255.0
53.8457 227.0
53.8556 210.0
53.8654 259.0
53.8753 181.0
53.8851 226.0
53.8949 184.0
53.9048 206.0
53.9146 161.0
53.9245 177.0
53.9343 177.0
53.9442 198.0
53.954 211.0
53.9639 186.0
53.9737 165.0
53.9836 173.0
53.9934 187.0
54.0033 193.0
54.0131 184.0
54.023 176.0
54.0328 185.0
54.0427 171.0
54.0525 178.0
54.0624 179.0
54.0722 170.0
54.0821 183.0
54.0919 159.0
54.1017 132.0
54.1116 175.0
54.1214 183.0
54.1313 179.0
54.1411 166.0
54.151 169.0
54.1608 168.0
54.1707 161.0
54.1805 166.0
54.1904 159.0
54.2002 152.0
54.2101 165.0
54.2199 186.0
54.2298 158.0
54.2396 175.0
54.2495 170.0
54.2593 160.0
54.2692 166.0
54.279 157.0
54.2889 163.0
54.2987 157.0
54.3085 158.0
54.3184 161.0
54.3282 159.0
54.3381 145.0
54.3479 124.0
54.3578 123.0
54.3676 153.0
54.3775 151.0
54.3873 146.0
54.3972 158.0
54.407 141.0
54.4169 152.0
54.4267 155.0
54.4366 182.0
54.4464 150.0
54.4563 161.0
54.4661 149.0
54.476 154.0
54.4858 169.0
54.4957 149.0
54.5055 136.0
54.5154 122.0
54.5252 158.0
54.535 128.0
54.5449 145.0
54.5547 137.0
54.5646 142.0
54.5744 150.0
54.5843 142.0
54.5941 122.0
54.604 145.0
54.6138 141.0
54.6237 144.0
54.6335 150.0
54.6434 127.0
54.6532 142.0
54.6631 142.0
54.6729 144.0
54.6828 121.0
54.6926 153.0
54.7025 135.0
54.7123 146.0
54.7222 131.0
54.732 151.0
54.7418 146.0
54.7517 147.0
54.7615 121.0
54.7714 123.0
54.7812 129.0
54.7911 132.0
54.8009 129.0
54.8108 137.0
54.8206 103.0
54.8305 143.0
54.8403 127.0
54.8502 149.0
54.86 134.0
54.8699 126.0
54.8797 120.0
54.8896 123.0
54.8994 131.0
54.9093 115.0
54.9191 158.0
54.929 119.0
54.9388 126.0
54.9487 138.0
54.9585 121.0
54.9683 118.0
54.9782 119.0
54.988 155.0
54.9979 121.0