File: data/W6854r/XRD_2ThetaOmega/W6854r_absolute_2th-om_10-130deg_PIXscan_17min_6.xy
10.0035 19.0
10.0872 30.0
10.1709 16.0
10.2546 22.0
10.3383 28.0
10.422 26.0
10.5057 30.0
10.5894 15.0
10.6731 19.0
10.7568 26.0
10.8405 29.0
10.9242 26.0
11.0079 25.0
11.0916 23.0
11.1753 24.0
11.259 20.0
11.3428 21.0
11.4265 14.0
11.5102 26.0
11.5939 17.0
11.6776 18.0
11.7613 23.0
11.845 22.0
11.9287 22.0
12.0124 20.0
12.0961 23.0
12.1798 18.0
12.2635 11.0
12.3472 22.0
12.4309 21.0
12.5146 27.0
12.5983 21.0
12.682 21.0
12.7657 23.0
12.8495 18.0
12.9332 17.0
13.0169 16.0
13.1006 21.0
13.1843 14.0
13.268 22.0
13.3517 9.0
13.4354 25.0
13.5191 21.0
13.6028 17.0
13.6865 19.0
13.7702 17.0
13.8539 16.0
13.9376 15.0
14.0213 22.0
14.105 17.0
14.1887 14.0
14.2724 17.0
14.3562 16.0
14.4399 13.0
14.5236 15.0
14.6073 21.0
14.691 13.0
14.7747 19.0
14.8584 18.0
14.9421 16.0
15.0258 18.0
15.1095 18.0
15.1932 12.0
15.2769 13.0
15.3606 10.0
15.4443 22.0
15.528 18.0
15.6117 16.0
15.6954 21.0
15.7791 19.0
15.8629 9.0
15.9466 12.0
16.0303 16.0
16.114 18.0
16.1977 13.0
16.2814 16.0
16.3651 12.0
16.4488 25.0
16.5325 21.0
16.6162 13.0
16.6999 17.0
16.7836 19.0
16.8673 15.0
16.951 23.0
17.0347 14.0
17.1184 18.0
17.2021 22.0
17.2858 14.0
17.3696 20.0
17.4533 27.0
17.537 14.0
17.6207 10.0
17.7044 20.0
17.7881 19.0
17.8718 12.0
17.9555 11.0
18.0392 22.0
18.1229 26.0
18.2066 18.0
18.2903 9.0
18.374 5.0
18.4577 15.0
18.5414 16.0
18.6251 7.0
18.7088 15.0
18.7925 16.0
18.8763 16.0
18.96 16.0
19.0437 19.0
19.1274 13.0
19.2111 23.0
19.2948 16.0
19.3785 12.0
19.4622 16.0
19.5459 14.0
19.6296 15.0
19.7133 18.0
19.797 19.0
19.8807 13.0
19.9644 15.0
20.0481 12.0
20.1318 13.0
20.2155 10.0
20.2992 15.0
20.383 14.0
20.4667 18.0
20.5504 13.0
20.6341 16.0
20.7178 13.0
20.8015 15.0
20.8852 9.0
20.9689 15.0
21.0526 19.0
21.1363 23.0
21.22 12.0
21.3037 11.0
21.3874 20.0
21.4711 13.0
21.5548 16.0
21.6385 16.0
21.7222 15.0
21.8059 25.0
21.8897 12.0
21.9734 15.0
22.0571 10.0
22.1408 8.0
22.2245 15.0
22.3082 18.0
22.3919 15.0
22.4756 14.0
22.5593 14.0
22.643 17.0
22.7267 19.0
22.8104 12.0
22.8941 19.0
22.9778 19.0
23.0615 40.0
23.1452 21.0
23.2289 22.0
23.3126 13.0
23.3964 25.0
23.4801 22.0
23.5638 29.0
23.6475 23.0
23.7312 22.0
23.8149 21.0
23.8986 28.0
23.9823 22.0
24.066 22.0
24.1497 24.0
24.2334 8.0
24.3171 31.0
24.4008 68.0
24.4845 132.0
24.5682 33.0
24.6519 68.0
24.7356 26.0
24.8193 36.0
24.9031 35.0
24.9868 58.0
25.0705 55.0
25.1542 90.0
25.2379 90.0
25.3216 157.0
25.4053 599.0
25.489 5728.0
25.5727 21979.0
25.6564 1090.0
25.7401 386.0
25.8238 274.0
25.9075 204.0
25.9912 159.0
26.0749 114.0
26.1586 117.0
26.2423 75.0
26.326 59.0
26.4098 53.0
26.4935 35.0
26.5772 37.0
26.6609 31.0
26.7446 31.0
26.8283 21.0
26.912 29.0
26.9957 19.0
27.0794 25.0
27.1631 15.0
27.2468 22.0
27.3305 10.0
27.4142 11.0
27.4979 13.0
27.5816 17.0
27.6653 22.0
27.749 9.0
27.8327 25.0
27.9165 21.0
28.0002 16.0
28.0839 18.0
28.1676 15.0
28.2513 18.0
28.335 8.0
28.4187 15.0
28.5024 11.0
28.5861 22.0
28.6698 9.0
28.7535 19.0
28.8372 9.0
28.9209 15.0
29.0046 9.0
29.0883 11.0
29.172 18.0
29.2557 15.0
29.3394 11.0
29.4232 11.0
29.5069 13.0
29.5906 13.0
29.6743 6.0
29.758 9.0
29.8417 16.0
29.9254 19.0
30.0091 12.0
30.0928 18.0
30.1765 10.0
30.2602 9.0
30.3439 13.0
30.4276 18.0
30.5113 13.0
30.595 9.0
30.6787 13.0
30.7624 11.0
30.8461 12.0
30.9298 10.0
31.0136 5.0
31.0973 12.0
31.181 13.0
31.2647 14.0
31.3484 12.0
31.4321 11.0
31.5158 11.0
31.5995 14.0
31.6832 17.0
31.7669 16.0
31.8506 10.0
31.9343 11.0
32.018 14.0
32.1017 14.0
32.1854 6.0
32.2691 15.0
32.3528 7.0
32.4365 12.0
32.5203 8.0
32.604 10.0
32.6877 11.0
32.7714 12.0
32.8551 11.0
32.9388 9.0
33.0225 11.0
33.1062 11.0
33.1899 12.0
33.2736 6.0
33.3573 11.0
33.441 11.0
33.5247 11.0
33.6084 13.0
33.6921 19.0
33.7758 17.0
33.8595 12.0
33.9432 1.0
34.027 15.0
34.1107 12.0
34.1944 17.0
34.2781 10.0
34.3618 15.0
34.4455 8.0
34.5292 20.0
34.6129 13.0
34.6966 10.0
34.7803 13.0
34.864 3.0
34.9477 11.0
35.0314 16.0
35.1151 10.0
35.1988 2.0
35.2825 12.0
35.3662 3.0
35.4499 14.0
35.5337 17.0
35.6174 9.0
35.7011 16.0
35.7848 15.0
35.8685 15.0
35.9522 9.0
36.0359 9.0
36.1196 12.0
36.2033 11.0
36.287 9.0
36.3707 12.0
36.4544 9.0
36.5381 15.0
36.6218 12.0
36.7055 12.0
36.7892 13.0
36.8729 12.0
36.9566 12.0
37.0404 11.0
37.1241 11.0
37.2078 9.0
37.2915 13.0
37.3752 11.0
37.4589 9.0
37.5426 14.0
37.6263 11.0
37.71 8.0
37.7937 11.0
37.8774 15.0
37.9611 12.0
38.0448 8.0
38.1285 11.0
38.2122 14.0
38.2959 16.0
38.3796 12.0
38.4633 7.0
38.5471 16.0
38.6308 8.0
38.7145 13.0
38.7982 17.0
38.8819 10.0
38.9656 13.0
39.0493 8.0
39.133 15.0
39.2167 12.0
39.3004 15.0
39.3841 14.0
39.4678 15.0
39.5515 13.0
39.6352 10.0
39.7189 16.0
39.8026 12.0
39.8863 9.0
39.97 10.0
40.0538 8.0
40.1375 20.0
40.2212 8.0
40.3049 17.0
40.3886 10.0
40.4723 10.0
40.556 14.0
40.6397 10.0
40.7234 13.0
40.8071 20.0
40.8908 8.0
40.9745 15.0
41.0582 13.0
41.1419 13.0
41.2256 14.0
41.3093 15.0
41.393 13.0
41.4767 7.0
41.5605 13.0
41.6442 7.0
41.7279 10.0
41.8116 13.0
41.8953 15.0
41.979 17.0
42.0627 10.0
42.1464 15.0
42.2301 11.0
42.3138 12.0
42.3975 14.0
42.4812 12.0
42.5649 16.0
42.6486 15.0
42.7323 17.0
42.816 15.0
42.8997 7.0
42.9834 12.0
43.0672 12.0
43.1509 17.0
43.2346 16.0
43.3183 11.0
43.402 14.0
43.4857 18.0
43.5694 13.0
43.6531 11.0
43.7368 8.0
43.8205 9.0
43.9042 18.0
43.9879 20.0
44.0716 18.0
44.1553 14.0
44.239 18.0
44.3227 23.0
44.4064 19.0
44.4901 23.0
44.5739 19.0
44.6576 12.0
44.7413 6.0
44.825 12.0
44.9087 8.0
44.9924 16.0
45.0761 8.0
45.1598 12.0
45.2435 12.0
45.3272 10.0
45.4109 10.0
45.4946 6.0
45.5783 14.0
45.662 15.0
45.7457 9.0
45.8294 12.0
45.9131 11.0
45.9968 14.0
46.0806 10.0
46.1643 16.0
46.248 15.0
46.3317 14.0
46.4154 11.0
46.4991 13.0
46.5828 11.0
46.6665 18.0
46.7502 14.0
46.8339 13.0
46.9176 10.0
47.0013 12.0
47.085 61.0
47.1687 35.0
47.2524 17.0
47.3361 11.0
47.4198 18.0
47.5035 15.0
47.5873 12.0
47.671 15.0
47.7547 21.0
47.8384 13.0
47.9221 16.0
48.0058 15.0
48.0895 23.0
48.1732 12.0
48.2569 15.0
48.3406 11.0
48.4243 20.0
48.508 11.0
48.5917 15.0
48.6754 11.0
48.7591 16.0
48.8428 9.0
48.9265 14.0
49.0102 10.0
49.094 17.0
49.1777 17.0
49.2614 16.0
49.3451 10.0
49.4288 17.0
49.5125 17.0
49.5962 10.0
49.6799 17.0
49.7636 17.0
49.8473 19.0
49.931 20.0
50.0147 21.0
50.0984 59.0
50.1821 190.0
50.2658 32.0
50.3495 14.0
50.4332 17.0
50.5169 46.0
50.6007 37.0
50.6844 28.0
50.7681 16.0
50.8518 29.0
50.9355 13.0
51.0192 33.0
51.1029 21.0
51.1866 19.0
51.2703 18.0
51.354 27.0
51.4377 32.0
51.5214 24.0
51.6051 37.0
51.6888 41.0
51.7725 49.0
51.8562 56.0
51.9399 60.0
52.0236 75.0
52.1074 102.0
52.1911 182.0
52.2748 429.0
52.3585 514.0
52.4422 2493.0
52.5259 33885.0
52.6096 7443.0
52.6933 4517.0
52.777 616.0
52.8607 301.0
52.9444 206.0
53.0281 135.0
53.1118 119.0
53.1955 120.0
53.2792 119.0
53.3629 79.0
53.4466 87.0
53.5303 80.0
53.6141 72.0
53.6978 60.0
53.7815 58.0
53.8652 64.0
53.9489 48.0
54.0326 45.0
54.1163 48.0
54.2 35.0
54.2837 30.0
54.3674 22.0
54.4511 31.0
54.5348 18.0
54.6185 29.0
54.7022 24.0
54.7859 22.0
54.8696 22.0
54.9533 19.0
55.037 24.0
55.1208 22.0
55.2045 20.0
55.2882 26.0
55.3719 16.0
55.4556 14.0
55.5393 14.0
55.623 12.0
55.7067 18.0
55.7904 15.0
55.8741 13.0
55.9578 13.0
56.0415 17.0
56.1252 15.0
56.2089 12.0
56.2926 18.0
56.3763 13.0
56.46 13.0
56.5437 13.0
56.6275 10.0
56.7112 11.0
56.7949 19.0
56.8786 12.0
56.9623 22.0
57.046 12.0
57.1297 14.0
57.2134 19.0
57.2971 13.0
57.3808 21.0
57.4645 17.0
57.5482 12.0
57.6319 14.0
57.7156 16.0
57.7993 9.0
57.883 13.0
57.9667 10.0
58.0504 14.0
58.1342 8.0
58.2179 12.0
58.3016 13.0
58.3853 18.0
58.469 12.0
58.5527 8.0
58.6364 13.0
58.7201 9.0
58.8038 13.0
58.8875 12.0
58.9712 11.0
59.0549 12.0
59.1386 11.0
59.2223 7.0
59.306 11.0
59.3897 15.0
59.4734 9.0
59.5571 11.0
59.6409 15.0
59.7246 18.0
59.8083 14.0
59.892 8.0
59.9757 12.0
60.0594 9.0
60.1431 11.0
60.2268 13.0
60.3105 11.0
60.3942 13.0
60.4779 10.0
60.5616 9.0
60.6453 11.0
60.729 16.0
60.8127 13.0
60.8964 8.0
60.9801 19.0
61.0638 17.0
61.1476 18.0
61.2313 15.0
61.315 16.0
61.3987 13.0
61.4824 12.0
61.5661 12.0
61.6498 15.0
61.7335 12.0
61.8172 12.0
61.9009 15.0
61.9846 14.0
62.0683 9.0
62.152 10.0
62.2357 11.0
62.3194 15.0
62.4031 11.0
62.4868 11.0
62.5705 13.0
62.6543 14.0
62.738 11.0
62.8217 18.0
62.9054 21.0
62.9891 13.0
63.0728 18.0
63.1565 10.0
63.2402 10.0
63.3239 11.0
63.4076 12.0
63.4913 8.0
63.575 13.0
63.6587 11.0
63.7424 8.0
63.8261 12.0
63.9098 13.0
63.9935 11.0
64.0772 13.0
64.161 18.0
64.2447 12.0
64.3284 25.0
64.4121 11.0
64.4958 14.0
64.5795 8.0
64.6632 12.0
64.7469 7.0
64.8306 9.0
64.9143 16.0
64.998 25.0
65.0817 12.0
65.1654 10.0
65.2491 11.0
65.3328 9.0
65.4165 11.0
65.5002 8.0
65.5839 9.0
65.6677 14.0
65.7514 18.0
65.8351 14.0
65.9188 16.0
66.0025 15.0
66.0862 9.0
66.1699 10.0
66.2536 11.0
66.3373 7.0
66.421 15.0
66.5047 13.0
66.5884 13.0
66.6721 14.0
66.7558 21.0
66.8395 13.0
66.9232 12.0
67.0069 12.0
67.0906 13.0
67.1744 6.0
67.2581 15.0
67.3418 6.0
67.4255 13.0
67.5092 12.0
67.5929 10.0
67.6766 12.0
67.7603 8.0
67.844 14.0
67.9277 11.0
68.0114 15.0
68.0951 13.0
68.1788 14.0
68.2625 12.0
68.3462 5.0
68.4299 15.0
68.5136 13.0
68.5973 10.0
68.6811 12.0
68.7648 6.0
68.8485 10.0
68.9322 14.0
69.0159 13.0
69.0996 11.0
69.1833 10.0
69.267 16.0
69.3507 9.0
69.4344 12.0
69.5181 13.0
69.6018 15.0
69.6855 10.0
69.7692 10.0
69.8529 13.0
69.9366 10.0
70.0203 10.0
70.104 13.0
70.1878 17.0
70.2715 15.0
70.3552 13.0
70.4389 14.0
70.5226 8.0
70.6063 10.0
70.69 14.0
70.7737 12.0
70.8574 8.0
70.9411 8.0
71.0248 7.0
71.1085 12.0
71.1922 8.0
71.2759 15.0
71.3596 8.0
71.4433 15.0
71.527 14.0
71.6107 10.0
71.6945 9.0
71.7782 14.0
71.8619 14.0
71.9456 10.0
72.0293 12.0
72.113 10.0
72.1967 16.0
72.2804 16.0
72.3641 9.0
72.4478 15.0
72.5315 10.0
72.6152 9.0
72.6989 8.0
72.7826 17.0
72.8663 12.0
72.95 15.0
73.0337 14.0
73.1174 11.0
73.2012 13.0
73.2849 10.0
73.3686 12.0
73.4523 10.0
73.536 12.0
73.6197 12.0
73.7034 20.0
73.7871 13.0
73.8708 14.0
73.9545 13.0
74.0382 11.0
74.1219 15.0
74.2056 7.0
74.2893 5.0
74.373 15.0
74.4567 9.0
74.5404 11.0
74.6241 18.0
74.7079 18.0
74.7916 16.0
74.8753 8.0
74.959 11.0
75.0427 17.0
75.1264 6.0
75.2101 6.0
75.2938 10.0
75.3775 20.0
75.4612 14.0
75.5449 8.0
75.6286 11.0
75.7123 11.0
75.796 11.0
75.8797 13.0
75.9634 16.0
76.0471 6.0
76.1308 19.0
76.2146 5.0
76.2983 8.0
76.382 6.0
76.4657 16.0
76.5494 7.0
76.6331 12.0
76.7168 18.0
76.8005 10.0
76.8842 13.0
76.9679 8.0
77.0516 13.0
77.1353 8.0
77.219 11.0
77.3027 15.0
77.3864 18.0
77.4701 8.0
77.5538 9.0
77.6375 13.0
77.7213 12.0
77.805 9.0
77.8887 15.0
77.9724 8.0
78.0561 17.0
78.1398 14.0
78.2235 17.0
78.3072 16.0
78.3909 8.0
78.4746 10.0
78.5583 13.0
78.642 8.0
78.7257 14.0
78.8094 9.0
78.8931 10.0
78.9768 8.0
79.0605 18.0
79.1442 9.0
79.228 8.0
79.3117 17.0
79.3954 4.0
79.4791 11.0
79.5628 7.0
79.6465 9.0
79.7302 9.0
79.8139 18.0
79.8976 13.0
79.9813 17.0
80.065 15.0
80.1487 13.0
80.2324 18.0
80.3161 12.0
80.3998 9.0
80.4835 23.0
80.5672 14.0
80.6509 12.0
80.7347 14.0
80.8184 19.0
80.9021 10.0
80.9858 20.0
81.0695 14.0
81.1532 19.0
81.2369 11.0
81.3206 14.0
81.4043 10.0
81.488 17.0
81.5717 13.0
81.6554 7.0
81.7391 22.0
81.8228 13.0
81.9065 16.0
81.9902 13.0
82.0739 16.0
82.1576 12.0
82.2414 14.0
82.3251 15.0
82.4088 21.0
82.4925 10.0
82.5762 22.0
82.6599 21.0
82.7436 21.0
82.8273 26.0
82.911 13.0
82.9947 42.0
83.0784 88.0
83.1621 1580.0
83.2458 297.0
83.3295 81.0
83.4132 841.0
83.4969 169.0
83.5806 46.0
83.6643 27.0
83.7481 28.0
83.8318 24.0
83.9155 14.0
83.9992 12.0
84.0829 11.0
84.1666 17.0
84.2503 13.0
84.334 15.0
84.4177 18.0
84.5014 16.0
84.5851 12.0
84.6688 11.0
84.7525 13.0
84.8362 15.0
84.9199 7.0
85.0036 6.0
85.0873 16.0
85.171 13.0
85.2548 12.0
85.3385 14.0
85.4222 8.0
85.5059 16.0
85.5896 17.0
85.6733 12.0
85.757 8.0
85.8407 18.0
85.9244 12.0
86.0081 11.0
86.0918 20.0
86.1755 10.0
86.2592 8.0
86.3429 11.0
86.4266 21.0
86.5103 12.0
86.594 19.0
86.6777 11.0
86.7615 7.0
86.8452 16.0
86.9289 8.0
87.0126 13.0
87.0963 10.0
87.18 16.0
87.2637 15.0
87.3474 9.0
87.4311 15.0
87.5148 14.0
87.5985 7.0
87.6822 13.0
87.7659 11.0
87.8496 11.0
87.9333 13.0
88.017 12.0
88.1007 7.0
88.1844 16.0
88.2682 8.0
88.3519 15.0
88.4356 6.0
88.5193 15.0
88.603 12.0
88.6867 13.0
88.7704 9.0
88.8541 11.0
88.9378 6.0
89.0215 9.0
89.1052 13.0
89.1889 11.0
89.2726 12.0
89.3563 13.0
89.44 10.0
89.5237 14.0
89.6074 13.0
89.6911 17.0
89.7749 12.0
89.8586 10.0
89.9423 6.0
90.026 13.0
90.1097 20.0
90.1934 14.0
90.2771 17.0
90.3608 11.0
90.4445 9.0
90.5282 8.0
90.6119 26.0
90.6956 16.0
90.7793 9.0
90.863 12.0
90.9467 18.0
91.0304 5.0
91.1141 12.0
91.1978 13.0
91.2816 16.0
91.3653 12.0
91.449 12.0
91.5327 11.0
91.6164 9.0
91.7001 13.0
91.7838 12.0
91.8675 13.0
91.9512 15.0
92.0349 15.0
92.1186 9.0
92.2023 14.0
92.286 10.0
92.3697 15.0
92.4534 9.0
92.5371 11.0
92.6208 8.0
92.7045 16.0
92.7883 8.0
92.872 15.0
92.9557 12.0
93.0394 6.0
93.1231 16.0
93.2068 16.0
93.2905 13.0
93.3742 8.0
93.4579 13.0
93.5416 16.0
93.6253 11.0
93.709 10.0
93.7927 16.0
93.8764 15.0
93.9601 15.0
94.0438 13.0
94.1275 10.0
94.2112 15.0
94.295 18.0
94.3787 7.0
94.4624 10.0
94.5461 16.0
94.6298 8.0
94.7135 10.0
94.7972 16.0
94.8809 24.0
94.9646 7.0
95.0483 12.0
95.132 11.0
95.2157 9.0
95.2994 10.0
95.3831 10.0
95.4668 11.0
95.5505 11.0
95.6342 10.0
95.7179 11.0
95.8017 6.0
95.8854 14.0
95.9691 15.0
96.0528 10.0
96.1365 15.0
96.2202 5.0
96.3039 15.0
96.3876 15.0
96.4713 12.0
96.555 11.0
96.6387 9.0
96.7224 14.0
96.8061 7.0
96.8898 7.0
96.9735 13.0
97.0572 10.0
97.1409 14.0
97.2246 12.0
97.3084 13.0
97.3921 10.0
97.4758 13.0
97.5595 10.0
97.6432 12.0
97.7269 10.0
97.8106 13.0
97.8943 12.0
97.978 7.0
98.0617 9.0
98.1454 9.0
98.2291 10.0
98.3128 16.0
98.3965 10.0
98.4802 17.0
98.5639 13.0
98.6476 9.0
98.7313 19.0
98.8151 12.0
98.8988 11.0
98.9825 10.0
99.0662 6.0
99.1499 12.0
99.2336 16.0
99.3173 13.0
99.401 14.0
99.4847 11.0
99.5684 7.0
99.6521 10.0
99.7358 10.0
99.8195 11.0
99.9032 13.0
99.9869 10.0
100.071 13.0
100.154 8.0
100.238 10.0
100.322 12.0
100.405 6.0
100.489 14.0
100.573 16.0
100.657 11.0
100.74 4.0
100.824 20.0
100.908 11.0
100.991 16.0
101.075 14.0
101.159 7.0
101.243 9.0
101.326 11.0
101.41 15.0
101.494 13.0
101.577 11.0
101.661 13.0
101.745 16.0
101.828 10.0
101.912 7.0
101.996 14.0
102.08 13.0
102.163 12.0
102.247 10.0
102.331 7.0
102.414 13.0
102.498 11.0
102.582 12.0
102.666 13.0
102.749 9.0
102.833 15.0
102.917 4.0
103 11.0
103.084 9.0
103.168 10.0
103.251 10.0
103.335 6.0
103.419 14.0
103.503 12.0
103.586 9.0
103.67 15.0
103.754 8.0
103.837 15.0
103.921 5.0
104.005 6.0
104.089 14.0
104.172 13.0
104.256 12.0
104.34 12.0
104.423 12.0
104.507 6.0
104.591 16.0
104.674 18.0
104.758 16.0
104.842 11.0
104.926 13.0
105.009 13.0
105.093 8.0
105.177 11.0
105.26 6.0
105.344 9.0
105.428 11.0
105.511 15.0
105.595 9.0
105.679 14.0
105.763 8.0
105.846 12.0
105.93 13.0
106.014 15.0
106.097 14.0
106.181 16.0
106.265 27.0
106.349 18.0
106.432 15.0
106.516 12.0
106.6 13.0
106.683 10.0
106.767 13.0
106.851 13.0
106.934 12.0
107.018 8.0
107.102 11.0
107.186 17.0
107.269 10.0
107.353 8.0
107.437 13.0
107.52 7.0
107.604 15.0
107.688 13.0
107.772 7.0
107.855 16.0
107.939 10.0
108.023 4.0
108.106 10.0
108.19 15.0
108.274 12.0
108.357 15.0
108.441 10.0
108.525 13.0
108.609 14.0
108.692 8.0
108.776 9.0
108.86 10.0
108.943 15.0
109.027 6.0
109.111 14.0
109.195 6.0
109.278 6.0
109.362 10.0
109.446 20.0
109.529 9.0
109.613 14.0
109.697 9.0
109.78 16.0
109.864 15.0
109.948 8.0
110.032 17.0
110.115 13.0
110.199 8.0
110.283 5.0
110.366 19.0
110.45 14.0
110.534 6.0
110.618 10.0
110.701 15.0
110.785 7.0
110.869 10.0
110.952 12.0
111.036 9.0
111.12 7.0
111.203 10.0
111.287 8.0
111.371 11.0
111.455 11.0
111.538 19.0
111.622 18.0
111.706 8.0
111.789 13.0
111.873 16.0
111.957 8.0
112.041 13.0
112.124 17.0
112.208 14.0
112.292 8.0
112.375 12.0
112.459 11.0
112.543 14.0
112.626 15.0
112.71 5.0
112.794 14.0
112.878 8.0
112.961 10.0
113.045 11.0
113.129 15.0
113.212 12.0
113.296 24.0
113.38 15.0
113.464 15.0
113.547 14.0
113.631 17.0
113.715 14.0
113.798 12.0
113.882 13.0
113.966 12.0
114.049 12.0
114.133 9.0
114.217 12.0
114.301 19.0
114.384 11.0
114.468 14.0
114.552 10.0
114.635 17.0
114.719 11.0
114.803 11.0
114.887 9.0
114.97 12.0
115.054 12.0
115.138 19.0
115.221 11.0
115.305 17.0
115.389 16.0
115.472 8.0
115.556 12.0
115.64 16.0
115.724 11.0
115.807 12.0
115.891 19.0
115.975 25.0
116.058 39.0
116.142 24.0
116.226 23.0
116.31 18.0
116.393 15.0
116.477 16.0
116.561 8.0
116.644 15.0
116.728 12.0
116.812 8.0
116.895 16.0
116.979 13.0
117.063 17.0
117.147 12.0
117.23 15.0
117.314 15.0
117.398 11.0
117.481 23.0
117.565 20.0
117.649 24.0
117.733 16.0
117.816 13.0
117.9 10.0
117.984 14.0
118.067 14.0
118.151 8.0
118.235 13.0
118.318 14.0
118.402 9.0
118.486 15.0
118.57 10.0
118.653 14.0
118.737 10.0
118.821 12.0
118.904 15.0
118.988 12.0
119.072 12.0
119.156 13.0
119.239 14.0
119.323 18.0
119.407 14.0
119.49 8.0
119.574 10.0
119.658 18.0
119.741 16.0
119.825 9.0
119.909 16.0
119.993 20.0
120.076 14.0
120.16 12.0
120.244 12.0
120.327 13.0
120.411 17.0
120.495 10.0
120.578 14.0
120.662 13.0
120.746 18.0
120.83 21.0
120.913 11.0
120.997 12.0
121.081 10.0
121.164 14.0
121.248 19.0
121.332 14.0
121.416 16.0
121.499 18.0
121.583 13.0
121.667 25.0
121.75 14.0
121.834 7.0
121.918 22.0
122.001 15.0
122.085 17.0
122.169 17.0
122.253 15.0
122.336 17.0
122.42 14.0
122.504 11.0
122.587 17.0
122.671 16.0
122.755 18.0
122.839 16.0
122.922 14.0
123.006 19.0
123.09 19.0
123.173 27.0
123.257 20.0
123.341 27.0
123.424 30.0
123.508 35.0
123.592 43.0
123.676 42.0
123.759 47.0
123.843 41.0
123.927 48.0
124.01 52.0
124.094 70.0
124.178 87.0
124.262 116.0
124.345 192.0
124.429 396.0
124.513 1692.0
124.596 7563.0
124.68 1768.0
124.764 515.0
124.847 258.0
124.931 277.0
125.015 546.0
125.099 2715.0
125.182 2351.0
125.266 542.0
125.35 198.0
125.433 102.0
125.517 66.0
125.601 52.0
125.685 54.0
125.768 52.0
125.852 42.0
125.936 36.0
126.019 39.0
126.103 32.0
126.187 40.0
126.27 31.0
126.354 30.0
126.438 24.0
126.522 20.0
126.605 22.0
126.689 34.0
126.773 32.0
126.856 37.0
126.94 18.0
127.024 25.0
127.108 19.0
127.191 24.0
127.275 12.0
127.359 18.0
127.442 18.0
127.526 23.0
127.61 23.0
127.693 22.0
127.777 21.0
127.861 24.0
127.945 21.0
128.028 16.0
128.112 19.0
128.196 23.0
128.279 23.0
128.363 21.0
128.447 18.0
128.531 22.0
128.614 19.0
128.698 20.0
128.782 16.0
128.865 17.0
128.949 25.0
129.033 20.0
129.116 23.0
129.2 18.0
129.284 20.0
129.368 19.0
129.451 14.0
129.535 16.0
129.619 14.0
129.702 14.0
129.786 27.0
129.87 10.0
129.954 11.0
129.998 13.0