File: data/W6904a/XRD_Omega/scan_omega_4deg_step_0.005deg0_C5_1.xy
16.10120 76.0
16.10620 82.0
16.11120 89.0
16.11620 74.0
16.12120 80.0
16.12620 76.0
16.13120 85.0
16.13620 93.0
16.14120 84.0
16.14620 73.0
16.15120 77.0
16.15620 87.0
16.16120 105.0
16.16620 82.0
16.17120 103.0
16.17620 82.0
16.18120 84.0
16.18620 63.0
16.19120 91.0
16.19620 80.0
16.20120 96.0
16.20620 88.0
16.21120 83.0
16.21620 78.0
16.22120 76.0
16.22620 84.0
16.23120 95.0
16.23620 91.0
16.24120 84.0
16.24620 92.0
16.25120 88.0
16.25620 75.0
16.26120 80.0
16.26620 101.0
16.27120 97.0
16.27620 82.0
16.28120 84.0
16.28620 85.0
16.29120 92.0
16.29620 92.0
16.30120 85.0
16.30620 80.0
16.31120 97.0
16.31620 86.0
16.32120 102.0
16.32620 86.0
16.33120 96.0
16.33620 102.0
16.34120 82.0
16.34620 86.0
16.35120 87.0
16.35620 88.0
16.36120 85.0
16.36620 106.0
16.37120 109.0
16.37620 75.0
16.38120 89.0
16.38620 105.0
16.39120 97.0
16.39620 96.0
16.40120 94.0
16.40620 103.0
16.41120 77.0
16.41620 71.0
16.42120 87.0
16.42620 73.0
16.43120 84.0
16.43620 106.0
16.44120 95.0
16.44620 94.0
16.45120 78.0
16.45620 110.0
16.46120 89.0
16.46620 88.0
16.47120 88.0
16.47620 85.0
16.48120 97.0
16.48620 86.0
16.49120 80.0
16.49620 89.0
16.50120 91.0
16.50620 88.0
16.51120 95.0
16.51620 82.0
16.52120 100.0
16.52620 104.0
16.53120 89.0
16.53620 106.0
16.54120 89.0
16.54620 99.0
16.55120 100.0
16.55620 96.0
16.56120 97.0
16.56620 87.0
16.57120 94.0
16.57620 103.0
16.58120 103.0
16.58620 110.0
16.59120 99.0
16.59620 105.0
16.60120 95.0
16.60620 108.0
16.61120 100.0
16.61620 104.0
16.62120 113.0
16.62620 112.0
16.63120 97.0
16.63620 110.0
16.64120 109.0
16.64620 92.0
16.65120 125.0
16.65620 123.0
16.66120 115.0
16.66620 92.0
16.67120 103.0
16.67620 126.0
16.68120 112.0
16.68620 98.0
16.69120 120.0
16.69620 99.0
16.70120 98.0
16.70620 101.0
16.71120 106.0
16.71620 99.0
16.72120 110.0
16.72620 109.0
16.73120 113.0
16.73620 120.0
16.74120 108.0
16.74620 117.0
16.75120 130.0
16.75620 131.0
16.76120 115.0
16.76620 136.0
16.77120 115.0
16.77620 106.0
16.78120 123.0
16.78620 133.0
16.79120 125.0
16.79620 124.0
16.80120 134.0
16.80620 130.0
16.81120 124.0
16.81620 107.0
16.82120 121.0
16.82620 129.0
16.83120 131.0
16.83620 118.0
16.84120 129.0
16.84620 133.0
16.85120 130.0
16.85620 134.0
16.86120 124.0
16.86620 157.0
16.87120 143.0
16.87620 133.0
16.88120 127.0
16.88620 121.0
16.89120 156.0
16.89620 126.0
16.90120 137.0
16.90620 154.0
16.91120 160.0
16.91620 129.0
16.92120 147.0
16.92620 133.0
16.93120 131.0
16.93620 155.0
16.94120 146.0
16.94620 117.0
16.95120 158.0
16.95620 154.0
16.96120 152.0
16.96620 152.0
16.97120 168.0
16.97620 168.0
16.98120 154.0
16.98620 145.0
16.99120 158.0
16.99620 178.0
17.00120 152.0
17.00620 162.0
17.01120 152.0
17.01620 163.0
17.02120 168.0
17.02620 168.0
17.03120 181.0
17.03620 179.0
17.04120 179.0
17.04620 175.0
17.05120 170.0
17.05620 175.0
17.06120 159.0
17.06620 203.0
17.07120 172.0
17.07620 180.0
17.08120 189.0
17.08620 201.0
17.09120 198.0
17.09620 215.0
17.10120 177.0
17.10620 174.0
17.11120 187.0
17.11620 209.0
17.12120 190.0
17.12620 222.0
17.13120 187.0
17.13620 215.0
17.14120 223.0
17.14620 204.0
17.15120 213.0
17.15620 218.0
17.16120 218.0
17.16620 228.0
17.17120 194.0
17.17620 225.0
17.18120 222.0
17.18620 219.0
17.19120 256.0
17.19620 219.0
17.20120 224.0
17.20620 241.0
17.21120 249.0
17.21620 228.0
17.22120 259.0
17.22620 226.0
17.23120 248.0
17.23620 251.0
17.24120 266.0
17.24620 260.0
17.25120 246.0
17.25620 279.0
17.26120 274.0
17.26620 257.0
17.27120 237.0
17.27620 290.0
17.28120 292.0
17.28620 276.0
17.29120 272.0
17.29620 288.0
17.30120 304.0
17.30620 305.0
17.31120 290.0
17.31620 292.0
17.32120 353.0
17.32620 343.0
17.33120 319.0
17.33620 303.0
17.34120 335.0
17.34620 344.0
17.35120 357.0
17.35620 366.0
17.36120 350.0
17.36620 312.0
17.37120 341.0
17.37620 371.0
17.38120 377.0
17.38620 380.0
17.39120 383.0
17.39620 349.0
17.40120 410.0
17.40620 392.0
17.41120 404.0
17.41620 391.0
17.42120 398.0
17.42620 387.0
17.43120 450.0
17.43620 432.0
17.44120 403.0
17.44620 458.0
17.45120 425.0
17.45620 425.0
17.46120 407.0
17.46620 443.0
17.47120 474.0
17.47620 456.0
17.48120 471.0
17.48620 455.0
17.49120 463.0
17.49620 463.0
17.50120 482.0
17.50620 502.0
17.51120 458.0
17.51620 509.0
17.52120 540.0
17.52620 545.0
17.53120 530.0
17.53620 538.0
17.54120 562.0
17.54620 591.0
17.55120 550.0
17.55620 565.0
17.56120 555.0
17.56620 592.0
17.57120 600.0
17.57620 557.0
17.58120 609.0
17.58620 657.0
17.59120 620.0
17.59620 659.0
17.60120 661.0
17.60620 684.0
17.61120 693.0
17.61620 651.0
17.62120 691.0
17.62620 689.0
17.63120 737.0
17.63620 737.0
17.64120 694.0
17.64620 746.0
17.65120 723.0
17.65620 765.0
17.66120 763.0
17.66620 796.0
17.67120 812.0
17.67620 840.0
17.68120 813.0
17.68620 849.0
17.69120 834.0
17.69620 892.0
17.70120 831.0
17.70620 839.0
17.71120 892.0
17.71620 933.0
17.72120 945.0
17.72620 971.0
17.73120 956.0
17.73620 991.0
17.74120 968.0
17.74620 989.0
17.75120 969.0
17.75620 980.0
17.76120 1063.0
17.76620 1053.0
17.77120 1104.0
17.77620 1072.0
17.78120 1101.0
17.78620 1185.0
17.79120 1147.0
17.79620 1099.0
17.80120 1193.0
17.80620 1148.0
17.81120 1186.0
17.81620 1226.0
17.82120 1202.0
17.82620 1239.0
17.83120 1206.0
17.83620 1244.0
17.84120 1324.0
17.84620 1339.0
17.85120 1329.0
17.85620 1370.0
17.86120 1414.0
17.86620 1420.0
17.87120 1411.0
17.87620 1432.0
17.88120 1458.0
17.88620 1518.0
17.89120 1543.0
17.89620 1600.0
17.90120 1525.0
17.90620 1597.0
17.91120 1607.0
17.91620 1594.0
17.92120 1579.0
17.92620 1631.0
17.93120 1671.0
17.93620 1714.0
17.94120 1829.0
17.94620 1916.0
17.95120 1941.0
17.95620 2067.0
17.96120 2257.0
17.96620 2392.0
17.97120 2390.0
17.97620 2580.0
17.98120 2797.0
17.98620 2820.0
17.99120 3031.0
17.99620 3224.0
18.00120 3337.0
18.00620 3621.0
18.01120 3851.0
18.01620 4042.0
18.02120 4282.0
18.02620 4411.0
18.03120 4634.0
18.03620 4874.0
18.04120 5083.0
18.04620 5105.0
18.05120 5311.0
18.05620 5467.0
18.06120 5652.0
18.06620 5783.0
18.07120 5832.0
18.07620 5880.0
18.08120 5838.0
18.08620 5852.0
18.09120 5900.0
18.09620 5708.0
18.10120 5590.0
18.10620 5540.0
18.11120 5409.0
18.11620 5276.0
18.12120 5187.0
18.12620 4949.0
18.13120 4585.0
18.13620 4497.0
18.14120 4162.0
18.14620 3966.0
18.15120 3828.0
18.15620 3497.0
18.16120 3441.0
18.16620 3207.0
18.17120 3052.0
18.17620 3022.0
18.18120 2724.0
18.18620 2679.0
18.19120 2468.0
18.19620 2396.0
18.20120 2256.0
18.20620 2193.0
18.21120 2048.0
18.21620 2022.0
18.22120 1817.0
18.22620 1815.0
18.23120 1738.0
18.23620 1633.0
18.24120 1738.0
18.24620 1608.0
18.25120 1541.0
18.25620 1655.0
18.26120 1531.0
18.26620 1625.0
18.27120 1586.0
18.27620 1483.0
18.28120 1450.0
18.28620 1439.0
18.29120 1425.0
18.29620 1452.0
18.30120 1353.0
18.30620 1328.0
18.31120 1284.0
18.31620 1298.0
18.32120 1303.0
18.32620 1285.0
18.33120 1234.0
18.33620 1199.0
18.34120 1166.0
18.34620 1183.0
18.35120 1182.0
18.35620 1202.0
18.36120 1206.0
18.36620 1165.0
18.37120 1110.0
18.37620 1083.0
18.38120 1125.0
18.38620 1045.0
18.39120 976.0
18.39620 1062.0
18.40120 1049.0
18.40620 1000.0
18.41120 954.0
18.41620 944.0
18.42120 955.0
18.42620 938.0
18.43120 953.0
18.43620 874.0
18.44120 862.0
18.44620 875.0
18.45120 856.0
18.45620 830.0
18.46120 829.0
18.46620 820.0
18.47120 806.0
18.47620 704.0
18.48120 822.0
18.48620 734.0
18.49120 779.0
18.49620 764.0
18.50120 766.0
18.50620 703.0
18.51120 700.0
18.51620 735.0
18.52120 737.0
18.52620 722.0
18.53120 704.0
18.53620 704.0
18.54120 678.0
18.54620 685.0
18.55120 641.0
18.55620 628.0
18.56120 621.0
18.56620 628.0
18.57120 581.0
18.57620 598.0
18.58120 607.0
18.58620 565.0
18.59120 578.0
18.59620 602.0
18.60120 538.0
18.60620 550.0
18.61120 548.0
18.61620 486.0
18.62120 505.0
18.62620 468.0
18.63120 475.0
18.63620 499.0
18.64120 516.0
18.64620 494.0
18.65120 506.0
18.65620 486.0
18.66120 498.0
18.66620 474.0
18.67120 450.0
18.67620 443.0
18.68120 448.0
18.68620 441.0
18.69120 403.0
18.69620 405.0
18.70120 430.0
18.70620 428.0
18.71120 391.0
18.71620 402.0
18.72120 403.0
18.72620 400.0
18.73120 379.0
18.73620 397.0
18.74120 371.0
18.74620 353.0
18.75120 359.0
18.75620 361.0
18.76120 352.0
18.76620 357.0
18.77120 320.0
18.77620 353.0
18.78120 326.0
18.78620 320.0
18.79120 306.0
18.79620 315.0
18.80120 307.0
18.80620 287.0
18.81120 304.0
18.81620 335.0
18.82120 273.0
18.82620 302.0
18.83120 278.0
18.83620 321.0
18.84120 312.0
18.84620 289.0
18.85120 264.0
18.85620 272.0
18.86120 262.0
18.86620 279.0
18.87120 260.0
18.87620 249.0
18.88120 225.0
18.88620 249.0
18.89120 255.0
18.89620 241.0
18.90120 270.0
18.90620 260.0
18.91120 275.0
18.91620 261.0
18.92120 261.0
18.92620 230.0
18.93120 231.0
18.93620 242.0
18.94120 233.0
18.94620 234.0
18.95120 218.0
18.95620 241.0
18.96120 186.0
18.96620 245.0
18.97120 232.0
18.97620 204.0
18.98120 237.0
18.98620 210.0
18.99120 210.0
18.99620 205.0
19.00120 214.0
19.00620 217.0
19.01120 197.0
19.01620 197.0
19.02120 186.0
19.02620 204.0
19.03120 170.0
19.03620 192.0
19.04120 171.0
19.04620 224.0
19.05120 169.0
19.05620 163.0
19.06120 183.0
19.06620 189.0
19.07120 168.0
19.07620 177.0
19.08120 170.0
19.08620 191.0
19.09120 194.0
19.09620 160.0
19.10120 162.0
19.10620 152.0
19.11120 153.0
19.11620 139.0
19.12120 165.0
19.12620 145.0
19.13120 155.0
19.13620 146.0
19.14120 140.0
19.14620 165.0
19.15120 165.0
19.15620 153.0
19.16120 167.0
19.16620 160.0
19.17120 144.0
19.17620 144.0
19.18120 154.0
19.18620 154.0
19.19120 137.0
19.19620 140.0
19.20120 165.0
19.20620 139.0
19.21120 151.0
19.21620 131.0
19.22120 124.0
19.22620 148.0
19.23120 125.0
19.23620 120.0
19.24120 107.0
19.24620 126.0
19.25120 121.0
19.25620 135.0
19.26120 127.0
19.26620 119.0
19.27120 133.0
19.27620 101.0
19.28120 125.0
19.28620 146.0
19.29120 132.0
19.29620 122.0
19.30120 114.0
19.30620 117.0
19.31120 118.0
19.31620 114.0
19.32120 133.0
19.32620 131.0
19.33120 112.0
19.33620 136.0
19.34120 100.0
19.34620 103.0
19.35120 104.0
19.35620 118.0
19.36120 113.0
19.36620 101.0
19.37120 98.0
19.37620 114.0
19.38120 120.0
19.38620 116.0
19.39120 106.0
19.39620 101.0
19.40120 112.0
19.40620 108.0
19.41120 126.0
19.41620 100.0
19.42120 101.0
19.42620 108.0
19.43120 112.0
19.43620 92.0
19.44120 114.0
19.44620 100.0
19.45120 87.0
19.45620 120.0
19.46120 100.0
19.46620 97.0
19.47120 109.0
19.47620 92.0
19.48120 88.0
19.48620 99.0
19.49120 99.0
19.49620 96.0
19.50120 97.0
19.50620 83.0
19.51120 95.0
19.51620 96.0
19.52120 105.0
19.52620 106.0
19.53120 91.0
19.53620 92.0
19.54120 92.0
19.54620 104.0
19.55120 88.0
19.55620 101.0
19.56120 113.0
19.56620 94.0
19.57120 102.0
19.57620 105.0
19.58120 103.0
19.58620 72.0
19.59120 90.0
19.59620 82.0
19.60120 93.0
19.60620 85.0
19.61120 98.0
19.61620 73.0
19.62120 78.0
19.62620 72.0
19.63120 82.0
19.63620 88.0
19.64120 79.0
19.64620 102.0
19.65120 83.0
19.65620 72.0
19.66120 84.0
19.66620 80.0
19.67120 93.0
19.67620 101.0
19.68120 97.0
19.68620 78.0
19.69120 97.0
19.69620 75.0
19.70120 96.0
19.70620 72.0
19.71120 88.0
19.71620 92.0
19.72120 88.0
19.72620 73.0
19.73120 92.0
19.73620 84.0
19.74120 82.0
19.74620 76.0
19.75120 74.0
19.75620 75.0
19.76120 104.0
19.76620 87.0
19.77120 78.0
19.77620 78.0
19.78120 90.0
19.78620 87.0
19.79120 71.0
19.79620 99.0
19.80120 71.0
19.80620 79.0
19.81120 74.0
19.81620 87.0
19.82120 87.0
19.82620 70.0
19.83120 88.0
19.83620 99.0
19.84120 73.0
19.84620 72.0
19.85120 101.0
19.85620 92.0
19.86120 99.0
19.86620 85.0
19.87120 73.0
19.87620 85.0
19.88120 76.0
19.88620 80.0
19.89120 58.0
19.89620 87.0
19.90120 60.0
19.90620 84.0
19.91120 73.0
19.91620 80.0
19.92120 79.0
19.92620 70.0
19.93120 78.0
19.93620 87.0
19.94120 82.0
19.94620 60.0
19.95120 94.0
19.95620 91.0
19.96120 79.0
19.96620 72.0
19.97120 96.0
19.97620 77.0
19.98120 69.0
19.98620 74.0
19.99120 73.0
19.99620 63.0
20.00120 91.0
20.00620 69.0
20.01120 65.0
20.01620 82.0
20.02120 53.0
20.02620 77.0
20.03120 73.0
20.03620 75.0
20.04120 71.0
20.04620 72.0
20.05120 80.0
20.05620 81.0
20.06120 92.0