File: data/W6784a/XRD_2ThetaOmega/W6784a_absolute_2th-om_10-130deg_PIXscan_17min_4.xy
10.0035 23.0
10.0872 26.0
10.1709 26.0
10.2546 21.0
10.3383 14.0
10.422 26.0
10.5057 15.0
10.5894 16.0
10.6731 16.0
10.7568 22.0
10.8405 21.0
10.9242 17.0
11.0079 24.0
11.0916 28.0
11.1753 12.0
11.259 24.0
11.3428 29.0
11.4265 15.0
11.5102 15.0
11.5939 23.0
11.6776 21.0
11.7613 18.0
11.845 14.0
11.9287 14.0
12.0124 24.0
12.0961 23.0
12.1798 26.0
12.2635 11.0
12.3472 14.0
12.4309 15.0
12.5146 12.0
12.5983 16.0
12.682 27.0
12.7657 17.0
12.8495 19.0
12.9332 15.0
13.0169 23.0
13.1006 13.0
13.1843 25.0
13.268 8.0
13.3517 19.0
13.4354 17.0
13.5191 25.0
13.6028 23.0
13.6865 21.0
13.7702 16.0
13.8539 17.0
13.9376 15.0
14.0213 14.0
14.105 18.0
14.1887 14.0
14.2724 13.0
14.3562 16.0
14.4399 17.0
14.5236 17.0
14.6073 12.0
14.691 12.0
14.7747 9.0
14.8584 14.0
14.9421 11.0
15.0258 17.0
15.1095 12.0
15.1932 24.0
15.2769 12.0
15.3606 18.0
15.4443 13.0
15.528 8.0
15.6117 12.0
15.6954 14.0
15.7791 10.0
15.8629 17.0
15.9466 16.0
16.0303 17.0
16.114 9.0
16.1977 13.0
16.2814 14.0
16.3651 13.0
16.4488 12.0
16.5325 17.0
16.6162 6.0
16.6999 12.0
16.7836 14.0
16.8673 10.0
16.951 12.0
17.0347 13.0
17.1184 17.0
17.2021 5.0
17.2858 19.0
17.3696 12.0
17.4533 11.0
17.537 12.0
17.6207 22.0
17.7044 14.0
17.7881 16.0
17.8718 13.0
17.9555 16.0
18.0392 12.0
18.1229 19.0
18.2066 13.0
18.2903 8.0
18.374 16.0
18.4577 21.0
18.5414 17.0
18.6251 11.0
18.7088 17.0
18.7925 9.0
18.8763 9.0
18.96 8.0
19.0437 15.0
19.1274 7.0
19.2111 13.0
19.2948 15.0
19.3785 10.0
19.4622 13.0
19.5459 15.0
19.6296 17.0
19.7133 12.0
19.797 15.0
19.8807 11.0
19.9644 10.0
20.0481 11.0
20.1318 14.0
20.2155 9.0
20.2992 16.0
20.383 5.0
20.4667 6.0
20.5504 11.0
20.6341 10.0
20.7178 9.0
20.8015 13.0
20.8852 17.0
20.9689 14.0
21.0526 10.0
21.1363 8.0
21.22 13.0
21.3037 9.0
21.3874 13.0
21.4711 12.0
21.5548 19.0
21.6385 12.0
21.7222 11.0
21.8059 8.0
21.8897 15.0
21.9734 7.0
22.0571 16.0
22.1408 20.0
22.2245 10.0
22.3082 15.0
22.3919 10.0
22.4756 16.0
22.5593 12.0
22.643 11.0
22.7267 10.0
22.8104 10.0
22.8941 14.0
22.9778 11.0
23.0615 5.0
23.1452 6.0
23.2289 8.0
23.3126 8.0
23.3964 9.0
23.4801 7.0
23.5638 9.0
23.6475 8.0
23.7312 9.0
23.8149 9.0
23.8986 5.0
23.9823 13.0
24.066 9.0
24.1497 11.0
24.2334 6.0
24.3171 12.0
24.4008 9.0
24.4845 13.0
24.5682 12.0
24.6519 13.0
24.7356 14.0
24.8193 13.0
24.9031 7.0
24.9868 5.0
25.0705 10.0
25.1542 15.0
25.2379 10.0
25.3216 9.0
25.4053 14.0
25.489 7.0
25.5727 17.0
25.6564 9.0
25.7401 11.0
25.8238 8.0
25.9075 10.0
25.9912 12.0
26.0749 10.0
26.1586 12.0
26.2423 10.0
26.326 9.0
26.4098 10.0
26.4935 7.0
26.5772 6.0
26.6609 7.0
26.7446 18.0
26.8283 7.0
26.912 11.0
26.9957 12.0
27.0794 9.0
27.1631 11.0
27.2468 8.0
27.3305 10.0
27.4142 3.0
27.4979 16.0
27.5816 7.0
27.6653 8.0
27.749 9.0
27.8327 10.0
27.9165 10.0
28.0002 8.0
28.0839 6.0
28.1676 4.0
28.2513 7.0
28.335 10.0
28.4187 11.0
28.5024 7.0
28.5861 11.0
28.6698 4.0
28.7535 7.0
28.8372 10.0
28.9209 7.0
29.0046 10.0
29.0883 6.0
29.172 10.0
29.2557 9.0
29.3394 6.0
29.4232 11.0
29.5069 17.0
29.5906 10.0
29.6743 9.0
29.758 8.0
29.8417 12.0
29.9254 10.0
30.0091 3.0
30.0928 8.0
30.1765 14.0
30.2602 4.0
30.3439 13.0
30.4276 12.0
30.5113 7.0
30.595 11.0
30.6787 12.0
30.7624 9.0
30.8461 10.0
30.9298 6.0
31.0136 7.0
31.0973 7.0
31.181 10.0
31.2647 3.0
31.3484 12.0
31.4321 11.0
31.5158 12.0
31.5995 9.0
31.6832 11.0
31.7669 8.0
31.8506 11.0
31.9343 15.0
32.018 12.0
32.1017 5.0
32.1854 13.0
32.2691 8.0
32.3528 12.0
32.4365 6.0
32.5203 7.0
32.604 13.0
32.6877 6.0
32.7714 9.0
32.8551 12.0
32.9388 11.0
33.0225 7.0
33.1062 9.0
33.1899 15.0
33.2736 13.0
33.3573 9.0
33.441 13.0
33.5247 13.0
33.6084 7.0
33.6921 9.0
33.7758 18.0
33.8595 18.0
33.9432 48.0
34.027 23.0
34.1107 23.0
34.1944 21.0
34.2781 18.0
34.3618 27.0
34.4455 27.0
34.5292 20.0
34.6129 20.0
34.6966 24.0
34.7803 16.0
34.864 26.0
34.9477 26.0
35.0314 34.0
35.1151 51.0
35.1988 46.0
35.2825 101.0
35.3662 143.0
35.4499 306.0
35.5337 844.0
35.6174 1899.0
35.7011 2294.0
35.7848 1523.0
35.8685 780.0
35.9522 352.0
36.0359 219.0
36.1196 239.0
36.2033 78.0
36.287 78.0
36.3707 96.0
36.4544 59.0
36.5381 52.0
36.6218 31.0
36.7055 36.0
36.7892 39.0
36.8729 41.0
36.9566 38.0
37.0404 40.0
37.1241 35.0
37.2078 48.0
37.2915 51.0
37.3752 69.0
37.4589 123.0
37.5426 333.0
37.6263 597.0
37.71 29056.0
37.7937 12556.0
37.8774 1175.0
37.9611 320.0
38.0448 161.0
38.1285 145.0
38.2122 121.0
38.2959 117.0
38.3796 96.0
38.4633 78.0
38.5471 62.0
38.6308 65.0
38.7145 44.0
38.7982 37.0
38.8819 36.0
38.9656 31.0
39.0493 36.0
39.133 27.0
39.2167 18.0
39.3004 23.0
39.3841 24.0
39.4678 14.0
39.5515 13.0
39.6352 20.0
39.7189 12.0
39.8026 12.0
39.8863 13.0
39.97 13.0
40.0538 19.0
40.1375 14.0
40.2212 14.0
40.3049 14.0
40.3886 16.0
40.4723 10.0
40.556 12.0
40.6397 5.0
40.7234 15.0
40.8071 15.0
40.8908 14.0
40.9745 15.0
41.0582 13.0
41.1419 16.0
41.2256 19.0
41.3093 9.0
41.393 12.0
41.4767 13.0
41.5605 15.0
41.6442 17.0
41.7279 9.0
41.8116 11.0
41.8953 8.0
41.979 6.0
42.0627 7.0
42.1464 12.0
42.2301 15.0
42.3138 14.0
42.3975 9.0
42.4812 12.0
42.5649 8.0
42.6486 13.0
42.7323 9.0
42.816 12.0
42.8997 13.0
42.9834 12.0
43.0672 9.0
43.1509 7.0
43.2346 7.0
43.3183 12.0
43.402 15.0
43.4857 5.0
43.5694 13.0
43.6531 14.0
43.7368 13.0
43.8205 17.0
43.9042 10.0
43.9879 13.0
44.0716 10.0
44.1553 15.0
44.239 24.0
44.3227 22.0
44.4064 29.0
44.4901 12.0
44.5739 16.0
44.6576 13.0
44.7413 8.0
44.825 9.0
44.9087 8.0
44.9924 10.0
45.0761 12.0
45.1598 3.0
45.2435 9.0
45.3272 9.0
45.4109 14.0
45.4946 6.0
45.5783 10.0
45.662 12.0
45.7457 5.0
45.8294 15.0
45.9131 8.0
45.9968 11.0
46.0806 13.0
46.1643 9.0
46.248 10.0
46.3317 6.0
46.4154 9.0
46.4991 15.0
46.5828 14.0
46.6665 5.0
46.7502 13.0
46.8339 12.0
46.9176 17.0
47.0013 8.0
47.085 9.0
47.1687 7.0
47.2524 9.0
47.3361 15.0
47.4198 9.0
47.5035 11.0
47.5873 6.0
47.671 13.0
47.7547 12.0
47.8384 10.0
47.9221 9.0
48.0058 6.0
48.0895 15.0
48.1732 11.0
48.2569 8.0
48.3406 8.0
48.4243 9.0
48.508 7.0
48.5917 12.0
48.6754 10.0
48.7591 8.0
48.8428 3.0
48.9265 7.0
49.0102 11.0
49.094 12.0
49.1777 3.0
49.2614 11.0
49.3451 11.0
49.4288 5.0
49.5125 11.0
49.5962 11.0
49.6799 9.0
49.7636 14.0
49.8473 7.0
49.931 14.0
50.0147 9.0
50.0984 10.0
50.1821 10.0
50.2658 10.0
50.3495 21.0
50.4332 9.0
50.5169 10.0
50.6007 10.0
50.6844 10.0
50.7681 16.0
50.8518 13.0
50.9355 12.0
51.0192 6.0
51.1029 8.0
51.1866 8.0
51.2703 6.0
51.354 13.0
51.4377 9.0
51.5214 15.0
51.6051 8.0
51.6888 9.0
51.7725 22.0
51.8562 6.0
51.9399 15.0
52.0236 9.0
52.1074 6.0
52.1911 10.0
52.2748 16.0
52.3585 13.0
52.4422 12.0
52.5259 11.0
52.6096 7.0
52.6933 11.0
52.777 7.0
52.8607 14.0
52.9444 14.0
53.0281 6.0
53.1118 8.0
53.1955 6.0
53.2792 9.0
53.3629 7.0
53.4466 10.0
53.5303 12.0
53.6141 3.0
53.6978 13.0
53.7815 9.0
53.8652 10.0
53.9489 7.0
54.0326 9.0
54.1163 5.0
54.2 11.0
54.2837 11.0
54.3674 13.0
54.4511 19.0
54.5348 11.0
54.6185 19.0
54.7022 17.0
54.7859 7.0
54.8696 11.0
54.9533 4.0
55.037 12.0
55.1208 8.0
55.2045 11.0
55.2882 8.0
55.3719 8.0
55.4556 13.0
55.5393 9.0
55.623 16.0
55.7067 10.0
55.7904 10.0
55.8741 5.0
55.9578 9.0
56.0415 8.0
56.1252 20.0
56.2089 8.0
56.2926 13.0
56.3763 13.0
56.46 14.0
56.5437 13.0
56.6275 12.0
56.7112 10.0
56.7949 14.0
56.8786 12.0
56.9623 9.0
57.046 10.0
57.1297 5.0
57.2134 11.0
57.2971 5.0
57.3808 13.0
57.4645 14.0
57.5482 12.0
57.6319 18.0
57.7156 11.0
57.7993 9.0
57.883 11.0
57.9667 4.0
58.0504 5.0
58.1342 12.0
58.2179 10.0
58.3016 5.0
58.3853 7.0
58.469 6.0
58.5527 13.0
58.6364 13.0
58.7201 12.0
58.8038 8.0
58.8875 12.0
58.9712 15.0
59.0549 12.0
59.1386 7.0
59.2223 9.0
59.306 11.0
59.3897 17.0
59.4734 13.0
59.5571 19.0
59.6409 7.0
59.7246 18.0
59.8083 14.0
59.892 12.0
59.9757 15.0
60.0594 11.0
60.1431 8.0
60.2268 11.0
60.3105 10.0
60.3942 14.0
60.4779 7.0
60.5616 15.0
60.6453 15.0
60.729 10.0
60.8127 9.0
60.8964 6.0
60.9801 8.0
61.0638 7.0
61.1476 13.0
61.2313 9.0
61.315 12.0
61.3987 13.0
61.4824 5.0
61.5661 14.0
61.6498 5.0
61.7335 8.0
61.8172 12.0
61.9009 10.0
61.9846 8.0
62.0683 10.0
62.152 9.0
62.2357 13.0
62.3194 15.0
62.4031 12.0
62.4868 11.0
62.5705 9.0
62.6543 11.0
62.738 9.0
62.8217 8.0
62.9054 13.0
62.9891 11.0
63.0728 18.0
63.1565 7.0
63.2402 15.0
63.3239 9.0
63.4076 12.0
63.4913 12.0
63.575 9.0
63.6587 13.0
63.7424 10.0
63.8261 14.0
63.9098 14.0
63.9935 17.0
64.0772 11.0
64.161 7.0
64.2447 11.0
64.3284 9.0
64.4121 10.0
64.4958 10.0
64.5795 14.0
64.6632 11.0
64.7469 5.0
64.8306 15.0
64.9143 3.0
64.998 8.0
65.0817 18.0
65.1654 18.0
65.2491 6.0
65.3328 18.0
65.4165 15.0
65.5002 17.0
65.5839 7.0
65.6677 10.0
65.7514 10.0
65.8351 11.0
65.9188 11.0
66.0025 7.0
66.0862 19.0
66.1699 16.0
66.2536 9.0
66.3373 20.0
66.421 17.0
66.5047 11.0
66.5884 8.0
66.6721 9.0
66.7558 19.0
66.8395 14.0
66.9232 12.0
67.0069 9.0
67.0906 9.0
67.1744 12.0
67.2581 6.0
67.3418 13.0
67.4255 15.0
67.5092 11.0
67.5929 16.0
67.6766 10.0
67.7603 10.0
67.844 8.0
67.9277 9.0
68.0114 5.0
68.0951 12.0
68.1788 12.0
68.2625 9.0
68.3462 8.0
68.4299 10.0
68.5136 8.0
68.5973 12.0
68.6811 14.0
68.7648 13.0
68.8485 10.0
68.9322 8.0
69.0159 8.0
69.0996 14.0
69.1833 15.0
69.267 10.0
69.3507 8.0
69.4344 12.0
69.5181 16.0
69.6018 12.0
69.6855 7.0
69.7692 6.0
69.8529 11.0
69.9366 10.0
70.0203 13.0
70.104 10.0
70.1878 10.0
70.2715 12.0
70.3552 13.0
70.4389 12.0
70.5226 14.0
70.6063 8.0
70.69 16.0
70.7737 6.0
70.8574 14.0
70.9411 12.0
71.0248 10.0
71.1085 11.0
71.1922 18.0
71.2759 16.0
71.3596 10.0
71.4433 12.0
71.527 17.0
71.6107 35.0
71.6945 20.0
71.7782 10.0
71.8619 8.0
71.9456 13.0
72.0293 15.0
72.113 9.0
72.1967 10.0
72.2804 10.0
72.3641 9.0
72.4478 17.0
72.5315 9.0
72.6152 8.0
72.6989 18.0
72.7826 14.0
72.8663 12.0
72.95 11.0
73.0337 10.0
73.1174 16.0
73.2012 12.0
73.2849 6.0
73.3686 13.0
73.4523 10.0
73.536 10.0
73.6197 8.0
73.7034 11.0
73.7871 16.0
73.8708 7.0
73.9545 13.0
74.0382 13.0
74.1219 8.0
74.2056 14.0
74.2893 8.0
74.373 10.0
74.4567 17.0
74.5404 16.0
74.6241 5.0
74.7079 17.0
74.7916 6.0
74.8753 22.0
74.959 13.0
75.0427 18.0
75.1264 18.0
75.2101 23.0
75.2938 36.0
75.3775 62.0
75.4612 67.0
75.5449 88.0
75.6286 113.0
75.7123 98.0
75.796 120.0
75.8797 103.0
75.9634 88.0
76.0471 47.0
76.1308 48.0
76.2146 38.0
76.2983 25.0
76.382 38.0
76.4657 21.0
76.5494 29.0
76.6331 40.0
76.7168 35.0
76.8005 22.0
76.8842 12.0
76.9679 16.0
77.0516 16.0
77.1353 18.0
77.219 17.0
77.3027 17.0
77.3864 18.0
77.4701 12.0
77.5538 16.0
77.6375 17.0
77.7213 8.0
77.805 17.0
77.8887 17.0
77.9724 7.0
78.0561 14.0
78.1398 13.0
78.2235 10.0
78.3072 18.0
78.3909 16.0
78.4746 13.0
78.5583 8.0
78.642 11.0
78.7257 11.0
78.8094 16.0
78.8931 6.0
78.9768 15.0
79.0605 20.0
79.1442 12.0
79.228 14.0
79.3117 15.0
79.3954 13.0
79.4791 13.0
79.5628 9.0
79.6465 23.0
79.7302 18.0
79.8139 20.0
79.8976 27.0
79.9813 21.0
80.065 29.0
80.1487 43.0
80.2324 55.0
80.3161 68.0
80.3998 61.0
80.4835 124.0
80.5672 525.0
80.6509 8086.0
80.7347 818.0
80.8184 543.0
80.9021 4305.0
80.9858 411.0
81.0695 114.0
81.1532 81.0
81.2369 48.0
81.3206 46.0
81.4043 44.0
81.488 34.0
81.5717 26.0
81.6554 38.0
81.7391 34.0
81.8228 30.0
81.9065 25.0
81.9902 21.0
82.0739 29.0
82.1576 20.0
82.2414 27.0
82.3251 27.0
82.4088 20.0
82.4925 29.0
82.5762 25.0
82.6599 21.0
82.7436 21.0
82.8273 16.0
82.911 11.0
82.9947 22.0
83.0784 22.0
83.1621 17.0
83.2458 17.0
83.3295 18.0
83.4132 15.0
83.4969 15.0
83.5806 23.0
83.6643 14.0
83.7481 15.0
83.8318 18.0
83.9155 11.0
83.9992 11.0
84.0829 7.0
84.1666 13.0
84.2503 12.0
84.334 12.0
84.4177 14.0
84.5014 3.0
84.5851 14.0
84.6688 10.0
84.7525 13.0
84.8362 10.0
84.9199 16.0
85.0036 13.0
85.0873 14.0
85.171 14.0
85.2548 21.0
85.3385 18.0
85.4222 9.0
85.5059 9.0
85.5896 13.0
85.6733 9.0
85.757 11.0
85.8407 13.0
85.9244 3.0
86.0081 12.0
86.0918 11.0
86.1755 6.0
86.2592 15.0
86.3429 15.0
86.4266 12.0
86.5103 14.0
86.594 6.0
86.6777 10.0
86.7615 10.0
86.8452 14.0
86.9289 9.0
87.0126 15.0
87.0963 9.0
87.18 18.0
87.2637 16.0
87.3474 10.0
87.4311 18.0
87.5148 8.0
87.5985 11.0
87.6822 13.0
87.7659 11.0
87.8496 8.0
87.9333 12.0
88.017 6.0
88.1007 11.0
88.1844 13.0
88.2682 13.0
88.3519 9.0
88.4356 12.0
88.5193 4.0
88.603 17.0
88.6867 14.0
88.7704 10.0
88.8541 8.0
88.9378 12.0
89.0215 13.0
89.1052 6.0
89.1889 8.0
89.2726 8.0
89.3563 8.0
89.44 16.0
89.5237 12.0
89.6074 19.0
89.6911 16.0
89.7749 12.0
89.8586 10.0
89.9423 9.0
90.026 8.0
90.1097 9.0
90.1934 14.0
90.2771 10.0
90.3608 8.0
90.4445 9.0
90.5282 7.0
90.6119 13.0
90.6956 16.0
90.7793 7.0
90.863 9.0
90.9467 10.0
91.0304 7.0
91.1141 14.0
91.1978 14.0
91.2816 10.0
91.3653 12.0
91.449 9.0
91.5327 8.0
91.6164 7.0
91.7001 11.0
91.7838 12.0
91.8675 13.0
91.9512 10.0
92.0349 12.0
92.1186 9.0
92.2023 19.0
92.286 16.0
92.3697 12.0
92.4534 7.0
92.5371 14.0
92.6208 9.0
92.7045 12.0
92.7883 8.0
92.872 8.0
92.9557 16.0
93.0394 8.0
93.1231 9.0
93.2068 15.0
93.2905 7.0
93.3742 8.0
93.4579 10.0
93.5416 12.0
93.6253 7.0
93.709 11.0
93.7927 16.0
93.8764 11.0
93.9601 17.0
94.0438 6.0
94.1275 11.0
94.2112 15.0
94.295 16.0
94.3787 11.0
94.4624 10.0
94.5461 11.0
94.6298 6.0
94.7135 13.0
94.7972 7.0
94.8809 6.0
94.9646 11.0
95.0483 9.0
95.132 7.0
95.2157 13.0
95.2994 8.0
95.3831 11.0
95.4668 11.0
95.5505 5.0
95.6342 12.0
95.7179 13.0
95.8017 12.0
95.8854 18.0
95.9691 7.0
96.0528 12.0
96.1365 14.0
96.2202 9.0
96.3039 12.0
96.3876 19.0
96.4713 8.0
96.555 11.0
96.6387 11.0
96.7224 11.0
96.8061 13.0
96.8898 12.0
96.9735 3.0
97.0572 8.0
97.1409 13.0
97.2246 15.0
97.3084 14.0
97.3921 16.0
97.4758 16.0
97.5595 11.0
97.6432 13.0
97.7269 12.0
97.8106 13.0
97.8943 10.0
97.978 10.0
98.0617 13.0
98.1454 7.0
98.2291 16.0
98.3128 14.0
98.3965 11.0
98.4802 14.0
98.5639 8.0
98.6476 9.0
98.7313 12.0
98.8151 8.0
98.8988 13.0
98.9825 13.0
99.0662 6.0
99.1499 10.0
99.2336 6.0
99.3173 5.0
99.401 15.0
99.4847 14.0
99.5684 13.0
99.6521 12.0
99.7358 10.0
99.8195 11.0
99.9032 13.0
99.9869 3.0
100.071 16.0
100.154 16.0
100.238 8.0
100.322 11.0
100.405 16.0
100.489 15.0
100.573 10.0
100.657 15.0
100.74 11.0
100.824 11.0
100.908 13.0
100.991 9.0
101.075 14.0
101.159 9.0
101.243 15.0
101.326 8.0
101.41 10.0
101.494 11.0
101.577 7.0
101.661 12.0
101.745 10.0
101.828 6.0
101.912 10.0
101.996 16.0
102.08 14.0
102.163 6.0
102.247 11.0
102.331 11.0
102.414 14.0
102.498 13.0
102.582 9.0
102.666 13.0
102.749 12.0
102.833 7.0
102.917 8.0
103 10.0
103.084 12.0
103.168 11.0
103.251 16.0
103.335 9.0
103.419 7.0
103.503 10.0
103.586 13.0
103.67 7.0
103.754 5.0
103.837 11.0
103.921 14.0
104.005 12.0
104.089 9.0
104.172 8.0
104.256 12.0
104.34 5.0
104.423 10.0
104.507 17.0
104.591 10.0
104.674 13.0
104.758 7.0
104.842 9.0
104.926 7.0
105.009 15.0
105.093 12.0
105.177 8.0
105.26 3.0
105.344 15.0
105.428 7.0
105.511 18.0
105.595 12.0
105.679 9.0
105.763 9.0
105.846 9.0
105.93 10.0
106.014 13.0
106.097 10.0
106.181 15.0
106.265 8.0
106.349 7.0
106.432 13.0
106.516 13.0
106.6 13.0
106.683 8.0
106.767 9.0
106.851 6.0
106.934 7.0
107.018 9.0
107.102 11.0
107.186 6.0
107.269 14.0
107.353 11.0
107.437 12.0
107.52 12.0
107.604 11.0
107.688 9.0
107.772 14.0
107.855 12.0
107.939 11.0
108.023 6.0
108.106 14.0
108.19 12.0
108.274 10.0
108.357 7.0
108.441 10.0
108.525 16.0
108.609 7.0
108.692 15.0
108.776 13.0
108.86 8.0
108.943 12.0
109.027 9.0
109.111 5.0
109.195 10.0
109.278 18.0
109.362 11.0
109.446 5.0
109.529 11.0
109.613 15.0
109.697 14.0
109.78 17.0
109.864 11.0
109.948 9.0
110.032 13.0
110.115 9.0
110.199 9.0
110.283 10.0
110.366 9.0
110.45 17.0
110.534 11.0
110.618 13.0
110.701 13.0
110.785 9.0
110.869 6.0
110.952 11.0
111.036 10.0
111.12 11.0
111.203 9.0
111.287 13.0
111.371 6.0
111.455 13.0
111.538 11.0
111.622 10.0
111.706 6.0
111.789 10.0
111.873 22.0
111.957 7.0
112.041 12.0
112.124 12.0
112.208 16.0
112.292 7.0
112.375 11.0
112.459 4.0
112.543 13.0
112.626 10.0
112.71 13.0
112.794 12.0
112.878 4.0
112.961 8.0
113.045 14.0
113.129 4.0
113.212 6.0
113.296 14.0
113.38 9.0
113.464 7.0
113.547 6.0
113.631 8.0
113.715 9.0
113.798 9.0
113.882 11.0
113.966 10.0
114.049 11.0
114.133 7.0
114.217 9.0
114.301 12.0
114.384 6.0
114.468 11.0
114.552 12.0
114.635 13.0
114.719 8.0
114.803 11.0
114.887 15.0
114.97 8.0
115.054 8.0
115.138 11.0
115.221 10.0
115.305 11.0
115.389 9.0
115.472 11.0
115.556 7.0
115.64 7.0
115.724 11.0
115.807 12.0
115.891 12.0
115.975 6.0
116.058 10.0
116.142 19.0
116.226 7.0
116.31 9.0
116.393 8.0
116.477 8.0
116.561 14.0
116.644 9.0
116.728 11.0
116.812 9.0
116.895 5.0
116.979 10.0
117.063 5.0
117.147 8.0
117.23 10.0
117.314 12.0
117.398 11.0
117.481 10.0
117.565 7.0
117.649 15.0
117.733 13.0
117.816 6.0
117.9 8.0
117.984 10.0
118.067 10.0
118.151 5.0
118.235 4.0
118.318 8.0
118.402 12.0
118.486 13.0
118.57 10.0
118.653 8.0
118.737 8.0
118.821 10.0
118.904 6.0
118.988 8.0
119.072 13.0
119.156 10.0
119.239 6.0
119.323 10.0
119.407 8.0
119.49 11.0
119.574 8.0
119.658 10.0
119.741 6.0
119.825 11.0
119.909 16.0
119.993 5.0
120.076 12.0
120.16 6.0
120.244 13.0
120.327 9.0
120.411 11.0
120.495 9.0
120.578 14.0
120.662 6.0
120.746 12.0
120.83 13.0
120.913 8.0
120.997 10.0
121.081 12.0
121.164 14.0
121.248 16.0
121.332 8.0
121.416 14.0
121.499 12.0
121.583 9.0
121.667 11.0
121.75 11.0
121.834 15.0
121.918 11.0
122.001 6.0
122.085 10.0
122.169 12.0
122.253 6.0
122.336 9.0
122.42 12.0
122.504 14.0
122.587 13.0
122.671 23.0
122.755 25.0
122.839 24.0
122.922 13.0
123.006 13.0
123.09 9.0
123.173 5.0
123.257 11.0
123.341 9.0
123.424 10.0
123.508 14.0
123.592 15.0
123.676 4.0
123.759 7.0
123.843 8.0
123.927 10.0
124.01 3.0
124.094 13.0
124.178 15.0
124.262 5.0
124.345 8.0
124.429 15.0
124.513 6.0
124.596 13.0
124.68 8.0
124.764 14.0
124.847 7.0
124.931 8.0
125.015 17.0
125.099 9.0
125.182 11.0
125.266 5.0
125.35 9.0
125.433 10.0
125.517 10.0
125.601 9.0
125.685 13.0
125.768 13.0
125.852 10.0
125.936 13.0
126.019 10.0
126.103 7.0
126.187 11.0
126.27 9.0
126.354 13.0
126.438 4.0
126.522 10.0
126.605 7.0
126.689 12.0
126.773 6.0
126.856 13.0
126.94 7.0
127.024 11.0
127.108 13.0
127.191 9.0
127.275 5.0
127.359 4.0
127.442 9.0
127.526 10.0
127.61 9.0
127.693 10.0
127.777 8.0
127.861 18.0
127.945 12.0
128.028 13.0
128.112 7.0
128.196 10.0
128.279 8.0
128.363 14.0
128.447 14.0
128.531 8.0
128.614 3.0
128.698 7.0
128.782 12.0
128.865 12.0
128.949 16.0
129.033 11.0
129.116 9.0
129.2 13.0
129.284 13.0
129.368 10.0
129.451 11.0
129.535 9.0
129.619 10.0
129.702 19.0
129.786 8.0
129.87 14.0
129.954 14.0
129.998 11.0