File: data/W6779c/XRD_Omega/W6779c_Cr2O3_scan_omega_2deg_step_0.002deg0_10.xy
18.70260 565.0
18.70460 561.0
18.70660 589.0
18.70860 594.0
18.71060 536.0
18.71260 547.0
18.71460 601.0
18.71660 556.0
18.71860 515.0
18.72060 579.0
18.72260 535.0
18.72460 529.0
18.72660 531.0
18.72860 540.0
18.73060 587.0
18.73260 565.0
18.73460 593.0
18.73660 529.0
18.73860 554.0
18.74060 563.0
18.74260 536.0
18.74460 604.0
18.74660 561.0
18.74860 564.0
18.75060 558.0
18.75260 587.0
18.75460 548.0
18.75660 549.0
18.75860 623.0
18.76060 613.0
18.76260 564.0
18.76460 574.0
18.76660 578.0
18.76860 526.0
18.77060 556.0
18.77260 556.0
18.77460 603.0
18.77660 622.0
18.77860 585.0
18.78060 570.0
18.78260 565.0
18.78460 565.0
18.78660 588.0
18.78860 589.0
18.79060 563.0
18.79260 616.0
18.79460 571.0
18.79660 597.0
18.79860 578.0
18.80060 568.0
18.80260 566.0
18.80460 610.0
18.80660 580.0
18.80860 576.0
18.81060 570.0
18.81260 568.0
18.81460 581.0
18.81660 577.0
18.81860 579.0
18.82060 609.0
18.82260 568.0
18.82460 583.0
18.82660 571.0
18.82860 609.0
18.83060 628.0
18.83260 603.0
18.83460 614.0
18.83660 580.0
18.83860 579.0
18.84060 606.0
18.84260 611.0
18.84460 593.0
18.84660 625.0
18.84860 621.0
18.85060 610.0
18.85260 634.0
18.85460 580.0
18.85660 617.0
18.85860 634.0
18.86060 637.0
18.86260 650.0
18.86460 572.0
18.86660 644.0
18.86860 616.0
18.87060 668.0
18.87260 634.0
18.87460 606.0
18.87660 612.0
18.87860 612.0
18.88060 628.0
18.88260 580.0
18.88460 647.0
18.88660 650.0
18.88860 631.0
18.89060 602.0
18.89260 654.0
18.89460 625.0
18.89660 609.0
18.89860 638.0
18.90060 612.0
18.90260 651.0
18.90460 626.0
18.90660 673.0
18.90860 620.0
18.91060 693.0
18.91260 664.0
18.91460 693.0
18.91660 650.0
18.91860 675.0
18.92060 679.0
18.92260 673.0
18.92460 640.0
18.92660 652.0
18.92860 680.0
18.93060 651.0
18.93260 635.0
18.93460 644.0
18.93660 656.0
18.93860 615.0
18.94060 659.0
18.94260 649.0
18.94460 685.0
18.94660 671.0
18.94860 657.0
18.95060 691.0
18.95260 708.0
18.95460 680.0
18.95660 634.0
18.95860 700.0
18.96060 708.0
18.96260 662.0
18.96460 714.0
18.96660 707.0
18.96860 683.0
18.97060 717.0
18.97260 689.0
18.97460 708.0
18.97660 696.0
18.97860 693.0
18.98060 715.0
18.98260 724.0
18.98460 722.0
18.98660 697.0
18.98860 735.0
18.99060 763.0
18.99260 711.0
18.99460 762.0
18.99660 698.0
18.99860 736.0
19.00060 745.0
19.00260 698.0
19.00460 738.0
19.00660 752.0
19.00860 734.0
19.01060 778.0
19.01260 787.0
19.01460 767.0
19.01660 781.0
19.01860 731.0
19.02060 723.0
19.02260 807.0
19.02460 823.0
19.02660 766.0
19.02860 737.0
19.03060 755.0
19.03260 733.0
19.03460 781.0
19.03660 745.0
19.03860 740.0
19.04060 790.0
19.04260 794.0
19.04460 771.0
19.04660 831.0
19.04860 807.0
19.05060 743.0
19.05260 761.0
19.05460 787.0
19.05660 773.0
19.05860 793.0
19.06060 757.0
19.06260 809.0
19.06460 822.0
19.06660 824.0
19.06860 817.0
19.07060 871.0
19.07260 854.0
19.07460 812.0
19.07660 822.0
19.07860 888.0
19.08060 789.0
19.08260 826.0
19.08460 778.0
19.08660 874.0
19.08860 885.0
19.09060 913.0
19.09260 870.0
19.09460 880.0
19.09660 907.0
19.09860 859.0
19.10060 869.0
19.10260 894.0
19.10460 920.0
19.10660 906.0
19.10860 880.0
19.11060 948.0
19.11260 915.0
19.11460 907.0
19.11660 928.0
19.11860 942.0
19.12060 967.0
19.12260 938.0
19.12460 994.0
19.12660 915.0
19.12860 975.0
19.13060 1003.0
19.13260 954.0
19.13460 972.0
19.13660 996.0
19.13860 959.0
19.14060 1005.0
19.14260 946.0
19.14460 1032.0
19.14660 972.0
19.14860 984.0
19.15060 978.0
19.15260 993.0
19.15460 1016.0
19.15660 1034.0
19.15860 958.0
19.16060 1015.0
19.16260 1015.0
19.16460 1013.0
19.16660 1054.0
19.16860 1009.0
19.17060 1018.0
19.17260 1029.0
19.17460 1001.0
19.17660 1027.0
19.17860 1025.0
19.18060 992.0
19.18260 1083.0
19.18460 1038.0
19.18660 1051.0
19.18860 1172.0
19.19060 1101.0
19.19260 1132.0
19.19460 1109.0
19.19660 1135.0
19.19860 1115.0
19.20060 1087.0
19.20260 1117.0
19.20460 1111.0
19.20660 1087.0
19.20860 1094.0
19.21060 1172.0
19.21260 1134.0
19.21460 1165.0
19.21660 1205.0
19.21860 1280.0
19.22060 1208.0
19.22260 1182.0
19.22460 1201.0
19.22660 1243.0
19.22860 1220.0
19.23060 1145.0
19.23260 1209.0
19.23460 1162.0
19.23660 1232.0
19.23860 1238.0
19.24060 1245.0
19.24260 1266.0
19.24460 1274.0
19.24660 1305.0
19.24860 1265.0
19.25060 1346.0
19.25260 1313.0
19.25460 1316.0
19.25660 1315.0
19.25860 1306.0
19.26060 1286.0
19.26260 1351.0
19.26460 1325.0
19.26660 1392.0
19.26860 1412.0
19.27060 1388.0
19.27260 1343.0
19.27460 1413.0
19.27660 1385.0
19.27860 1380.0
19.28060 1424.0
19.28260 1462.0
19.28460 1493.0
19.28660 1438.0
19.28860 1430.0
19.29060 1467.0
19.29260 1457.0
19.29460 1503.0
19.29660 1458.0
19.29860 1521.0
19.30060 1608.0
19.30260 1584.0
19.30460 1650.0
19.30660 1555.0
19.30860 1524.0
19.31060 1515.0
19.31260 1609.0
19.31460 1585.0
19.31660 1595.0
19.31860 1644.0
19.32060 1647.0
19.32260 1607.0
19.32460 1616.0
19.32660 1644.0
19.32860 1759.0
19.33060 1656.0
19.33260 1688.0
19.33460 1620.0
19.33660 1703.0
19.33860 1721.0
19.34060 1686.0
19.34260 1757.0
19.34460 1855.0
19.34660 1761.0
19.34860 1730.0
19.35060 1828.0
19.35260 1854.0
19.35460 1812.0
19.35660 1830.0
19.35860 1838.0
19.36060 1880.0
19.36260 1821.0
19.36460 1950.0
19.36660 1868.0
19.36860 1937.0
19.37060 2011.0
19.37260 1960.0
19.37460 1993.0
19.37660 1901.0
19.37860 1996.0
19.38060 1976.0
19.38260 2042.0
19.38460 2048.0
19.38660 2099.0
19.38860 2032.0
19.39060 2171.0
19.39260 2106.0
19.39460 2079.0
19.39660 2174.0
19.39860 2198.0
19.40060 2187.0
19.40260 2241.0
19.40460 2216.0
19.40660 2288.0
19.40860 2288.0
19.41060 2302.0
19.41260 2339.0
19.41460 2255.0
19.41660 2280.0
19.41860 2377.0
19.42060 2317.0
19.42260 2322.0
19.42460 2401.0
19.42660 2405.0
19.42860 2478.0
19.43060 2527.0
19.43260 2447.0
19.43460 2475.0
19.43660 2444.0
19.43860 2615.0
19.44060 2563.0
19.44260 2536.0
19.44460 2641.0
19.44660 2620.0
19.44860 2654.0
19.45060 2723.0
19.45260 2565.0
19.45460 2740.0
19.45660 2767.0
19.45860 2869.0
19.46060 2894.0
19.46260 2846.0
19.46460 2840.0
19.46660 2792.0
19.46860 2968.0
19.47060 2921.0
19.47260 2986.0
19.47460 3050.0
19.47660 3020.0
19.47860 3052.0
19.48060 3057.0
19.48260 3012.0
19.48460 3163.0
19.48660 3133.0
19.48860 3132.0
19.49060 3176.0
19.49260 3352.0
19.49460 3290.0
19.49660 3361.0
19.49860 3293.0
19.50060 3503.0
19.50260 3539.0
19.50460 3522.0
19.50660 3572.0
19.50860 3578.0
19.51060 3665.0
19.51260 3804.0
19.51460 3631.0
19.51660 3709.0
19.51860 3796.0
19.52060 3814.0
19.52260 3958.0
19.52460 3860.0
19.52660 3845.0
19.52860 4163.0
19.53060 4092.0
19.53260 4093.0
19.53460 4229.0
19.53660 4204.0
19.53860 4375.0
19.54060 4397.0
19.54260 4482.0
19.54460 4345.0
19.54660 4479.0
19.54860 4560.0
19.55060 4529.0
19.55260 4622.0
19.55460 4814.0
19.55660 4664.0
19.55860 4911.0
19.56060 4944.0
19.56260 4836.0
19.56460 5042.0
19.56660 5059.0
19.56860 5124.0
19.57060 5265.0
19.57260 5369.0
19.57460 5501.0
19.57660 5506.0
19.57860 5712.0
19.58060 5849.0
19.58260 5742.0
19.58460 5694.0
19.58660 5876.0
19.58860 5928.0
19.59060 6173.0
19.59260 6109.0
19.59460 6175.0
19.59660 6094.0
19.59860 6195.0
19.60060 6364.0
19.60260 6452.0
19.60460 6622.0
19.60660 6695.0
19.60860 6802.0
19.61060 7024.0
19.61260 7129.0
19.61460 7048.0
19.61660 7085.0
19.61860 7356.0
19.62060 7481.0
19.62260 7669.0
19.62460 7579.0
19.62660 7638.0
19.62860 7875.0
19.63060 7879.0
19.63260 8230.0
19.63460 8142.0
19.63660 8315.0
19.63860 8558.0
19.64060 8497.0
19.64260 8926.0
19.64460 8661.0
19.64660 8808.0
19.64860 8938.0
19.65060 9128.0
19.65260 9268.0
19.65460 9383.0
19.65660 9404.0
19.65860 9301.0
19.66060 9353.0
19.66260 9515.0
19.66460 9622.0
19.66660 9724.0
19.66860 9710.0
19.67060 9776.0
19.67260 10091.0
19.67460 9943.0
19.67660 9988.0
19.67860 10195.0
19.68060 10047.0
19.68260 10063.0
19.68460 10041.0
19.68660 10047.0
19.68860 10227.0
19.69060 10126.0
19.69260 10079.0
19.69460 10132.0
19.69660 10017.0
19.69860 10057.0
19.70060 10201.0
19.70260 10133.0
19.70460 9865.0
19.70660 9760.0
19.70860 9971.0
19.71060 9759.0
19.71260 9773.0
19.71460 9577.0
19.71660 9598.0
19.71860 9594.0
19.72060 9311.0
19.72260 9341.0
19.72460 9348.0
19.72660 9138.0
19.72860 9175.0
19.73060 8994.0
19.73260 8897.0
19.73460 8944.0
19.73660 8743.0
19.73860 8704.0
19.74060 8603.0
19.74260 8562.0
19.74460 8421.0
19.74660 8399.0
19.74860 8198.0
19.75060 8192.0
19.75260 7806.0
19.75460 7800.0
19.75660 7986.0
19.75860 7962.0
19.76060 7475.0
19.76260 7496.0
19.76460 7468.0
19.76660 7536.0
19.76860 7193.0
19.77060 7224.0
19.77260 7120.0
19.77460 6925.0
19.77660 6940.0
19.77860 7080.0
19.78060 6659.0
19.78260 6673.0
19.78460 6630.0
19.78660 6543.0
19.78860 6407.0
19.79060 6340.0
19.79260 6304.0
19.79460 6283.0
19.79660 6030.0
19.79860 6041.0
19.80060 5928.0
19.80260 5961.0
19.80460 5995.0
19.80660 5736.0
19.80860 5602.0
19.81060 5550.0
19.81260 5734.0
19.81460 5564.0
19.81660 5490.0
19.81860 5425.0
19.82060 5386.0
19.82260 5326.0
19.82460 5165.0
19.82660 5053.0
19.82860 5052.0
19.83060 4984.0
19.83260 4819.0
19.83460 4838.0
19.83660 4894.0
19.83860 4757.0
19.84060 4775.0
19.84260 4649.0
19.84460 4495.0
19.84660 4453.0
19.84860 4509.0
19.85060 4333.0
19.85260 4227.0
19.85460 4336.0
19.85660 4350.0
19.85860 4302.0
19.86060 4257.0
19.86260 4184.0
19.86460 4202.0
19.86660 3982.0
19.86860 3920.0
19.87060 3935.0
19.87260 3802.0
19.87460 3897.0
19.87660 3795.0
19.87860 3616.0
19.88060 3769.0
19.88260 3751.0
19.88460 3606.0
19.88660 3643.0
19.88860 3473.0
19.89060 3454.0
19.89260 3375.0
19.89460 3478.0
19.89660 3309.0
19.89860 3375.0
19.90060 3352.0
19.90260 3257.0
19.90460 3341.0
19.90660 3192.0
19.90860 3138.0
19.91060 3242.0
19.91260 3086.0
19.91460 3155.0
19.91660 3095.0
19.91860 3030.0
19.92060 2974.0
19.92260 2951.0
19.92460 2939.0
19.92660 2898.0
19.92860 2925.0
19.93060 2795.0
19.93260 2848.0
19.93460 2762.0
19.93660 2820.0
19.93860 2765.0
19.94060 2667.0
19.94260 2669.0
19.94460 2658.0
19.94660 2683.0
19.94860 2663.0
19.95060 2521.0
19.95260 2564.0
19.95460 2538.0
19.95660 2510.0
19.95860 2458.0
19.96060 2486.0
19.96260 2447.0
19.96460 2471.0
19.96660 2324.0
19.96860 2356.0
19.97060 2419.0
19.97260 2302.0
19.97460 2260.0
19.97660 2218.0
19.97860 2274.0
19.98060 2293.0
19.98260 2219.0
19.98460 2219.0
19.98660 2192.0
19.98860 2167.0
19.99060 2071.0
19.99260 2135.0
19.99460 2118.0
19.99660 2204.0
19.99860 2134.0
20.00060 2111.0
20.00260 2067.0
20.00460 2109.0
20.00660 2079.0
20.00860 1963.0
20.01060 1985.0
20.01260 1899.0
20.01460 2029.0
20.01660 2024.0
20.01860 2009.0
20.02060 1934.0
20.02260 1871.0
20.02460 1896.0
20.02660 1887.0
20.02860 1908.0
20.03060 1867.0
20.03260 1821.0
20.03460 1788.0
20.03660 1838.0
20.03860 1773.0
20.04060 1806.0
20.04260 1878.0
20.04460 1741.0
20.04660 1817.0
20.04860 1692.0
20.05060 1704.0
20.05260 1785.0
20.05460 1722.0
20.05660 1624.0
20.05860 1653.0
20.06060 1652.0
20.06260 1603.0
20.06460 1686.0
20.06660 1611.0
20.06860 1660.0
20.07060 1649.0
20.07260 1610.0
20.07460 1581.0
20.07660 1550.0
20.07860 1599.0
20.08060 1641.0
20.08260 1516.0
20.08460 1517.0
20.08660 1558.0
20.08860 1491.0
20.09060 1480.0
20.09260 1457.0
20.09460 1497.0
20.09660 1447.0
20.09860 1463.0
20.10060 1402.0
20.10260 1416.0
20.10460 1429.0
20.10660 1336.0
20.10860 1467.0
20.11060 1357.0
20.11260 1364.0
20.11460 1356.0
20.11660 1366.0
20.11860 1365.0
20.12060 1365.0
20.12260 1375.0
20.12460 1363.0
20.12660 1368.0
20.12860 1328.0
20.13060 1333.0
20.13260 1374.0
20.13460 1284.0
20.13660 1292.0
20.13860 1295.0
20.14060 1309.0
20.14260 1336.0
20.14460 1316.0
20.14660 1226.0
20.14860 1234.0
20.15060 1258.0
20.15260 1242.0
20.15460 1243.0
20.15660 1273.0
20.15860 1217.0
20.16060 1254.0
20.16260 1233.0
20.16460 1201.0
20.16660 1243.0
20.16860 1214.0
20.17060 1179.0
20.17260 1167.0
20.17460 1210.0
20.17660 1220.0
20.17860 1158.0
20.18060 1182.0
20.18260 1188.0
20.18460 1183.0
20.18660 1136.0
20.18860 1129.0
20.19060 1164.0
20.19260 1144.0
20.19460 1107.0
20.19660 1171.0
20.19860 1104.0
20.20060 1133.0
20.20260 1109.0
20.20460 1113.0
20.20660 1124.0
20.20860 1078.0
20.21060 1103.0
20.21260 1092.0
20.21460 1049.0
20.21660 1119.0
20.21860 1073.0
20.22060 1009.0
20.22260 1049.0
20.22460 1029.0
20.22660 998.0
20.22860 1029.0
20.23060 1036.0
20.23260 1011.0
20.23460 989.0
20.23660 1010.0
20.23860 1019.0
20.24060 1049.0
20.24260 997.0
20.24460 994.0
20.24660 1019.0
20.24860 958.0
20.25060 954.0
20.25260 969.0
20.25460 1010.0
20.25660 1029.0
20.25860 942.0
20.26060 980.0
20.26260 965.0
20.26460 959.0
20.26660 908.0
20.26860 1010.0
20.27060 947.0
20.27260 959.0
20.27460 950.0
20.27660 932.0
20.27860 972.0
20.28060 995.0
20.28260 955.0
20.28460 933.0
20.28660 960.0
20.28860 947.0
20.29060 928.0
20.29260 933.0
20.29460 920.0
20.29660 928.0
20.29860 888.0
20.30060 1009.0
20.30260 898.0
20.30460 927.0
20.30660 879.0
20.30860 936.0
20.31060 849.0
20.31260 902.0
20.31460 916.0
20.31660 956.0
20.31860 910.0
20.32060 919.0
20.32260 865.0
20.32460 885.0
20.32660 907.0
20.32860 838.0
20.33060 871.0
20.33260 892.0
20.33460 889.0
20.33660 880.0
20.33860 867.0
20.34060 839.0
20.34260 907.0
20.34460 852.0
20.34660 845.0
20.34860 822.0
20.35060 800.0
20.35260 810.0
20.35460 814.0
20.35660 807.0
20.35860 770.0
20.36060 807.0
20.36260 738.0
20.36460 749.0
20.36660 701.0
20.36860 707.0
20.37060 704.0
20.37260 670.0
20.37460 710.0
20.37660 691.0
20.37860 722.0
20.38060 729.0
20.38260 709.0
20.38460 668.0
20.38660 713.0
20.38860 722.0
20.39060 677.0
20.39260 693.0
20.39460 688.0
20.39660 643.0
20.39860 678.0
20.40060 674.0
20.40260 667.0
20.40460 644.0
20.40660 671.0
20.40860 677.0
20.41060 689.0
20.41260 646.0
20.41460 686.0
20.41660 656.0
20.41860 620.0
20.42060 629.0
20.42260 683.0
20.42460 641.0
20.42660 627.0
20.42860 675.0
20.43060 649.0
20.43260 620.0
20.43460 633.0
20.43660 658.0
20.43860 663.0
20.44060 600.0
20.44260 664.0
20.44460 608.0
20.44660 616.0
20.44860 598.0
20.45060 626.0
20.45260 644.0
20.45460 622.0
20.45660 646.0
20.45860 632.0
20.46060 617.0
20.46260 629.0
20.46460 610.0
20.46660 649.0
20.46860 632.0
20.47060 583.0
20.47260 598.0
20.47460 537.0
20.47660 581.0
20.47860 589.0
20.48060 622.0
20.48260 583.0
20.48460 630.0
20.48660 600.0
20.48860 630.0
20.49060 609.0
20.49260 594.0
20.49460 613.0
20.49660 575.0
20.49860 547.0
20.50060 567.0
20.50260 572.0
20.50460 602.0
20.50660 615.0
20.50860 603.0
20.51060 544.0
20.51260 597.0
20.51460 545.0
20.51660 598.0
20.51860 570.0
20.52060 579.0
20.52260 630.0
20.52460 593.0
20.52660 590.0
20.52860 594.0
20.53060 570.0
20.53260 568.0
20.53460 564.0
20.53660 541.0
20.53860 564.0
20.54060 532.0
20.54260 608.0
20.54460 594.0
20.54660 530.0
20.54860 527.0
20.55060 544.0
20.55260 604.0
20.55460 548.0
20.55660 540.0
20.55860 650.0
20.56060 566.0
20.56260 569.0
20.56460 562.0
20.56660 575.0
20.56860 527.0
20.57060 547.0
20.57260 560.0
20.57460 546.0
20.57660 558.0
20.57860 529.0
20.58060 564.0
20.58260 519.0
20.58460 522.0
20.58660 512.0
20.58860 546.0
20.59060 577.0
20.59260 554.0
20.59460 573.0
20.59660 500.0
20.59860 532.0
20.60060 550.0
20.60260 533.0
20.60460 539.0
20.60660 582.0
20.60860 521.0
20.61060 526.0
20.61260 516.0
20.61460 516.0
20.61660 491.0
20.61860 531.0
20.62060 534.0
20.62260 527.0
20.62460 539.0
20.62660 506.0
20.62860 514.0
20.63060 539.0
20.63260 513.0
20.63460 494.0
20.63660 525.0
20.63860 509.0
20.64060 509.0
20.64260 521.0
20.64460 539.0
20.64660 507.0
20.64860 511.0
20.65060 506.0
20.65260 513.0
20.65460 498.0
20.65660 524.0
20.65860 511.0
20.66060 482.0
20.66260 514.0
20.66460 515.0
20.66660 513.0
20.66860 508.0
20.67060 497.0
20.67260 519.0
20.67460 478.0
20.67660 521.0
20.67860 491.0
20.68060 500.0
20.68260 521.0
20.68460 448.0
20.68660 497.0