File: data/W6910m/XRD_2ThetaOmega/w6910m_scan_2th-om_m_Cr2O3_55-75deg_PIXscan_4min.xy
55.0019 106.0
55.0166 114.0
55.0314 106.0
55.0462 121.0
55.0609 102.0
55.0757 112.0
55.0905 108.0
55.1053 107.0
55.12 90.0
55.1348 139.0
55.1496 114.0
55.1643 91.0
55.1791 141.0
55.1939 125.0
55.2087 105.0
55.2234 123.0
55.2382 107.0
55.253 118.0
55.2678 103.0
55.2825 102.0
55.2973 127.0
55.3121 113.0
55.3268 125.0
55.3416 121.0
55.3564 116.0
55.3712 137.0
55.3859 117.0
55.4007 119.0
55.4155 120.0
55.4302 119.0
55.445 133.0
55.4598 118.0
55.4746 130.0
55.4893 114.0
55.5041 109.0
55.5189 118.0
55.5336 107.0
55.5484 128.0
55.5632 109.0
55.578 126.0
55.5927 107.0
55.6075 119.0
55.6223 106.0
55.637 118.0
55.6518 122.0
55.6666 116.0
55.6814 108.0
55.6961 114.0
55.7109 128.0
55.7257 97.0
55.7404 115.0
55.7552 112.0
55.77 116.0
55.7848 104.0
55.7995 97.0
55.8143 105.0
55.8291 96.0
55.8438 97.0
55.8586 122.0
55.8734 131.0
55.8882 126.0
55.9029 128.0
55.9177 122.0
55.9325 112.0
55.9472 117.0
55.962 105.0
55.9768 124.0
55.9916 111.0
56.0063 125.0
56.0211 90.0
56.0359 111.0
56.0506 118.0
56.0654 96.0
56.0802 117.0
56.095 120.0
56.1097 127.0
56.1245 113.0
56.1393 106.0
56.154 100.0
56.1688 103.0
56.1836 118.0
56.1984 109.0
56.2131 108.0
56.2279 121.0
56.2427 119.0
56.2574 120.0
56.2722 130.0
56.287 115.0
56.3018 134.0
56.3165 97.0
56.3313 119.0
56.3461 98.0
56.3608 114.0
56.3756 121.0
56.3904 119.0
56.4052 113.0
56.4199 110.0
56.4347 121.0
56.4495 106.0
56.4642 96.0
56.479 128.0
56.4938 120.0
56.5086 114.0
56.5233 120.0
56.5381 103.0
56.5529 129.0
56.5676 113.0
56.5824 110.0
56.5972 124.0
56.612 106.0
56.6267 123.0
56.6415 116.0
56.6563 115.0
56.671 121.0
56.6858 130.0
56.7006 127.0
56.7154 95.0
56.7301 113.0
56.7449 105.0
56.7597 125.0
56.7745 99.0
56.7892 120.0
56.804 143.0
56.8188 99.0
56.8335 137.0
56.8483 109.0
56.8631 115.0
56.8779 130.0
56.8926 108.0
56.9074 120.0
56.9222 131.0
56.9369 108.0
56.9517 120.0
56.9665 110.0
56.9813 108.0
56.996 130.0
57.0108 131.0
57.0256 128.0
57.0403 120.0
57.0551 118.0
57.0699 136.0
57.0847 111.0
57.0994 116.0
57.1142 144.0
57.129 113.0
57.1437 117.0
57.1585 114.0
57.1733 113.0
57.1881 114.0
57.2028 136.0
57.2176 101.0
57.2324 118.0
57.2471 129.0
57.2619 139.0
57.2767 105.0
57.2915 118.0
57.3062 111.0
57.321 130.0
57.3358 119.0
57.3505 114.0
57.3653 107.0
57.3801 121.0
57.3949 110.0
57.4096 115.0
57.4244 130.0
57.4392 125.0
57.4539 119.0
57.4687 106.0
57.4835 122.0
57.4983 117.0
57.513 118.0
57.5278 120.0
57.5426 102.0
57.5573 136.0
57.5721 128.0
57.5869 112.0
57.6017 144.0
57.6164 119.0
57.6312 162.0
57.646 123.0
57.6607 123.0
57.6755 148.0
57.6903 128.0
57.7051 156.0
57.7198 134.0
57.7346 116.0
57.7494 125.0
57.7641 118.0
57.7789 144.0
57.7937 141.0
57.8085 131.0
57.8232 133.0
57.838 124.0
57.8528 123.0
57.8675 109.0
57.8823 142.0
57.8971 147.0
57.9119 119.0
57.9266 130.0
57.9414 130.0
57.9562 128.0
57.9709 116.0
57.9857 112.0
58.0005 125.0
58.0153 109.0
58.03 140.0
58.0448 108.0
58.0596 115.0
58.0743 137.0
58.0891 113.0
58.1039 122.0
58.1187 120.0
58.1334 103.0
58.1482 116.0
58.163 123.0
58.1777 133.0
58.1925 110.0
58.2073 120.0
58.2221 131.0
58.2368 133.0
58.2516 108.0
58.2664 111.0
58.2812 118.0
58.2959 127.0
58.3107 116.0
58.3255 120.0
58.3402 113.0
58.355 141.0
58.3698 115.0
58.3846 106.0
58.3993 115.0
58.4141 116.0
58.4289 122.0
58.4436 116.0
58.4584 105.0
58.4732 131.0
58.488 136.0
58.5027 113.0
58.5175 123.0
58.5323 125.0
58.547 118.0
58.5618 93.0
58.5766 113.0
58.5914 103.0
58.6061 110.0
58.6209 117.0
58.6357 119.0
58.6504 95.0
58.6652 115.0
58.68 122.0
58.6948 104.0
58.7095 126.0
58.7243 125.0
58.7391 120.0
58.7538 129.0
58.7686 107.0
58.7834 108.0
58.7982 138.0
58.8129 118.0
58.8277 113.0
58.8425 120.0
58.8572 117.0
58.872 102.0
58.8868 114.0
58.9016 109.0
58.9163 142.0
58.9311 120.0
58.9459 120.0
58.9606 108.0
58.9754 145.0
58.9902 117.0
59.005 120.0
59.0197 133.0
59.0345 114.0
59.0493 126.0
59.064 107.0
59.0788 127.0
59.0936 125.0
59.1084 133.0
59.1231 130.0
59.1379 117.0
59.1527 125.0
59.1674 139.0
59.1822 114.0
59.197 130.0
59.2118 133.0
59.2265 123.0
59.2413 109.0
59.2561 119.0
59.2708 131.0
59.2856 96.0
59.3004 101.0
59.3152 116.0
59.3299 107.0
59.3447 123.0
59.3595 107.0
59.3742 114.0
59.389 118.0
59.4038 124.0
59.4186 89.0
59.4333 108.0
59.4481 95.0
59.4629 113.0
59.4776 103.0
59.4924 123.0
59.5072 131.0
59.522 110.0
59.5367 104.0
59.5515 107.0
59.5663 107.0
59.581 112.0
59.5958 130.0
59.6106 130.0
59.6254 117.0
59.6401 107.0
59.6549 122.0
59.6697 127.0
59.6844 116.0
59.6992 117.0
59.714 110.0
59.7288 108.0
59.7435 104.0
59.7583 121.0
59.7731 128.0
59.7878 126.0
59.8026 116.0
59.8174 122.0
59.8322 110.0
59.8469 106.0
59.8617 128.0
59.8765 130.0
59.8913 128.0
59.906 113.0
59.9208 122.0
59.9356 117.0
59.9503 143.0
59.9651 107.0
59.9799 103.0
59.9947 121.0
60.0094 120.0
60.0242 128.0
60.039 101.0
60.0537 131.0
60.0685 109.0
60.0833 110.0
60.0981 122.0
60.1128 132.0
60.1276 133.0
60.1424 105.0
60.1571 133.0
60.1719 111.0
60.1867 92.0
60.2015 109.0
60.2162 126.0
60.231 126.0
60.2458 115.0
60.2605 140.0
60.2753 135.0
60.2901 123.0
60.3049 135.0
60.3196 117.0
60.3344 137.0
60.3492 134.0
60.3639 135.0
60.3787 117.0
60.3935 140.0
60.4083 145.0
60.423 128.0
60.4378 145.0
60.4526 119.0
60.4673 142.0
60.4821 119.0
60.4969 152.0
60.5117 131.0
60.5264 153.0
60.5412 128.0
60.556 135.0
60.5707 128.0
60.5855 149.0
60.6003 129.0
60.6151 144.0
60.6298 140.0
60.6446 163.0
60.6594 151.0
60.6741 155.0
60.6889 177.0
60.7037 159.0
60.7185 174.0
60.7332 182.0
60.748 181.0
60.7628 280.0
60.7775 392.0
60.7923 490.0
60.8071 791.0
60.8219 1093.0
60.8366 1274.0
60.8514 1263.0
60.8662 1129.0
60.8809 890.0
60.8957 683.0
60.9105 636.0
60.9253 606.0
60.94 496.0
60.9548 435.0
60.9696 301.0
60.9843 231.0
60.9991 202.0
61.0139 191.0
61.0287 164.0
61.0434 178.0
61.0582 141.0
61.073 160.0
61.0877 165.0
61.1025 144.0
61.1173 153.0
61.1321 140.0
61.1468 151.0
61.1616 148.0
61.1764 160.0
61.1911 148.0
61.2059 152.0
61.2207 137.0
61.2355 150.0
61.2502 142.0
61.265 146.0
61.2798 137.0
61.2945 141.0
61.3093 132.0
61.3241 134.0
61.3389 144.0
61.3536 165.0
61.3684 128.0
61.3832 148.0
61.398 136.0
61.4127 115.0
61.4275 116.0
61.4423 142.0
61.457 135.0
61.4718 122.0
61.4866 144.0
61.5014 148.0
61.5161 127.0
61.5309 146.0
61.5457 134.0
61.5604 137.0
61.5752 156.0
61.59 161.0
61.6048 114.0
61.6195 133.0
61.6343 133.0
61.6491 150.0
61.6638 142.0
61.6786 150.0
61.6934 135.0
61.7082 126.0
61.7229 157.0
61.7377 130.0
61.7525 136.0
61.7672 138.0
61.782 126.0
61.7968 133.0
61.8116 122.0
61.8263 152.0
61.8411 143.0
61.8559 140.0
61.8706 124.0
61.8854 131.0
61.9002 143.0
61.915 152.0
61.9297 116.0
61.9445 133.0
61.9593 129.0
61.974 145.0
61.9888 140.0
62.0036 158.0
62.0184 135.0
62.0331 129.0
62.0479 138.0
62.0627 153.0
62.0774 147.0
62.0922 141.0
62.107 137.0
62.1218 125.0
62.1365 151.0
62.1513 145.0
62.1661 156.0
62.1808 158.0
62.1956 138.0
62.2104 152.0
62.2252 131.0
62.2399 147.0
62.2547 133.0
62.2695 164.0
62.2842 148.0
62.299 138.0
62.3138 145.0
62.3286 135.0
62.3433 135.0
62.3581 144.0
62.3729 146.0
62.3876 127.0
62.4024 125.0
62.4172 162.0
62.432 138.0
62.4467 163.0
62.4615 146.0
62.4763 148.0
62.491 149.0
62.5058 140.0
62.5206 154.0
62.5354 142.0
62.5501 133.0
62.5649 155.0
62.5797 165.0
62.5944 146.0
62.6092 161.0
62.624 146.0
62.6388 143.0
62.6535 132.0
62.6683 183.0
62.6831 144.0
62.6978 147.0
62.7126 154.0
62.7274 170.0
62.7422 153.0
62.7569 134.0
62.7717 177.0
62.7865 165.0
62.8012 155.0
62.816 151.0
62.8308 165.0
62.8456 151.0
62.8603 182.0
62.8751 173.0
62.8899 168.0
62.9047 182.0
62.9194 167.0
62.9342 158.0
62.949 169.0
62.9637 185.0
62.9785 161.0
62.9933 170.0
63.0081 161.0
63.0228 172.0
63.0376 184.0
63.0524 176.0
63.0671 203.0
63.0819 184.0
63.0967 186.0
63.1115 169.0
63.1262 167.0
63.141 163.0
63.1558 164.0
63.1705 168.0
63.1853 187.0
63.2001 182.0
63.2149 166.0
63.2296 179.0
63.2444 195.0
63.2592 184.0
63.2739 190.0
63.2887 188.0
63.3035 218.0
63.3183 200.0
63.333 179.0
63.3478 187.0
63.3626 191.0
63.3773 216.0
63.3921 213.0
63.4069 227.0
63.4217 218.0
63.4364 197.0
63.4512 212.0
63.466 207.0
63.4807 191.0
63.4955 197.0
63.5103 217.0
63.5251 216.0
63.5398 216.0
63.5546 230.0
63.5694 258.0
63.5841 242.0
63.5989 229.0
63.6137 268.0
63.6285 231.0
63.6432 238.0
63.658 249.0
63.6728 220.0
63.6875 281.0
63.7023 261.0
63.7171 310.0
63.7319 286.0
63.7466 293.0
63.7614 287.0
63.7762 329.0
63.7909 321.0
63.8057 300.0
63.8205 321.0
63.8353 337.0
63.85 344.0
63.8648 364.0
63.8796 374.0
63.8943 374.0
63.9091 395.0
63.9239 433.0
63.9387 424.0
63.9534 423.0
63.9682 449.0
63.983 418.0
63.9977 530.0
64.0125 521.0
64.0273 515.0
64.0421 542.0
64.0568 581.0
64.0716 603.0
64.0864 622.0
64.1011 662.0
64.1159 681.0
64.1307 751.0
64.1455 775.0
64.1602 815.0
64.175 853.0
64.1898 921.0
64.2045 932.0
64.2193 1053.0
64.2341 1073.0
64.2489 1143.0
64.2636 1237.0
64.2784 1291.0
64.2932 1407.0
64.3079 1522.0
64.3227 1612.0
64.3375 1717.0
64.3523 1840.0
64.367 1972.0
64.3818 2156.0
64.3966 2302.0
64.4114 2423.0
64.4261 2549.0
64.4409 2700.0
64.4557 2778.0
64.4704 3032.0
64.4852 3203.0
64.5 3348.0
64.5148 3493.0
64.5295 3700.0
64.5443 3835.0
64.5591 3965.0
64.5738 4047.0
64.5886 4289.0
64.6034 4479.0
64.6182 4361.0
64.6329 4543.0
64.6477 4684.0
64.6625 4636.0
64.6772 4677.0
64.692 4521.0
64.7068 4534.0
64.7216 4367.0
64.7363 4288.0
64.7511 4181.0
64.7659 3980.0
64.7806 3810.0
64.7954 3700.0
64.8102 3627.0
64.825 3413.0
64.8397 3224.0
64.8545 2990.0
64.8693 2935.0
64.884 2750.0
64.8988 2616.0
64.9136 2427.0
64.9284 2338.0
64.9431 2173.0
64.9579 2082.0
64.9727 1923.0
64.9874 1804.0
65.0022 1566.0
65.017 1561.0
65.0318 1390.0
65.0465 1335.0
65.0613 1193.0
65.0761 1210.0
65.0908 1020.0
65.1056 1057.0
65.1204 1042.0
65.1352 886.0
65.1499 851.0
65.1647 836.0
65.1795 791.0
65.1942 748.0
65.209 738.0
65.2238 731.0
65.2386 698.0
65.2533 599.0
65.2681 615.0
65.2829 552.0
65.2976 557.0
65.3124 579.0
65.3272 523.0
65.342 499.0
65.3567 485.0
65.3715 508.0
65.3863 472.0
65.401 447.0
65.4158 426.0
65.4306 461.0
65.4454 448.0
65.4601 382.0
65.4749 396.0
65.4897 358.0
65.5044 392.0
65.5192 347.0
65.534 356.0
65.5488 349.0
65.5635 383.0
65.5783 331.0
65.5931 320.0
65.6078 331.0
65.6226 290.0
65.6374 312.0
65.6522 292.0
65.6669 283.0
65.6817 339.0
65.6965 270.0
65.7112 300.0
65.726 281.0
65.7408 270.0
65.7556 282.0
65.7703 285.0
65.7851 291.0
65.7999 282.0
65.8146 264.0
65.8294 270.0
65.8442 239.0
65.859 225.0
65.8737 268.0
65.8885 289.0
65.9033 279.0
65.9181 274.0
65.9328 265.0
65.9476 242.0
65.9624 256.0
65.9771 260.0
65.9919 234.0
66.0067 259.0
66.0215 273.0
66.0362 267.0
66.051 256.0
66.0658 276.0
66.0805 230.0
66.0953 279.0
66.1101 234.0
66.1249 279.0
66.1396 273.0
66.1544 305.0
66.1692 268.0
66.1839 294.0
66.1987 307.0
66.2135 289.0
66.2283 291.0
66.243 280.0
66.2578 310.0
66.2726 281.0
66.2873 290.0
66.3021 307.0
66.3169 273.0
66.3317 278.0
66.3464 289.0
66.3612 284.0
66.376 297.0
66.3907 312.0
66.4055 319.0
66.4203 297.0
66.4351 326.0
66.4498 291.0
66.4646 331.0
66.4794 332.0
66.4941 296.0
66.5089 315.0
66.5237 317.0
66.5385 302.0
66.5532 332.0
66.568 336.0
66.5828 351.0
66.5975 340.0
66.6123 354.0
66.6271 329.0
66.6419 323.0
66.6566 333.0
66.6714 382.0
66.6862 317.0
66.7009 326.0
66.7157 352.0
66.7305 361.0
66.7453 362.0
66.76 431.0
66.7748 376.0
66.7896 370.0
66.8043 385.0
66.8191 397.0
66.8339 394.0
66.8487 369.0
66.8634 400.0
66.8782 420.0
66.893 407.0
66.9077 400.0
66.9225 456.0
66.9373 400.0
66.9521 429.0
66.9668 412.0
66.9816 434.0
66.9964 431.0
67.0111 425.0
67.0259 495.0
67.0407 520.0
67.0555 449.0
67.0702 454.0
67.085 487.0
67.0998 538.0
67.1145 504.0
67.1293 512.0
67.1441 525.0
67.1589 513.0
67.1736 537.0
67.1884 538.0
67.2032 498.0
67.2179 516.0
67.2327 553.0
67.2475 539.0
67.2623 592.0
67.277 591.0
67.2918 617.0
67.3066 591.0
67.3213 614.0
67.3361 615.0
67.3509 640.0
67.3657 642.0
67.3804 651.0
67.3952 705.0
67.41 659.0
67.4248 710.0
67.4395 749.0
67.4543 711.0
67.4691 727.0
67.4838 758.0
67.4986 787.0
67.5134 790.0
67.5282 794.0
67.5429 818.0
67.5577 871.0
67.5725 836.0
67.5872 937.0
67.602 907.0
67.6168 993.0
67.6316 1044.0
67.6463 1068.0
67.6611 1097.0
67.6759 1212.0
67.6906 1249.0
67.7054 1299.0
67.7202 1491.0
67.735 1660.0
67.7497 1915.0
67.7645 2206.0
67.7793 2537.0
67.794 2742.0
67.8088 3075.0
67.8236 3360.0
67.8384 3380.0
67.8531 3712.0
67.8679 3440.0
67.8827 3488.0
67.8974 3535.0
67.9122 3443.0
67.927 3467.0
67.9418 3564.0
67.9565 3905.0
67.9713 4172.0
67.9861 4933.0
68.0008 5414.0
68.0156 6651.0
68.0304 7748.0
68.0452 10117.0
68.0599 12220.0
68.0747 16926.0
68.0895 22946.0
68.1042 37889.0
68.119 73602.0
68.1338 178264.0
68.1486 296315.0
68.1633 338190.0
68.1781 322903.0
68.1929 210554.0
68.2076 99774.0
68.2224 51609.0
68.2372 31152.0
68.252 22229.0
68.2667 19262.0
68.2815 20497.0
68.2963 26220.0
68.311 43611.0
68.3258 89053.0
68.3406 142036.0
68.3554 165380.0
68.3701 156713.0
68.3849 110263.0
68.3997 58064.0
68.4144 29681.0
68.4292 17613.0
68.444 11736.0
68.4588 8700.0
68.4735 6862.0
68.4883 5816.0
68.5031 4960.0
68.5178 4371.0
68.5326 3935.0
68.5474 3603.0
68.5622 3259.0
68.5769 2927.0
68.5917 2618.0
68.6065 2410.0
68.6212 2313.0
68.636 2135.0
68.6508 1981.0
68.6656 1859.0
68.6803 1711.0
68.6951 1652.0
68.7099 1519.0
68.7246 1466.0
68.7394 1414.0
68.7542 1369.0
68.769 1289.0
68.7837 1228.0
68.7985 1212.0
68.8133 1153.0
68.828 1057.0
68.8428 1034.0
68.8576 955.0
68.8724 899.0
68.8871 937.0
68.9019 864.0
68.9167 880.0
68.9315 825.0
68.9462 822.0
68.961 780.0
68.9758 761.0
68.9905 712.0
69.0053 710.0
69.0201 694.0
69.0349 709.0
69.0496 650.0
69.0644 602.0
69.0792 609.0
69.0939 608.0
69.1087 593.0
69.1235 583.0
69.1383 554.0
69.153 503.0
69.1678 562.0
69.1826 514.0
69.1973 482.0
69.2121 494.0
69.2269 483.0
69.2417 468.0
69.2564 469.0
69.2712 474.0
69.286 461.0
69.3007 421.0
69.3155 435.0
69.3303 456.0
69.3451 442.0
69.3598 384.0
69.3746 386.0
69.3894 373.0
69.4041 364.0
69.4189 373.0
69.4337 326.0
69.4485 360.0
69.4632 363.0
69.478 339.0
69.4928 338.0
69.5075 366.0
69.5223 316.0
69.5371 295.0
69.5519 356.0
69.5666 300.0
69.5814 305.0
69.5962 266.0
69.6109 292.0
69.6257 290.0
69.6405 310.0
69.6553 286.0
69.67 257.0
69.6848 255.0
69.6996 226.0
69.7143 285.0
69.7291 281.0
69.7439 261.0
69.7587 215.0
69.7734 259.0
69.7882 190.0
69.803 264.0
69.8177 258.0
69.8325 217.0
69.8473 232.0
69.8621 214.0
69.8768 214.0
69.8916 210.0
69.9064 193.0
69.9211 212.0
69.9359 218.0
69.9507 188.0
69.9655 202.0
69.9802 188.0
69.995 172.0
70.0098 186.0
70.0245 187.0
70.0393 205.0
70.0541 184.0
70.0689 175.0
70.0836 193.0
70.0984 195.0
70.1132 210.0
70.1279 211.0
70.1427 199.0
70.1575 194.0
70.1723 182.0
70.187 172.0
70.2018 201.0
70.2166 181.0
70.2313 174.0
70.2461 182.0
70.2609 186.0
70.2757 169.0
70.2904 181.0
70.3052 161.0
70.32 180.0
70.3347 165.0
70.3495 175.0
70.3643 187.0
70.3791 180.0
70.3938 144.0
70.4086 192.0
70.4234 153.0
70.4382 177.0
70.4529 179.0
70.4677 179.0
70.4825 168.0
70.4972 158.0
70.512 167.0
70.5268 188.0
70.5416 177.0
70.5563 184.0
70.5711 173.0
70.5859 173.0
70.6006 149.0
70.6154 156.0
70.6302 191.0
70.645 145.0
70.6597 155.0
70.6745 144.0
70.6893 179.0
70.704 161.0
70.7188 161.0
70.7336 149.0
70.7484 151.0
70.7631 163.0
70.7779 138.0
70.7927 182.0
70.8074 156.0
70.8222 161.0
70.837 178.0
70.8518 139.0
70.8665 133.0
70.8813 152.0
70.8961 181.0
70.9108 150.0
70.9256 174.0
70.9404 176.0
70.9552 135.0
70.9699 171.0
70.9847 147.0
70.9995 134.0
71.0142 143.0
71.029 143.0
71.0438 158.0
71.0586 156.0
71.0733 159.0
71.0881 155.0
71.1029 152.0
71.1176 153.0
71.1324 139.0
71.1472 152.0
71.162 158.0
71.1767 151.0
71.1915 174.0
71.2063 152.0
71.221 146.0
71.2358 128.0
71.2506 156.0
71.2654 166.0
71.2801 138.0
71.2949 163.0
71.3097 121.0
71.3244 143.0
71.3392 161.0
71.354 133.0
71.3688 140.0
71.3835 135.0
71.3983 131.0
71.4131 157.0
71.4278 140.0
71.4426 148.0
71.4574 139.0
71.4722 131.0
71.4869 151.0
71.5017 149.0
71.5165 148.0
71.5312 160.0
71.546 157.0
71.5608 150.0
71.5756 131.0
71.5903 151.0
71.6051 141.0
71.6199 137.0
71.6346 173.0
71.6494 139.0
71.6642 126.0
71.679 130.0
71.6937 131.0
71.7085 133.0
71.7233 125.0
71.738 151.0
71.7528 130.0
71.7676 161.0
71.7824 151.0
71.7971 126.0
71.8119 131.0
71.8267 123.0
71.8414 131.0
71.8562 124.0
71.871 129.0
71.8858 144.0
71.9005 145.0
71.9153 133.0
71.9301 144.0
71.9449 142.0
71.9596 135.0
71.9744 164.0
71.9892 141.0
72.0039 124.0
72.0187 120.0
72.0335 132.0
72.0483 120.0
72.063 160.0
72.0778 136.0
72.0926 153.0
72.1073 138.0
72.1221 141.0
72.1369 141.0
72.1517 135.0
72.1664 155.0
72.1812 124.0
72.196 156.0
72.2107 156.0
72.2255 141.0
72.2403 121.0
72.2551 139.0
72.2698 121.0
72.2846 132.0
72.2994 108.0
72.3141 134.0
72.3289 133.0
72.3437 105.0
72.3585 119.0
72.3732 132.0
72.388 123.0
72.4028 120.0
72.4175 116.0
72.4323 136.0
72.4471 119.0
72.4619 134.0
72.4766 129.0
72.4914 154.0
72.5062 130.0
72.5209 135.0
72.5357 133.0
72.5505 133.0
72.5653 142.0
72.58 123.0
72.5948 140.0
72.6096 123.0
72.6243 131.0
72.6391 134.0
72.6539 127.0
72.6687 135.0
72.6834 127.0
72.6982 149.0
72.713 134.0
72.7277 138.0
72.7425 128.0
72.7573 134.0
72.7721 110.0
72.7868 140.0
72.8016 119.0
72.8164 135.0
72.8311 128.0
72.8459 116.0
72.8607 140.0
72.8755 120.0
72.8902 128.0
72.905 121.0
72.9198 130.0
72.9345 128.0
72.9493 139.0
72.9641 141.0
72.9789 138.0
72.9936 145.0
73.0084 152.0
73.0232 132.0
73.0379 140.0
73.0527 123.0
73.0675 145.0
73.0823 122.0
73.097 134.0
73.1118 138.0
73.1266 117.0
73.1413 118.0
73.1561 133.0
73.1709 144.0
73.1857 129.0
73.2004 146.0
73.2152 138.0
73.23 123.0
73.2447 112.0
73.2595 125.0
73.2743 127.0
73.2891 141.0
73.3038 131.0
73.3186 116.0
73.3334 142.0
73.3481 128.0
73.3629 133.0
73.3777 129.0
73.3925 118.0
73.4072 132.0
73.422 123.0
73.4368 136.0
73.4516 135.0
73.4663 134.0
73.4811 132.0
73.4959 136.0
73.5106 123.0
73.5254 136.0
73.5402 147.0
73.555 120.0
73.5697 121.0
73.5845 128.0
73.5993 143.0
73.614 134.0
73.6288 113.0
73.6436 140.0
73.6584 121.0
73.6731 124.0
73.6879 110.0
73.7027 108.0
73.7174 121.0
73.7322 126.0
73.747 138.0
73.7618 114.0
73.7765 145.0
73.7913 129.0
73.8061 97.0
73.8208 103.0
73.8356 139.0
73.8504 143.0
73.8652 139.0
73.8799 127.0
73.8947 100.0
73.9095 125.0
73.9242 124.0
73.939 154.0
73.9538 137.0
73.9686 129.0
73.9833 108.0
73.9981 132.0
74.0129 148.0
74.0276 116.0
74.0424 125.0
74.0572 124.0
74.072 99.0
74.0867 132.0
74.1015 113.0
74.1163 106.0
74.131 130.0
74.1458 145.0
74.1606 119.0
74.1754 130.0
74.1901 127.0
74.2049 140.0
74.2197 131.0
74.2344 143.0
74.2492 135.0
74.264 135.0
74.2788 119.0
74.2935 135.0
74.3083 119.0
74.3231 138.0
74.3378 112.0
74.3526 112.0
74.3674 129.0
74.3822 137.0
74.3969 129.0
74.4117 124.0
74.4265 115.0
74.4412 112.0
74.456 110.0
74.4708 125.0
74.4856 124.0
74.5003 122.0
74.5151 130.0
74.5299 123.0
74.5446 127.0
74.5594 125.0
74.5742 123.0
74.589 143.0
74.6037 102.0
74.6185 111.0
74.6333 124.0
74.648 133.0
74.6628 122.0
74.6776 122.0
74.6924 134.0
74.7071 126.0
74.7219 132.0
74.7367 131.0
74.7514 140.0
74.7662 112.0
74.781 137.0
74.7958 129.0
74.8105 144.0
74.8253 115.0
74.8401 114.0
74.8548 133.0
74.8696 146.0
74.8844 120.0
74.8992 130.0
74.9139 117.0
74.9287 111.0
74.9435 140.0
74.9583 136.0
74.973 137.0
74.9878 112.0
74.9976 132.0