File: data/W6907m/XRD_2ThetaOmega/scan_2th-om_m_Cr2O3_55-75deg_PIXscan_4min_C8.xy
55.0019 150.0
55.0166 136.0
55.0314 137.0
55.0462 161.0
55.0609 157.0
55.0757 152.0
55.0905 139.0
55.1053 135.0
55.12 150.0
55.1348 161.0
55.1496 167.0
55.1643 141.0
55.1791 144.0
55.1939 152.0
55.2087 158.0
55.2234 137.0
55.2382 155.0
55.253 159.0
55.2678 144.0
55.2825 133.0
55.2973 149.0
55.3121 140.0
55.3268 159.0
55.3416 159.0
55.3564 152.0
55.3712 160.0
55.3859 140.0
55.4007 138.0
55.4155 126.0
55.4302 150.0
55.445 148.0
55.4598 136.0
55.4746 154.0
55.4893 145.0
55.5041 165.0
55.5189 154.0
55.5336 126.0
55.5484 140.0
55.5632 154.0
55.578 128.0
55.5927 157.0
55.6075 163.0
55.6223 175.0
55.637 140.0
55.6518 151.0
55.6666 143.0
55.6814 144.0
55.6961 154.0
55.7109 135.0
55.7257 137.0
55.7404 151.0
55.7552 131.0
55.77 141.0
55.7848 144.0
55.7995 142.0
55.8143 155.0
55.8291 153.0
55.8438 150.0
55.8586 152.0
55.8734 153.0
55.8882 147.0
55.9029 165.0
55.9177 146.0
55.9325 137.0
55.9472 135.0
55.962 148.0
55.9768 147.0
55.9916 159.0
56.0063 126.0
56.0211 148.0
56.0359 140.0
56.0506 143.0
56.0654 161.0
56.0802 158.0
56.095 140.0
56.1097 136.0
56.1245 144.0
56.1393 151.0
56.154 154.0
56.1688 151.0
56.1836 125.0
56.1984 142.0
56.2131 155.0
56.2279 161.0
56.2427 144.0
56.2574 150.0
56.2722 146.0
56.287 152.0
56.3018 156.0
56.3165 167.0
56.3313 121.0
56.3461 155.0
56.3608 156.0
56.3756 158.0
56.3904 146.0
56.4052 153.0
56.4199 145.0
56.4347 124.0
56.4495 143.0
56.4642 138.0
56.479 138.0
56.4938 139.0
56.5086 135.0
56.5233 145.0
56.5381 135.0
56.5529 178.0
56.5676 156.0
56.5824 149.0
56.5972 152.0
56.612 138.0
56.6267 146.0
56.6415 150.0
56.6563 158.0
56.671 150.0
56.6858 141.0
56.7006 143.0
56.7154 180.0
56.7301 148.0
56.7449 160.0
56.7597 134.0
56.7745 166.0
56.7892 141.0
56.804 159.0
56.8188 163.0
56.8335 145.0
56.8483 171.0
56.8631 162.0
56.8779 127.0
56.8926 138.0
56.9074 120.0
56.9222 173.0
56.9369 124.0
56.9517 146.0
56.9665 156.0
56.9813 157.0
56.996 144.0
57.0108 147.0
57.0256 127.0
57.0403 150.0
57.0551 153.0
57.0699 140.0
57.0847 139.0
57.0994 146.0
57.1142 144.0
57.129 159.0
57.1437 160.0
57.1585 167.0
57.1733 183.0
57.1881 164.0
57.2028 131.0
57.2176 135.0
57.2324 162.0
57.2471 137.0
57.2619 136.0
57.2767 134.0
57.2915 125.0
57.3062 167.0
57.321 169.0
57.3358 163.0
57.3505 148.0
57.3653 130.0
57.3801 157.0
57.3949 145.0
57.4096 146.0
57.4244 152.0
57.4392 153.0
57.4539 160.0
57.4687 161.0
57.4835 147.0
57.4983 142.0
57.513 154.0
57.5278 155.0
57.5426 138.0
57.5573 154.0
57.5721 164.0
57.5869 134.0
57.6017 155.0
57.6164 142.0
57.6312 149.0
57.646 141.0
57.6607 151.0
57.6755 171.0
57.6903 139.0
57.7051 147.0
57.7198 148.0
57.7346 155.0
57.7494 161.0
57.7641 171.0
57.7789 160.0
57.7937 142.0
57.8085 147.0
57.8232 131.0
57.838 157.0
57.8528 139.0
57.8675 147.0
57.8823 154.0
57.8971 161.0
57.9119 148.0
57.9266 155.0
57.9414 144.0
57.9562 158.0
57.9709 176.0
57.9857 166.0
58.0005 144.0
58.0153 143.0
58.03 140.0
58.0448 143.0
58.0596 181.0
58.0743 176.0
58.0891 184.0
58.1039 158.0
58.1187 159.0
58.1334 135.0
58.1482 155.0
58.163 149.0
58.1777 153.0
58.1925 163.0
58.2073 139.0
58.2221 151.0
58.2368 123.0
58.2516 141.0
58.2664 149.0
58.2812 164.0
58.2959 149.0
58.3107 136.0
58.3255 167.0
58.3402 151.0
58.355 142.0
58.3698 152.0
58.3846 156.0
58.3993 183.0
58.4141 152.0
58.4289 147.0
58.4436 152.0
58.4584 134.0
58.4732 156.0
58.488 154.0
58.5027 153.0
58.5175 156.0
58.5323 152.0
58.547 157.0
58.5618 157.0
58.5766 152.0
58.5914 165.0
58.6061 152.0
58.6209 153.0
58.6357 157.0
58.6504 163.0
58.6652 148.0
58.68 159.0
58.6948 129.0
58.7095 141.0
58.7243 143.0
58.7391 159.0
58.7538 136.0
58.7686 138.0
58.7834 170.0
58.7982 142.0
58.8129 158.0
58.8277 161.0
58.8425 132.0
58.8572 155.0
58.872 153.0
58.8868 134.0
58.9016 144.0
58.9163 153.0
58.9311 137.0
58.9459 132.0
58.9606 131.0
58.9754 165.0
58.9902 158.0
59.005 154.0
59.0197 153.0
59.0345 158.0
59.0493 170.0
59.064 143.0
59.0788 154.0
59.0936 165.0
59.1084 158.0
59.1231 127.0
59.1379 158.0
59.1527 153.0
59.1674 156.0
59.1822 133.0
59.197 155.0
59.2118 144.0
59.2265 152.0
59.2413 143.0
59.2561 133.0
59.2708 167.0
59.2856 136.0
59.3004 151.0
59.3152 157.0
59.3299 161.0
59.3447 153.0
59.3595 145.0
59.3742 155.0
59.389 153.0
59.4038 163.0
59.4186 140.0
59.4333 139.0
59.4481 140.0
59.4629 150.0
59.4776 155.0
59.4924 145.0
59.5072 170.0
59.522 155.0
59.5367 137.0
59.5515 144.0
59.5663 154.0
59.581 119.0
59.5958 157.0
59.6106 123.0
59.6254 152.0
59.6401 172.0
59.6549 141.0
59.6697 153.0
59.6844 139.0
59.6992 159.0
59.714 153.0
59.7288 152.0
59.7435 162.0
59.7583 131.0
59.7731 134.0
59.7878 175.0
59.8026 172.0
59.8174 141.0
59.8322 182.0
59.8469 126.0
59.8617 159.0
59.8765 146.0
59.8913 137.0
59.906 168.0
59.9208 150.0
59.9356 158.0
59.9503 147.0
59.9651 147.0
59.9799 154.0
59.9947 141.0
60.0094 149.0
60.0242 167.0
60.039 134.0
60.0537 167.0
60.0685 153.0
60.0833 182.0
60.0981 163.0
60.1128 157.0
60.1276 163.0
60.1424 139.0
60.1571 147.0
60.1719 163.0
60.1867 134.0
60.2015 171.0
60.2162 163.0
60.231 164.0
60.2458 178.0
60.2605 134.0
60.2753 185.0
60.2901 179.0
60.3049 172.0
60.3196 162.0
60.3344 165.0
60.3492 134.0
60.3639 156.0
60.3787 149.0
60.3935 166.0
60.4083 163.0
60.423 132.0
60.4378 174.0
60.4526 153.0
60.4673 163.0
60.4821 161.0
60.4969 159.0
60.5117 148.0
60.5264 160.0
60.5412 166.0
60.556 168.0
60.5707 191.0
60.5855 178.0
60.6003 166.0
60.6151 164.0
60.6298 159.0
60.6446 162.0
60.6594 180.0
60.6741 174.0
60.6889 189.0
60.7037 177.0
60.7185 182.0
60.7332 237.0
60.748 223.0
60.7628 275.0
60.7775 380.0
60.7923 551.0
60.8071 818.0
60.8219 1082.0
60.8366 1204.0
60.8514 1100.0
60.8662 963.0
60.8809 782.0
60.8957 570.0
60.9105 583.0
60.9253 539.0
60.94 456.0
60.9548 372.0
60.9696 287.0
60.9843 217.0
60.9991 216.0
61.0139 218.0
61.0287 213.0
61.0434 208.0
61.0582 174.0
61.073 193.0
61.0877 182.0
61.1025 180.0
61.1173 168.0
61.1321 219.0
61.1468 193.0
61.1616 198.0
61.1764 156.0
61.1911 181.0
61.2059 187.0
61.2207 159.0
61.2355 188.0
61.2502 189.0
61.265 190.0
61.2798 165.0
61.2945 166.0
61.3093 165.0
61.3241 181.0
61.3389 161.0
61.3536 181.0
61.3684 179.0
61.3832 160.0
61.398 185.0
61.4127 164.0
61.4275 182.0
61.4423 165.0
61.457 162.0
61.4718 177.0
61.4866 183.0
61.5014 183.0
61.5161 141.0
61.5309 178.0
61.5457 169.0
61.5604 142.0
61.5752 186.0
61.59 177.0
61.6048 153.0
61.6195 153.0
61.6343 184.0
61.6491 174.0
61.6638 161.0
61.6786 166.0
61.6934 153.0
61.7082 173.0
61.7229 170.0
61.7377 161.0
61.7525 140.0
61.7672 158.0
61.782 166.0
61.7968 181.0
61.8116 143.0
61.8263 164.0
61.8411 135.0
61.8559 166.0
61.8706 183.0
61.8854 165.0
61.9002 169.0
61.915 157.0
61.9297 176.0
61.9445 154.0
61.9593 146.0
61.974 149.0
61.9888 180.0
62.0036 185.0
62.0184 177.0
62.0331 152.0
62.0479 158.0
62.0627 159.0
62.0774 149.0
62.0922 174.0
62.107 158.0
62.1218 162.0
62.1365 163.0
62.1513 181.0
62.1661 173.0
62.1808 140.0
62.1956 162.0
62.2104 157.0
62.2252 177.0
62.2399 170.0
62.2547 156.0
62.2695 162.0
62.2842 153.0
62.299 173.0
62.3138 147.0
62.3286 150.0
62.3433 153.0
62.3581 178.0
62.3729 168.0
62.3876 177.0
62.4024 154.0
62.4172 159.0
62.432 159.0
62.4467 179.0
62.4615 153.0
62.4763 172.0
62.491 157.0
62.5058 169.0
62.5206 158.0
62.5354 161.0
62.5501 158.0
62.5649 170.0
62.5797 150.0
62.5944 179.0
62.6092 175.0
62.624 165.0
62.6388 159.0
62.6535 176.0
62.6683 186.0
62.6831 196.0
62.6978 159.0
62.7126 157.0
62.7274 173.0
62.7422 196.0
62.7569 139.0
62.7717 164.0
62.7865 176.0
62.8012 189.0
62.816 142.0
62.8308 158.0
62.8456 179.0
62.8603 160.0
62.8751 165.0
62.8899 153.0
62.9047 153.0
62.9194 167.0
62.9342 161.0
62.949 170.0
62.9637 186.0
62.9785 147.0
62.9933 163.0
63.0081 172.0
63.0228 171.0
63.0376 171.0
63.0524 164.0
63.0671 165.0
63.0819 152.0
63.0967 153.0
63.1115 165.0
63.1262 153.0
63.141 152.0
63.1558 185.0
63.1705 162.0
63.1853 177.0
63.2001 166.0
63.2149 196.0
63.2296 158.0
63.2444 157.0
63.2592 164.0
63.2739 174.0
63.2887 187.0
63.3035 142.0
63.3183 137.0
63.333 185.0
63.3478 165.0
63.3626 173.0
63.3773 178.0
63.3921 162.0
63.4069 173.0
63.4217 184.0
63.4364 168.0
63.4512 167.0
63.466 157.0
63.4807 187.0
63.4955 176.0
63.5103 210.0
63.5251 168.0
63.5398 186.0
63.5546 180.0
63.5694 193.0
63.5841 148.0
63.5989 161.0
63.6137 179.0
63.6285 196.0
63.6432 186.0
63.658 173.0
63.6728 179.0
63.6875 181.0
63.7023 165.0
63.7171 189.0
63.7319 206.0
63.7466 202.0
63.7614 171.0
63.7762 194.0
63.7909 168.0
63.8057 184.0
63.8205 191.0
63.8353 185.0
63.85 186.0
63.8648 170.0
63.8796 174.0
63.8943 203.0
63.9091 165.0
63.9239 188.0
63.9387 181.0
63.9534 208.0
63.9682 193.0
63.983 160.0
63.9977 188.0
64.0125 197.0
64.0273 203.0
64.0421 206.0
64.0568 198.0
64.0716 185.0
64.0864 192.0
64.1011 184.0
64.1159 220.0
64.1307 222.0
64.1455 203.0
64.1602 217.0
64.175 214.0
64.1898 215.0
64.2045 235.0
64.2193 215.0
64.2341 244.0
64.2489 214.0
64.2636 227.0
64.2784 229.0
64.2932 235.0
64.3079 219.0
64.3227 275.0
64.3375 259.0
64.3523 271.0
64.367 258.0
64.3818 276.0
64.3966 277.0
64.4114 281.0
64.4261 280.0
64.4409 329.0
64.4557 283.0
64.4704 329.0
64.4852 348.0
64.5 366.0
64.5148 411.0
64.5295 399.0
64.5443 399.0
64.5591 411.0
64.5738 418.0
64.5886 440.0
64.6034 490.0
64.6182 516.0
64.6329 523.0
64.6477 579.0
64.6625 602.0
64.6772 661.0
64.692 709.0
64.7068 694.0
64.7216 848.0
64.7363 906.0
64.7511 984.0
64.7659 1068.0
64.7806 1127.0
64.7954 1289.0
64.8102 1403.0
64.825 1505.0
64.8397 1692.0
64.8545 1781.0
64.8693 1971.0
64.884 2140.0
64.8988 2194.0
64.9136 2158.0
64.9284 2314.0
64.9431 2419.0
64.9579 2420.0
64.9727 2507.0
64.9874 2508.0
65.0022 2494.0
65.017 2480.0
65.0318 2307.0
65.0465 2318.0
65.0613 2257.0
65.0761 2262.0
65.0908 2069.0
65.1056 1989.0
65.1204 1941.0
65.1352 1869.0
65.1499 1767.0
65.1647 1632.0
65.1795 1588.0
65.1942 1508.0
65.209 1435.0
65.2238 1357.0
65.2386 1184.0
65.2533 1134.0
65.2681 1005.0
65.2829 991.0
65.2976 894.0
65.3124 783.0
65.3272 750.0
65.342 710.0
65.3567 624.0
65.3715 631.0
65.3863 562.0
65.401 473.0
65.4158 489.0
65.4306 474.0
65.4454 442.0
65.4601 416.0
65.4749 383.0
65.4897 389.0
65.5044 371.0
65.5192 378.0
65.534 353.0
65.5488 337.0
65.5635 338.0
65.5783 309.0
65.5931 299.0
65.6078 320.0
65.6226 289.0
65.6374 311.0
65.6522 289.0
65.6669 267.0
65.6817 303.0
65.6965 259.0
65.7112 271.0
65.726 272.0
65.7408 281.0
65.7556 277.0
65.7703 243.0
65.7851 279.0
65.7999 279.0
65.8146 241.0
65.8294 232.0
65.8442 237.0
65.859 232.0
65.8737 289.0
65.8885 259.0
65.9033 269.0
65.9181 280.0
65.9328 276.0
65.9476 268.0
65.9624 282.0
65.9771 232.0
65.9919 242.0
66.0067 266.0
66.0215 224.0
66.0362 283.0
66.051 273.0
66.0658 265.0
66.0805 270.0
66.0953 274.0
66.1101 306.0
66.1249 282.0
66.1396 267.0
66.1544 264.0
66.1692 235.0
66.1839 237.0
66.1987 304.0
66.2135 302.0
66.2283 294.0
66.243 317.0
66.2578 280.0
66.2726 301.0
66.2873 292.0
66.3021 285.0
66.3169 292.0
66.3317 294.0
66.3464 291.0
66.3612 320.0
66.376 326.0
66.3907 309.0
66.4055 303.0
66.4203 305.0
66.4351 301.0
66.4498 326.0
66.4646 309.0
66.4794 326.0
66.4941 337.0
66.5089 318.0
66.5237 325.0
66.5385 332.0
66.5532 340.0
66.568 360.0
66.5828 333.0
66.5975 365.0
66.6123 344.0
66.6271 348.0
66.6419 362.0
66.6566 372.0
66.6714 355.0
66.6862 350.0
66.7009 358.0
66.7157 358.0
66.7305 320.0
66.7453 381.0
66.76 360.0
66.7748 355.0
66.7896 360.0
66.8043 391.0
66.8191 423.0
66.8339 370.0
66.8487 412.0
66.8634 420.0
66.8782 408.0
66.893 401.0
66.9077 398.0
66.9225 438.0
66.9373 413.0
66.9521 450.0
66.9668 422.0
66.9816 435.0
66.9964 429.0
67.0111 469.0
67.0259 500.0
67.0407 453.0
67.0555 500.0
67.0702 453.0
67.085 505.0
67.0998 507.0
67.1145 484.0
67.1293 461.0
67.1441 496.0
67.1589 497.0
67.1736 536.0
67.1884 518.0
67.2032 513.0
67.2179 547.0
67.2327 543.0
67.2475 530.0
67.2623 565.0
67.277 548.0
67.2918 552.0
67.3066 547.0
67.3213 596.0
67.3361 608.0
67.3509 632.0
67.3657 620.0
67.3804 644.0
67.3952 603.0
67.41 642.0
67.4248 682.0
67.4395 731.0
67.4543 687.0
67.4691 708.0
67.4838 715.0
67.4986 735.0
67.5134 771.0
67.5282 770.0
67.5429 816.0
67.5577 792.0
67.5725 903.0
67.5872 857.0
67.602 893.0
67.6168 975.0
67.6316 967.0
67.6463 977.0
67.6611 1037.0
67.6759 1085.0
67.6906 1191.0
67.7054 1254.0
67.7202 1387.0
67.735 1540.0
67.7497 1682.0
67.7645 1944.0
67.7793 2323.0
67.794 2591.0
67.8088 2780.0
67.8236 3027.0
67.8384 3036.0
67.8531 3287.0
67.8679 3334.0
67.8827 3061.0
67.8974 3237.0
67.9122 3031.0
67.927 3143.0
67.9418 3333.0
67.9565 3350.0
67.9713 3931.0
67.9861 4370.0
68.0008 5214.0
68.0156 5873.0
68.0304 7367.0
68.0452 8733.0
68.0599 11973.0
68.0747 15182.0
68.0895 24341.0
68.1042 36928.0
68.119 85839.0
68.1338 190489.0
68.1486 275754.0
68.1633 308937.0
68.1781 266789.0
68.1929 156479.0
68.2076 75388.0
68.2224 39079.0
68.2372 25351.0
68.252 19055.0
68.2667 17078.0
68.2815 18738.0
68.2963 25865.0
68.311 46633.0
68.3258 94957.0
68.3406 136483.0
68.3554 151405.0
68.3701 135504.0
68.3849 85183.0
68.3997 43584.0
68.4144 23041.0
68.4292 14246.0
68.444 9617.0
68.4588 7422.0
68.4735 5909.0
68.4883 4963.0
68.5031 4372.0
68.5178 3767.0
68.5326 3409.0
68.5474 3082.0
68.5622 2769.0
68.5769 2615.0
68.5917 2357.0
68.6065 2159.0
68.6212 2036.0
68.636 1952.0
68.6508 1784.0
68.6656 1637.0
68.6803 1600.0
68.6951 1467.0
68.7099 1464.0
68.7246 1308.0
68.7394 1317.0
68.7542 1195.0
68.769 1257.0
68.7837 1121.0
68.7985 1137.0
68.8133 1085.0
68.828 996.0
68.8428 959.0
68.8576 864.0
68.8724 913.0
68.8871 827.0
68.9019 728.0
68.9167 783.0
68.9315 752.0
68.9462 778.0
68.961 713.0
68.9758 745.0
68.9905 739.0
69.0053 735.0
69.0201 644.0
69.0349 674.0
69.0496 636.0
69.0644 706.0
69.0792 615.0
69.0939 608.0
69.1087 573.0
69.1235 594.0
69.1383 567.0
69.153 557.0
69.1678 514.0
69.1826 532.0
69.1973 519.0
69.2121 507.0
69.2269 483.0
69.2417 493.0
69.2564 470.0
69.2712 470.0
69.286 428.0
69.3007 444.0
69.3155 452.0
69.3303 400.0
69.3451 435.0
69.3598 430.0
69.3746 389.0
69.3894 409.0
69.4041 419.0
69.4189 357.0
69.4337 405.0
69.4485 381.0
69.4632 370.0
69.478 344.0
69.4928 374.0
69.5075 359.0
69.5223 353.0
69.5371 342.0
69.5519 316.0
69.5666 317.0
69.5814 316.0
69.5962 323.0
69.6109 290.0
69.6257 334.0
69.6405 301.0
69.6553 321.0
69.67 313.0
69.6848 314.0
69.6996 271.0
69.7143 288.0
69.7291 260.0
69.7439 238.0
69.7587 264.0
69.7734 239.0
69.7882 229.0
69.803 270.0
69.8177 274.0
69.8325 269.0
69.8473 273.0
69.8621 282.0
69.8768 230.0
69.8916 226.0
69.9064 255.0
69.9211 238.0
69.9359 277.0
69.9507 217.0
69.9655 201.0
69.9802 231.0
69.995 231.0
70.0098 226.0
70.0245 238.0
70.0393 238.0
70.0541 227.0
70.0689 217.0
70.0836 222.0
70.0984 215.0
70.1132 234.0
70.1279 233.0
70.1427 214.0
70.1575 231.0
70.1723 237.0
70.187 215.0
70.2018 211.0
70.2166 206.0
70.2313 209.0
70.2461 230.0
70.2609 178.0
70.2757 233.0
70.2904 233.0
70.3052 207.0
70.32 209.0
70.3347 204.0
70.3495 217.0
70.3643 221.0
70.3791 220.0
70.3938 194.0
70.4086 211.0
70.4234 204.0
70.4382 196.0
70.4529 205.0
70.4677 209.0
70.4825 195.0
70.4972 185.0
70.512 187.0
70.5268 202.0
70.5416 210.0
70.5563 216.0
70.5711 213.0
70.5859 174.0
70.6006 197.0
70.6154 185.0
70.6302 200.0
70.645 194.0
70.6597 184.0
70.6745 183.0
70.6893 187.0
70.704 201.0
70.7188 183.0
70.7336 193.0
70.7484 198.0
70.7631 173.0
70.7779 197.0
70.7927 175.0
70.8074 177.0
70.8222 207.0
70.837 166.0
70.8518 157.0
70.8665 196.0
70.8813 171.0
70.8961 192.0
70.9108 175.0
70.9256 214.0
70.9404 190.0
70.9552 188.0
70.9699 199.0
70.9847 199.0
70.9995 190.0
71.0142 180.0
71.029 204.0
71.0438 166.0
71.0586 198.0
71.0733 172.0
71.0881 187.0
71.1029 168.0
71.1176 170.0
71.1324 183.0
71.1472 183.0
71.162 152.0
71.1767 201.0
71.1915 172.0
71.2063 197.0
71.221 187.0
71.2358 167.0
71.2506 185.0
71.2654 192.0
71.2801 171.0
71.2949 193.0
71.3097 164.0
71.3244 190.0
71.3392 165.0
71.354 189.0
71.3688 166.0
71.3835 176.0
71.3983 189.0
71.4131 177.0
71.4278 179.0
71.4426 156.0
71.4574 161.0
71.4722 180.0
71.4869 180.0
71.5017 170.0
71.5165 171.0
71.5312 194.0
71.546 189.0
71.5608 180.0
71.5756 196.0
71.5903 162.0
71.6051 179.0
71.6199 171.0
71.6346 183.0
71.6494 188.0
71.6642 182.0
71.679 174.0
71.6937 170.0
71.7085 177.0
71.7233 173.0
71.738 200.0
71.7528 167.0
71.7676 160.0
71.7824 168.0
71.7971 165.0
71.8119 168.0
71.8267 161.0
71.8414 162.0
71.8562 183.0
71.871 179.0
71.8858 178.0
71.9005 158.0
71.9153 171.0
71.9301 195.0
71.9449 189.0
71.9596 189.0
71.9744 162.0
71.9892 180.0
72.0039 188.0
72.0187 186.0
72.0335 180.0
72.0483 177.0
72.063 188.0
72.0778 164.0
72.0926 158.0
72.1073 177.0
72.1221 184.0
72.1369 166.0
72.1517 148.0
72.1664 199.0
72.1812 163.0
72.196 168.0
72.2107 180.0
72.2255 182.0
72.2403 162.0
72.2551 181.0
72.2698 175.0
72.2846 187.0
72.2994 156.0
72.3141 168.0
72.3289 164.0
72.3437 177.0
72.3585 179.0
72.3732 160.0
72.388 167.0
72.4028 179.0
72.4175 148.0
72.4323 171.0
72.4471 193.0
72.4619 153.0
72.4766 156.0
72.4914 188.0
72.5062 163.0
72.5209 155.0
72.5357 182.0
72.5505 181.0
72.5653 154.0
72.58 147.0
72.5948 178.0
72.6096 153.0
72.6243 156.0
72.6391 179.0
72.6539 178.0
72.6687 166.0
72.6834 154.0
72.6982 165.0
72.713 168.0
72.7277 168.0
72.7425 165.0
72.7573 167.0
72.7721 159.0
72.7868 154.0
72.8016 191.0
72.8164 141.0
72.8311 193.0
72.8459 165.0
72.8607 187.0
72.8755 170.0
72.8902 168.0
72.905 170.0
72.9198 188.0
72.9345 168.0
72.9493 155.0
72.9641 176.0
72.9789 174.0
72.9936 171.0
73.0084 156.0
73.0232 155.0
73.0379 174.0
73.0527 150.0
73.0675 146.0
73.0823 146.0
73.097 158.0
73.1118 174.0
73.1266 194.0
73.1413 152.0
73.1561 173.0
73.1709 168.0
73.1857 152.0
73.2004 169.0
73.2152 164.0
73.23 173.0
73.2447 137.0
73.2595 164.0
73.2743 181.0
73.2891 166.0
73.3038 174.0
73.3186 173.0
73.3334 148.0
73.3481 155.0
73.3629 174.0
73.3777 168.0
73.3925 155.0
73.4072 161.0
73.422 158.0
73.4368 150.0
73.4516 162.0
73.4663 137.0
73.4811 174.0
73.4959 172.0
73.5106 158.0
73.5254 172.0
73.5402 176.0
73.555 139.0
73.5697 177.0
73.5845 171.0
73.5993 168.0
73.614 169.0
73.6288 152.0
73.6436 166.0
73.6584 185.0
73.6731 142.0
73.6879 161.0
73.7027 148.0
73.7174 159.0
73.7322 154.0
73.747 178.0
73.7618 163.0
73.7765 157.0
73.7913 159.0
73.8061 169.0
73.8208 165.0
73.8356 177.0
73.8504 159.0
73.8652 171.0
73.8799 143.0
73.8947 171.0
73.9095 142.0
73.9242 198.0
73.939 153.0
73.9538 180.0
73.9686 160.0
73.9833 171.0
73.9981 162.0
74.0129 147.0
74.0276 160.0
74.0424 159.0
74.0572 178.0
74.072 158.0
74.0867 158.0
74.1015 170.0
74.1163 200.0
74.131 143.0
74.1458 136.0
74.1606 158.0
74.1754 189.0
74.1901 172.0
74.2049 159.0
74.2197 170.0
74.2344 163.0
74.2492 183.0
74.264 175.0
74.2788 170.0
74.2935 170.0
74.3083 158.0
74.3231 159.0
74.3378 197.0
74.3526 154.0
74.3674 174.0
74.3822 157.0
74.3969 157.0
74.4117 149.0
74.4265 167.0
74.4412 157.0
74.456 170.0
74.4708 151.0
74.4856 156.0
74.5003 166.0
74.5151 145.0
74.5299 177.0
74.5446 155.0
74.5594 179.0
74.5742 148.0
74.589 158.0
74.6037 149.0
74.6185 168.0
74.6333 172.0
74.648 154.0
74.6628 136.0
74.6776 163.0
74.6924 170.0
74.7071 165.0
74.7219 156.0
74.7367 150.0
74.7514 162.0
74.7662 170.0
74.781 168.0
74.7958 144.0
74.8105 178.0
74.8253 142.0
74.8401 163.0
74.8548 166.0
74.8696 151.0
74.8844 177.0
74.8992 159.0
74.9139 147.0
74.9287 153.0
74.9435 141.0
74.9583 157.0
74.973 166.0
74.9878 155.0
74.9976 147.0