File: data/W6900a/XRD_2ThetaOmega/scan_2th-om_a_Cr2O3_30-40deg_PIXscan_4min_1.xy
30.0025 114.0
30.0123 120.0
30.0222 106.0
30.032 100.0
30.0419 105.0
30.0517 96.0
30.0615 131.0
30.0714 114.0
30.0812 115.0
30.0911 93.0
30.1009 119.0
30.1108 100.0
30.1206 100.0
30.1305 119.0
30.1403 118.0
30.1502 103.0
30.16 107.0
30.1699 101.0
30.1797 111.0
30.1896 118.0
30.1994 113.0
30.2093 100.0
30.2191 104.0
30.229 112.0
30.2388 105.0
30.2487 108.0
30.2585 101.0
30.2684 110.0
30.2782 113.0
30.288 107.0
30.2979 105.0
30.3077 100.0
30.3176 98.0
30.3274 116.0
30.3373 115.0
30.3471 112.0
30.357 107.0
30.3668 102.0
30.3767 111.0
30.3865 89.0
30.3964 100.0
30.4062 105.0
30.4161 97.0
30.4259 118.0
30.4358 112.0
30.4456 109.0
30.4555 106.0
30.4653 100.0
30.4752 91.0
30.485 101.0
30.4948 89.0
30.5047 100.0
30.5145 94.0
30.5244 91.0
30.5342 109.0
30.5441 99.0
30.5539 106.0
30.5638 107.0
30.5736 105.0
30.5835 104.0
30.5933 107.0
30.6032 107.0
30.613 113.0
30.6229 97.0
30.6327 90.0
30.6426 110.0
30.6524 122.0
30.6623 106.0
30.6721 118.0
30.682 114.0
30.6918 105.0
30.7016 102.0
30.7115 107.0
30.7213 130.0
30.7312 122.0
30.741 92.0
30.7509 106.0
30.7607 109.0
30.7706 89.0
30.7804 107.0
30.7903 91.0
30.8001 118.0
30.81 96.0
30.8198 110.0
30.8297 107.0
30.8395 110.0
30.8494 123.0
30.8592 99.0
30.8691 116.0
30.8789 101.0
30.8888 101.0
30.8986 112.0
30.9085 117.0
30.9183 123.0
30.9281 88.0
30.938 101.0
30.9478 108.0
30.9577 87.0
30.9675 102.0
30.9774 98.0
30.9872 104.0
30.9971 108.0
31.0069 119.0
31.0168 112.0
31.0266 117.0
31.0365 110.0
31.0463 96.0
31.0562 108.0
31.066 107.0
31.0759 112.0
31.0857 118.0
31.0956 97.0
31.1054 119.0
31.1153 129.0
31.1251 93.0
31.1349 99.0
31.1448 112.0
31.1546 89.0
31.1645 108.0
31.1743 104.0
31.1842 112.0
31.194 104.0
31.2039 103.0
31.2137 112.0
31.2236 83.0
31.2334 106.0
31.2433 95.0
31.2531 110.0
31.263 102.0
31.2728 97.0
31.2827 87.0
31.2925 100.0
31.3024 95.0
31.3122 100.0
31.3221 104.0
31.3319 127.0
31.3418 89.0
31.3516 118.0
31.3614 112.0
31.3713 105.0
31.3811 107.0
31.391 111.0
31.4008 107.0
31.4107 86.0
31.4205 111.0
31.4304 102.0
31.4402 95.0
31.4501 116.0
31.4599 107.0
31.4698 93.0
31.4796 100.0
31.4895 89.0
31.4993 98.0
31.5092 119.0
31.519 98.0
31.5289 102.0
31.5387 99.0
31.5486 98.0
31.5584 100.0
31.5682 118.0
31.5781 99.0
31.5879 120.0
31.5978 99.0
31.6076 124.0
31.6175 101.0
31.6273 111.0
31.6372 81.0
31.647 125.0
31.6569 111.0
31.6667 100.0
31.6766 107.0
31.6864 119.0
31.6963 100.0
31.7061 99.0
31.716 112.0
31.7258 117.0
31.7357 97.0
31.7455 114.0
31.7554 104.0
31.7652 109.0
31.7751 106.0
31.7849 98.0
31.7947 85.0
31.8046 111.0
31.8144 130.0
31.8243 98.0
31.8341 110.0
31.844 119.0
31.8538 117.0
31.8637 123.0
31.8735 111.0
31.8834 118.0
31.8932 113.0
31.9031 112.0
31.9129 123.0
31.9228 119.0
31.9326 111.0
31.9425 93.0
31.9523 117.0
31.9622 124.0
31.972 109.0
31.9819 132.0
31.9917 109.0
32.0015 116.0
32.0114 115.0
32.0212 122.0
32.0311 117.0
32.0409 101.0
32.0508 104.0
32.0606 126.0
32.0705 124.0
32.0803 101.0
32.0902 116.0
32.1 126.0
32.1099 119.0
32.1197 119.0
32.1296 117.0
32.1394 121.0
32.1493 106.0
32.1591 114.0
32.169 117.0
32.1788 114.0
32.1887 113.0
32.1985 129.0
32.2083 107.0
32.2182 99.0
32.228 108.0
32.2379 117.0
32.2477 90.0
32.2576 94.0
32.2674 106.0
32.2773 104.0
32.2871 102.0
32.297 105.0
32.3068 105.0
32.3167 120.0
32.3265 100.0
32.3364 108.0
32.3462 125.0
32.3561 95.0
32.3659 109.0
32.3758 116.0
32.3856 92.0
32.3955 97.0
32.4053 129.0
32.4152 109.0
32.425 101.0
32.4348 96.0
32.4447 96.0
32.4545 112.0
32.4644 119.0
32.4742 99.0
32.4841 107.0
32.4939 102.0
32.5038 113.0
32.5136 101.0
32.5235 100.0
32.5333 108.0
32.5432 113.0
32.553 102.0
32.5629 106.0
32.5727 130.0
32.5826 94.0
32.5924 101.0
32.6023 105.0
32.6121 102.0
32.622 105.0
32.6318 87.0
32.6416 93.0
32.6515 96.0
32.6613 97.0
32.6712 119.0
32.681 101.0
32.6909 108.0
32.7007 108.0
32.7106 117.0
32.7204 103.0
32.7303 113.0
32.7401 115.0
32.75 114.0
32.7598 113.0
32.7697 111.0
32.7795 109.0
32.7894 118.0
32.7992 122.0
32.8091 116.0
32.8189 111.0
32.8288 113.0
32.8386 102.0
32.8485 103.0
32.8583 100.0
32.8681 104.0
32.878 105.0
32.8878 110.0
32.8977 106.0
32.9075 112.0
32.9174 116.0
32.9272 113.0
32.9371 108.0
32.9469 114.0
32.9568 96.0
32.9666 101.0
32.9765 117.0
32.9863 115.0
32.9962 123.0
33.006 104.0
33.0159 110.0
33.0257 93.0
33.0356 96.0
33.0454 121.0
33.0553 108.0
33.0651 119.0
33.0749 96.0
33.0848 103.0
33.0946 114.0
33.1045 124.0
33.1143 104.0
33.1242 119.0
33.134 128.0
33.1439 125.0
33.1537 83.0
33.1636 107.0
33.1734 114.0
33.1833 99.0
33.1931 110.0
33.203 134.0
33.2128 125.0
33.2227 118.0
33.2325 111.0
33.2424 118.0
33.2522 100.0
33.2621 98.0
33.2719 120.0
33.2818 94.0
33.2916 106.0
33.3014 108.0
33.3113 118.0
33.3211 124.0
33.331 96.0
33.3408 115.0
33.3507 109.0
33.3605 111.0
33.3704 99.0
33.3802 104.0
33.3901 133.0
33.3999 93.0
33.4098 112.0
33.4196 109.0
33.4295 104.0
33.4393 98.0
33.4492 128.0
33.459 133.0
33.4689 121.0
33.4787 111.0
33.4886 103.0
33.4984 117.0
33.5082 111.0
33.5181 97.0
33.5279 121.0
33.5378 104.0
33.5476 122.0
33.5575 118.0
33.5673 102.0
33.5772 112.0
33.587 122.0
33.5969 122.0
33.6067 129.0
33.6166 115.0
33.6264 149.0
33.6363 129.0
33.6461 133.0
33.656 139.0
33.6658 130.0
33.6757 126.0
33.6855 151.0
33.6954 118.0
33.7052 113.0
33.715 121.0
33.7249 130.0
33.7347 136.0
33.7446 133.0
33.7544 130.0
33.7643 146.0
33.7741 138.0
33.784 141.0
33.7938 146.0
33.8037 120.0
33.8135 147.0
33.8234 134.0
33.8332 147.0
33.8431 177.0
33.8529 185.0
33.8628 273.0
33.8726 425.0
33.8825 741.0
33.8923 993.0
33.9022 1178.0
33.912 1245.0
33.9219 1132.0
33.9317 895.0
33.9415 641.0
33.9514 408.0
33.9612 324.0
33.9711 209.0
33.9809 230.0
33.9908 189.0
34.0006 157.0
34.0105 180.0
34.0203 155.0
34.0302 146.0
34.04 146.0
34.0499 177.0
34.0597 170.0
34.0696 152.0
34.0794 136.0
34.0893 160.0
34.0991 132.0
34.109 134.0
34.1188 168.0
34.1287 155.0
34.1385 145.0
34.1483 138.0
34.1582 143.0
34.168 121.0
34.1779 134.0
34.1877 141.0
34.1976 128.0
34.2074 128.0
34.2173 126.0
34.2271 145.0
34.237 159.0
34.2468 159.0
34.2567 127.0
34.2665 157.0
34.2764 140.0
34.2862 117.0
34.2961 133.0
34.3059 137.0
34.3158 153.0
34.3256 148.0
34.3355 136.0
34.3453 154.0
34.3552 174.0
34.365 148.0
34.3748 124.0
34.3847 151.0
34.3945 162.0
34.4044 135.0
34.4142 164.0
34.4241 158.0
34.4339 153.0
34.4438 171.0
34.4536 160.0
34.4635 142.0
34.4733 166.0
34.4832 159.0
34.493 151.0
34.5029 143.0
34.5127 170.0
34.5226 159.0
34.5324 140.0
34.5423 142.0
34.5521 145.0
34.562 188.0
34.5718 152.0
34.5816 150.0
34.5915 148.0
34.6013 146.0
34.6112 150.0
34.621 162.0
34.6309 160.0
34.6407 177.0
34.6506 174.0
34.6604 177.0
34.6703 152.0
34.6801 154.0
34.69 179.0
34.6998 171.0
34.7097 167.0
34.7195 190.0
34.7294 188.0
34.7392 183.0
34.7491 184.0
34.7589 179.0
34.7688 175.0
34.7786 178.0
34.7884 163.0
34.7983 176.0
34.8081 184.0
34.818 195.0
34.8278 174.0
34.8377 180.0
34.8475 203.0
34.8574 196.0
34.8672 198.0
34.8771 194.0
34.8869 224.0
34.8968 200.0
34.9066 196.0
34.9165 226.0
34.9263 229.0
34.9362 217.0
34.946 256.0
34.9559 217.0
34.9657 234.0
34.9756 230.0
34.9854 239.0
34.9953 239.0
35.0051 227.0
35.0149 275.0
35.0248 227.0
35.0346 263.0
35.0445 289.0
35.0543 272.0
35.0642 261.0
35.074 315.0
35.0839 296.0
35.0937 280.0
35.1036 288.0
35.1134 306.0
35.1233 330.0
35.1331 313.0
35.143 313.0
35.1528 395.0
35.1627 386.0
35.1725 415.0
35.1824 402.0
35.1922 436.0
35.2021 413.0
35.2119 476.0
35.2217 461.0
35.2316 494.0
35.2414 535.0
35.2513 535.0
35.2611 582.0
35.271 593.0
35.2808 632.0
35.2907 702.0
35.3005 741.0
35.3104 823.0
35.3202 887.0
35.3301 931.0
35.3399 1048.0
35.3498 1104.0
35.3596 1184.0
35.3695 1341.0
35.3793 1437.0
35.3892 1523.0
35.399 1737.0
35.4089 1819.0
35.4187 1930.0
35.4286 2132.0
35.4384 2261.0
35.4482 2370.0
35.4581 2523.0
35.4679 2663.0
35.4778 2719.0
35.4876 2897.0
35.4975 2773.0
35.5073 2904.0
35.5172 3025.0
35.527 2920.0
35.5369 3037.0
35.5467 2969.0
35.5566 2864.0
35.5664 2867.0
35.5763 2807.0
35.5861 2705.0
35.596 2664.0
35.6058 2584.0
35.6157 2506.0
35.6255 2383.0
35.6354 2273.0
35.6452 2057.0
35.655 1949.0
35.6649 1826.0
35.6747 1767.0
35.6846 1522.0
35.6944 1465.0
35.7043 1431.0
35.7141 1385.0
35.724 1277.0
35.7338 1108.0
35.7437 1117.0
35.7535 998.0
35.7634 956.0
35.7732 899.0
35.7831 799.0
35.7929 753.0
35.8028 777.0
35.8126 727.0
35.8225 664.0
35.8323 649.0
35.8422 622.0
35.852 617.0
35.8619 565.0
35.8717 557.0
35.8815 524.0
35.8914 517.0
35.9012 505.0
35.9111 495.0
35.9209 472.0
35.9308 438.0
35.9406 455.0
35.9505 474.0
35.9603 452.0
35.9702 431.0
35.98 390.0
35.9899 390.0
35.9997 359.0
36.0096 391.0
36.0194 346.0
36.0293 353.0
36.0391 415.0
36.049 327.0
36.0588 330.0
36.0687 325.0
36.0785 304.0
36.0883 321.0
36.0982 312.0
36.108 306.0
36.1179 303.0
36.1277 310.0
36.1376 328.0
36.1474 290.0
36.1573 285.0
36.1671 274.0
36.177 280.0
36.1868 276.0
36.1967 278.0
36.2065 235.0
36.2164 260.0
36.2262 262.0
36.2361 286.0
36.2459 241.0
36.2558 291.0
36.2656 298.0
36.2755 227.0
36.2853 219.0
36.2951 274.0
36.305 218.0
36.3148 223.0
36.3247 260.0
36.3345 219.0
36.3444 227.0
36.3542 236.0
36.3641 222.0
36.3739 216.0
36.3838 209.0
36.3936 275.0
36.4035 276.0
36.4133 229.0
36.4232 232.0
36.433 240.0
36.4429 224.0
36.4527 234.0
36.4626 223.0
36.4724 208.0
36.4823 215.0
36.4921 227.0
36.502 194.0
36.5118 231.0
36.5216 209.0
36.5315 202.0
36.5413 211.0
36.5512 233.0
36.561 219.0
36.5709 266.0
36.5807 213.0
36.5906 256.0
36.6004 212.0
36.6103 262.0
36.6201 226.0
36.63 255.0
36.6398 221.0
36.6497 219.0
36.6595 227.0
36.6694 228.0
36.6792 283.0
36.6891 227.0
36.6989 231.0
36.7088 256.0
36.7186 228.0
36.7284 277.0
36.7383 286.0
36.7481 273.0
36.758 299.0
36.7678 279.0
36.7777 281.0
36.7875 257.0
36.7974 315.0
36.8072 332.0
36.8171 275.0
36.8269 286.0
36.8368 318.0
36.8466 297.0
36.8565 319.0
36.8663 323.0
36.8762 331.0
36.886 299.0
36.8959 327.0
36.9057 325.0
36.9156 336.0
36.9254 339.0
36.9353 355.0
36.9451 359.0
36.9549 350.0
36.9648 334.0
36.9746 352.0
36.9845 389.0
36.9943 363.0
37.0042 347.0
37.014 396.0
37.0239 399.0
37.0337 382.0
37.0436 393.0
37.0534 363.0
37.0633 405.0
37.0731 406.0
37.083 421.0
37.0928 415.0
37.1027 447.0
37.1125 418.0
37.1224 446.0
37.1322 454.0
37.1421 495.0
37.1519 449.0
37.1617 477.0
37.1716 496.0
37.1814 512.0
37.1913 493.0
37.2011 495.0
37.211 502.0
37.2208 530.0
37.2307 526.0
37.2405 563.0
37.2504 551.0
37.2602 607.0
37.2701 609.0
37.2799 587.0
37.2898 669.0
37.2996 689.0
37.3095 720.0
37.3193 691.0
37.3292 761.0
37.339 728.0
37.3489 814.0
37.3587 862.0
37.3686 940.0
37.3784 896.0
37.3882 969.0
37.3981 960.0
37.4079 1080.0
37.4178 1205.0
37.4276 1288.0
37.4375 1497.0
37.4473 1784.0
37.4572 2094.0
37.467 2695.0
37.4769 3209.0
37.4867 3437.0
37.4966 3631.0
37.5064 3775.0
37.5163 3783.0
37.5261 3754.0
37.536 3811.0
37.5458 3775.0
37.5557 4105.0
37.5655 4457.0
37.5754 5305.0
37.5852 6586.0
37.595 8571.0
37.6049 12533.0
37.6147 19498.0
37.6246 36940.0
37.6344 90992.0
37.6443 178611.0
37.6541 233184.0
37.664 248618.0
37.6738 243923.0
37.6837 202535.0
37.6935 116364.0
37.7034 53485.0
37.7132 31901.0
37.7231 31108.0
37.7329 53696.0
37.7428 98902.0
37.7526 125848.0
37.7625 132773.0
37.7723 128835.0
37.7822 107370.0
37.792 59217.0
37.8018 25745.0
37.8117 13151.0
37.8215 8373.0
37.8314 6161.0
37.8412 4859.0
37.8511 3963.0
37.8609 3478.0
37.8708 3082.0
37.8806 2767.0
37.8905 2622.0
37.9003 2416.0
37.9102 2062.0
37.92 1888.0
37.9299 1744.0
37.9397 1618.0
37.9496 1611.0
37.9594 1504.0
37.9693 1422.0
37.9791 1369.0
37.989 1278.0
37.9988 1212.0
38.0087 1147.0
38.0185 1075.0
38.0283 1086.0
38.0382 960.0
38.048 951.0
38.0579 922.0
38.0677 951.0
38.0776 944.0
38.0874 916.0
38.0973 826.0
38.1071 858.0
38.117 808.0
38.1268 761.0
38.1367 732.0
38.1465 741.0
38.1564 696.0
38.1662 689.0
38.1761 710.0
38.1859 678.0
38.1958 621.0
38.2056 623.0
38.2155 608.0
38.2253 583.0
38.2351 548.0
38.245 561.0
38.2548 539.0
38.2647 513.0
38.2745 544.0
38.2844 473.0
38.2942 511.0
38.3041 481.0
38.3139 464.0
38.3238 445.0
38.3336 430.0
38.3435 474.0
38.3533 429.0
38.3632 411.0
38.373 383.0
38.3829 429.0
38.3927 388.0
38.4026 389.0
38.4124 394.0
38.4223 393.0
38.4321 352.0
38.442 379.0
38.4518 360.0
38.4616 329.0
38.4715 313.0
38.4813 355.0
38.4912 337.0
38.501 314.0
38.5109 295.0
38.5207 324.0
38.5306 287.0
38.5404 292.0
38.5503 309.0
38.5601 266.0
38.57 267.0
38.5798 255.0
38.5897 229.0
38.5995 208.0
38.6094 222.0
38.6192 227.0
38.6291 229.0
38.6389 204.0
38.6488 223.0
38.6586 216.0
38.6684 205.0
38.6783 207.0
38.6881 199.0
38.698 224.0
38.7078 210.0
38.7177 184.0
38.7275 188.0
38.7374 166.0
38.7472 157.0
38.7571 191.0
38.7669 177.0
38.7768 166.0
38.7866 171.0
38.7965 191.0
38.8063 193.0
38.8162 177.0
38.826 164.0
38.8359 170.0
38.8457 188.0
38.8556 157.0
38.8654 163.0
38.8753 166.0
38.8851 178.0
38.8949 156.0
38.9048 148.0
38.9146 168.0
38.9245 172.0
38.9343 154.0
38.9442 174.0
38.954 157.0
38.9639 159.0
38.9737 174.0
38.9836 157.0
38.9934 164.0
39.0033 146.0
39.0131 150.0
39.023 137.0
39.0328 153.0
39.0427 183.0
39.0525 136.0
39.0624 164.0
39.0722 132.0
39.0821 150.0
39.0919 144.0
39.1017 140.0
39.1116 155.0
39.1214 157.0
39.1313 142.0
39.1411 153.0
39.151 128.0
39.1608 158.0
39.1707 130.0
39.1805 152.0
39.1904 141.0
39.2002 133.0
39.2101 143.0
39.2199 125.0
39.2298 127.0
39.2396 135.0
39.2495 147.0
39.2593 156.0
39.2692 143.0
39.279 147.0
39.2889 131.0
39.2987 130.0
39.3085 129.0
39.3184 143.0
39.3282 138.0
39.3381 130.0
39.3479 150.0
39.3578 133.0
39.3676 138.0
39.3775 125.0
39.3873 124.0
39.3972 152.0
39.407 127.0
39.4169 131.0
39.4267 149.0
39.4366 137.0
39.4464 129.0
39.4563 139.0
39.4661 147.0
39.476 143.0
39.4858 134.0
39.4957 131.0
39.5055 139.0
39.5154 141.0
39.5252 142.0
39.535 117.0
39.5449 113.0
39.5547 136.0
39.5646 129.0
39.5744 136.0
39.5843 128.0
39.5941 130.0
39.604 145.0
39.6138 126.0
39.6237 149.0
39.6335 122.0
39.6434 134.0
39.6532 129.0
39.6631 113.0
39.6729 140.0
39.6828 124.0
39.6926 121.0
39.7025 112.0
39.7123 119.0
39.7222 126.0
39.732 112.0
39.7418 132.0
39.7517 145.0
39.7615 107.0
39.7714 124.0
39.7812 100.0
39.7911 136.0
39.8009 128.0
39.8108 131.0
39.8206 145.0
39.8305 155.0
39.8403 123.0
39.8502 119.0
39.86 139.0
39.8699 133.0
39.8797 110.0
39.8896 123.0
39.8994 125.0
39.9093 107.0
39.9191 149.0
39.929 137.0
39.9388 120.0
39.9487 122.0
39.9585 128.0
39.9683 123.0
39.9782 121.0
39.988 115.0
39.9979 115.0